Time (s),Acceleration x (m/s^2),Acceleration y (m/s^2),Acceleration z (m/s^2),Absolute acceleration (m/s^2)
30.00125063,3.229712248,-12.92961693,1.313061476,13.39142134
30.00356912,3.101098061,-12.9134655,1.25503552,13.33977191
30.00588761,2.913261652,-12.85484123,1.219143152,13.23708225
30.00820605,2.756531715,-12.85364532,1.12283206,13.19376433
30.01052454,2.590230465,-12.8386898,1.034297585,13.13815136
30.01284303,2.401197433,-12.87697506,0.9714859724,13.13491609
30.01516152,2.193620205,-12.79502106,0.9876375198,13.01921508
30.01747996,2.062014818,-12.69751358,1.053440213,12.90691646
30.01979845,1.944168448,-12.5994072,1.146760225,12.79999655
30.02211694,1.808375716,-12.76511097,1.26640141,12.95461514
30.02443537,1.601396561,-12.73161125,1.421336651,12.91040642
30.02675386,1.479362607,-12.4558382,1.527817249,12.63608502
30.02907235,1.405783296,-12.23689461,1.616351724,12.42297908
30.03139084,1.281954765,-12.07597733,1.680957913,12.25961891
30.03370928,1.172483087,-12.10768223,1.761117458,12.29114398
30.03602777,1.104885817,-12.2674036,1.819143414,12.45067254
30.03834626,1.037886858,-12.47019482,1.881955028,12.65403977
30.04066475,1.1395818,-12.35773277,1.905883193,12.55565995
30.04298319,1.298106313,-12.36371422,1.831107497,12.56580534
30.04530168,1.414756417,-12.60120201,1.724028707,12.79703492
30.04762016,1.524826288,-12.97328663,1.703689694,13.17322359
30.04993866,1.628913999,-13.32622719,1.755135417,13.53965259
30.05225709,1.751546144,-13.65942764,1.749153376,13.88190963
30.05457558,1.866401672,-14.00220013,1.700100541,14.22797967
30.05689407,2.009372711,-14.32582951,1.617548108,14.55621625
30.05919959,2.165504456,-14.60578918,1.478166223,14.83925411
30.061531,2.298904419,-14.74696636,1.313659668,14.98277945
30.06384949,2.470589399,-14.88275909,1.158724308,15.13086158
30.06616798,2.632703066,-14.83550072,1.016351461,15.10152897
30.06848642,2.786442041,-14.66441345,0.8973084688,14.95374347
30.07080491,2.948555708,-14.46401501,0.8733802438,14.78730888
30.07312339,3.050848961,-14.13978767,0.7956135273,14.4870382
30.07544188,3.123231649,-13.79701519,0.7555337548,14.16626399
30.07776032,3.190829039,-13.47817135,0.7872386575,13.87307599
30.08007881,3.235096216,-13.17966747,0.8518448472,13.59761457
30.0823973,3.195016384,-12.92602825,0.8781659007,13.3439691
30.08471574,3.073580742,-12.66939735,0.927816987,13.06986504
30.08703423,2.934198856,-12.48515034,0.9972088337,12.86401676
30.08935272,2.788236618,-12.3924284,1.033101201,12.74416899
30.09167121,2.665604353,-12.43370438,1.037288666,12.7584646
30.09398964,2.553740025,-12.5563364,1.061216831,12.85726849
30.09630813,2.444866419,-12.78425312,1.143171072,13.06603765
30.09862662,2.389831543,-13.06002617,1.144965649,13.32615941
30.10094511,2.306082726,-13.30170155,1.10309124,13.54511321
30.10326355,2.178664923,-13.50150204,1.021735311,13.71426561
30.10558204,2.012962103,-13.70249844,0.9212366939,13.88017136
30.10790053,1.844866276,-13.85085392,0.9212366939,14.00351252
30.11021897,1.643270969,-13.87896919,1.125224829,14.02113605
30.11253746,1.424925923,-13.84487152,1.466202021,13.9950216
30.11485595,1.200598717,-13.77248859,1.892722726,13.95368334
30.11717444,1.003190875,-13.666008,2.400599241,13.91147164
30.11949287,0.7734799385,-13.43031502,2.902493954,13.7621257
30.12179845,0.5473581553,-13.15633678,3.413959742,13.60308493
30.12412985,0.2644068897,-12.85902882,3.8668015,13.43043882
30.12644834,-0.04486542568,-12.81775284,4.216751575,13.49362051
30.12875386,-0.2937189937,-12.84287739,4.414757729,13.58366137
30.13108527,-0.4677968323,-12.85065365,4.709673405,13.69449366
30.13340376,-0.5766702294,-12.9451704,4.919044971,13.86026655
30.13570928,-0.6287141442,-13.02233887,5.09073019,13.99614679
30.13804069,-0.6454638839,-13.12822151,5.153541565,14.11827944
30.14035918,-0.6323033571,-13.21974659,5.05423975,14.16710439
30.14267766,-0.5730810165,-13.41057491,4.794020176,14.25323019
30.1449961,-0.4600201547,-13.69711494,4.133601189,14.31465107
30.14731459,-0.327816695,-14.08535004,3.17407918,14.44227572
30.14962016,-0.2428714931,-14.39282799,1.889133453,14.51830945
30.15195157,-0.1220339537,-14.57528114,0.4558327198,14.58291796
30.15427001,0.01615155302,-14.66561031,-1.010967612,14.7004232
30.15657558,0.2500499785,-14.81635761,-2.401197433,15.01175296
30.15890699,0.5030909777,-14.98565006,-3.647858143,15.43145092
30.16122548,0.7627122402,-15.24586964,-4.816751957,16.00685386
30.163531,1.047458172,-15.62034607,-5.885147095,16.72505116
30.16586241,1.259821177,-15.9822607,-6.79561615,17.41264499
30.16818089,1.459023595,-16.29572105,-7.44048214,17.97331491
30.17048647,1.643270969,-16.52243996,-7.699504852,18.30228774
30.17281782,1.723430514,-16.66959953,-7.67916584,18.43408119
30.17513631,1.769492388,-16.84547234,-7.486543655,18.51889245
30.17744188,1.751546144,-16.99442482,-7.17069149,18.52828123
30.17977324,1.668395638,-17.02433395,-6.823133945,18.41647761
30.18209173,1.527817249,-17.0554409,-6.380461693,18.2738223
30.18441022,1.305882931,-17.08894157,-5.934200287,18.13703359
30.18672871,1.0863415,-17.0548439,-5.416153908,17.92714594
30.18904714,0.8464609981,-16.98246002,-4.913063049,17.69911391
30.19136563,0.5623133183,-16.88734627,-4.314857483,17.43894077
30.19368412,0.2494517565,-16.79701614,-3.594019651,17.1790266
30.19600261,-0.04905286431,-16.73600006,-2.847458839,16.97657581
30.19830813,-0.3499503136,-16.81316757,-1.953141451,16.92985028
30.20063954,-0.6095715761,-17.02852249,-1.004387259,17.06900552
30.20295803,-0.9224331379,-17.30369759,-0.342173636,17.33164493
30.20526355,-1.277169108,-17.5567379,0.1573280841,17.60383364
30.20759496,-1.612164259,-17.67398643,0.5796613097,17.75682622
30.20991345,-1.976471543,-17.76311874,1.197607756,17.9128192
30.21221902,-2.323430777,-17.85165405,1.891526341,18.10131915
30.21455037,-2.691327333,-17.84926033,2.508276224,18.22445573
30.21686886,-3.093321562,-17.70449448,2.851646423,18.1975177
30.21917444,-3.423531055,-17.54836273,3.124428272,18.15014191
30.22150584,-3.788436413,-17.494524,3.211168051,18.18576973
30.22382428,-4.10309267,-17.36650848,3.384647608,18.16278684
30.22612985,-4.456034184,-17.24028778,3.528217077,18.15301846
30.22846126,-4.892126083,-16.93400574,3.417548895,17.95475114
30.23077975,-5.344369411,-16.70010757,3.077169895,17.80238332
30.23308527,-5.620141983,-16.73659706,2.531606436,17.83560227
30.23541668,-5.854638577,-16.72403526,1.985444546,17.83009081
30.23773516,-6.026323795,-16.54218102,1.281954765,17.65230124
30.24004069,-6.209374905,-16.38485336,0.4151547253,17.52689676
30.24237209,-6.425925255,-16.16531181,-0.6233302951,17.40684814
30.24469058,-6.5288167,-15.7375946,-1.691127419,17.12183528
30.24699616,-6.507281303,-15.28355598,-2.910270452,16.8642067
30.24932751,-6.360122681,-14.88335705,-4.14257431,16.70707633
30.251646,-6.119643688,-14.413167,-4.740779877,16.3604528
30.25395157,-5.785246849,-13.95912933,-5.06500721,15.93677103
30.25628298,-5.497509956,-13.67498112,-5.608178139,15.76957153
30.25860142,-5.127819061,-13.42253876,-6.145965099,15.62792251
30.26090699,-4.680361271,-13.12881947,-6.358926296,15.32017055
30.26323839,-4.194019794,-12.79502106,-6.299703598,14.86568637
30.26555683,-3.747160196,-12.40977669,-6.074778557,14.31595968
30.26786241,-3.209373474,-11.94556904,-5.662614822,13.60374597
30.27019381,-2.753540754,-11.3760767,-4.909473896,12.69251912
30.2725123,-2.382055044,-10.68873882,-4.000201225,11.6586849
30.27481782,-2.021935225,-10.04865837,-2.861217737,10.64191355
30.27714923,-1.642074585,-9.625727654,-2.202593327,10.01011784
30.27946772,-1.302293777,-9.357730865,-1.953739643,9.647807763
30.28177329,-0.9206385016,-9.108279228,-1.661217093,9.304190883
30.28410464,-0.6693921089,-8.943174362,-1.369292736,9.072123019
30.28642313,-0.4654040039,-8.794221878,-1.110867858,8.876314929
30.28872871,0.06939185411,-8.886942863,-0.9002995491,8.932698806
30.29106011,0.3852444589,-9.043074608,-1.134796143,9.122136479
30.29337855,0.756131947,-9.279366493,-1.306481123,9.401344104
30.29568412,1.059422255,-9.536594391,-1.450050473,9.70420808
30.29801553,1.226321578,-9.731011391,-2.042872429,10.01847169
30.30033402,1.419542074,-9.799804688,-2.723032236,10.26967264
30.30263954,1.588834286,-9.725028992,-3.246462107,10.37497467
30.30497095,1.673779488,-9.584450722,-3.652643681,10.39254729
30.30728944,1.732403636,-9.337990761,-4.00199604,10.30607909
30.30959496,1.891526341,-9.253643036,-4.420739651,10.42836135
30.31192636,2.088335991,-9.09571743,-4.548755646,10.38192664
30.31424485,2.298306227,-8.889336586,-4.610969067,10.2744125
30.31655043,2.444268227,-8.602795601,-4.721637249,10.1131794
30.31888178,2.458027124,-8.160721779,-4.905884743,9.833970836
30.32120027,2.385644197,-7.749754429,-4.990829945,9.521469187
30.32350584,2.331207514,-7.29990387,-4.980062008,9.139154369
30.3258372,2.291725874,-6.757331371,-4.788636208,8.593286419
30.32815569,2.26241374,-6.277570248,-4.46321249,8.027868327
30.33046126,2.283949137,-5.804987907,-3.913461447,7.364067406
30.33279267,2.312663078,-5.40000248,-3.477369547,6.826458544
30.33511116,2.307877541,-5.111667156,-3.25005126,6.482150342
30.33741668,2.286940336,-4.876572609,-3.132802963,6.23101203
30.33974808,2.315654039,-4.736592293,-3.047857761,6.08990945
30.34206657,2.317448616,-4.601995945,-3.077169895,6.001492259
30.34437209,2.305484533,-4.487140656,-3.159124136,5.952289938
30.3467035,2.294118643,-4.372285366,-3.298506021,5.938013274
30.34902199,2.308475733,-4.208974838,-3.26141715,5.803565389
30.35132756,2.303689957,-4.04087925,-3.233899832,5.665139067
30.35365892,2.289931297,-3.844069481,-3.321237803,5.572367186
30.3559774,2.225325108,-3.524029493,-3.405584812,5.38227309
30.35828298,2.113460541,-3.065804005,-3.458226919,5.08185036
30.36061438,1.962114573,-2.747558594,-3.471387386,4.842468607
30.36293282,1.900499344,-2.734398127,-3.528815269,4.851944773
30.36523839,1.868794441,-2.658426046,-3.414557934,4.713685139
30.3675698,1.734796405,-2.353939295,-3.203391314,4.337310766
30.36988829,1.527219057,-1.99800694,-2.821736097,3.779765123
30.37219381,1.287338614,-1.691127419,-2.464009047,3.253996503
30.37452522,1.039083242,-1.412363529,-2.162513494,2.78404909
30.37684371,0.8344969153,-1.181456208,-1.774876237,2.289630872
30.37914923,0.6801598072,-1.054636598,-1.414756417,1.891140248
30.38148063,0.5024927258,-0.9044869542,-1.116850019,1.52248138
30.38379912,0.4055834413,-0.7668996453,-0.784845829,1.169878613
30.3861047,0.2973082066,-0.7070791125,-0.5670989752,0.9539152419
30.38843605,0.2907279432,-0.6825526357,-0.3810569942,0.834029538
30.39075454,0.3361915946,-0.6622136831,-0.185443759,0.765467921
30.39306011,0.3068794906,-0.6388836503,-0.214157626,0.7404126074
30.39539152,0.1878365725,-0.5940182209,-0.3493520916,0.7142738331
30.39770996,-0.002392822644,-0.5653043389,-0.4749752879,0.7383605118
30.40002845,-0.1848455518,-0.4731806815,-0.6586244106,0.8317775842
30.40234694,-0.3774677813,-0.3672982752,-0.747158885,0.9141314721
30.40466542,-0.6173482537,-0.3008974493,-0.8685946465,1.107300682
30.40698386,-0.8500502706,-0.3260220885,-0.9086744189,1.286298979
30.40930235,-1.014556766,-0.3924229145,-0.9714859724,1.458460205
30.41162084,-1.256231904,-0.4510470629,-0.9924231768,1.663269615
30.41392636,-1.536790371,-0.4767699242,-1.066002488,1.930128366
30.41625777,-1.864008784,-0.4893322289,-1.246062398,2.294917488
30.41857626,-2.100898266,-0.524028182,-1.333400369,2.542899055
30.42088183,-2.127817631,-0.5335994363,-0.8943174481,2.368995552
30.42321319,-2.129014015,-0.7016952634,-0.7836494446,2.37469648
30.42553168,-2.113460541,-0.9320043921,-0.7866404653,2.44011288
30.42785017,-2.078764677,-1.166501045,-0.8039883971,2.515628075
30.43016866,-2.049452543,-1.400399446,-0.6777670383,2.573080351
30.43248709,-2.02612257,-1.591825247,-0.5808576941,2.641301941
30.43480558,-1.980658889,-1.73060894,-0.4935196638,2.67611259
30.43712407,-1.872383714,-1.890928149,-0.3625126183,2.685674112
30.43944256,-1.785643935,-1.989033818,-0.1609173268,2.677811453
30.441761,-1.704886079,-2.063809633,0.1220339537,2.679708758
30.44407949,-1.551147223,-2.194218397,0.4247260094,2.720486034
30.44639798,-1.328614831,-2.380260229,0.709471941,2.816772366
30.44871647,-1.219143152,-2.626721144,0.9074779749,3.034714199
30.4510349,-1.112064362,-2.579462767,1.724028707,3.295844397
30.45335339,-0.8153542876,-2.489732027,2.489133835,3.613773018
30.45565897,-0.589232564,-2.444268227,3.258426189,4.115699626
30.45799032,-0.2739782035,-2.52682066,4.130609989,4.849930472
30.46030881,-0.01016949583,-2.648854733,4.925625324,5.592702356
30.46261438,0.2123630047,-2.815753937,5.691926956,6.353865025
30.46494579,0.3583251834,-2.964108944,6.467201233,7.123133479
30.46726423,0.4133601189,-3.138785124,7.303493023,7.960141266
30.4695698,0.3786641955,-3.358924866,8.158926964,8.831412799
30.47190121,0.2087737769,-3.519842148,9.112466812,9.770871335
30.4742197,-0.02153540403,-3.787240028,10.14796066,10.83165529
30.47652522,-0.2925225794,-4.14257431,11.24028397,11.98292431
30.47885662,-0.5988038778,-4.60379076,12.25185013,13.10195737
30.48117511,-1.095912814,-5.133202553,12.97149181,13.99322669
30.48348063,-1.73898387,-5.718846321,13.50509071,14.76877596
30.48581204,-2.529811859,-6.30867672,13.58345604,15.18912861
30.48813053,-3.351746321,-6.937989235,13.37946796,15.43956156
30.4904361,-4.343571186,-7.701898098,12.85663605,15.60381157
30.49276751,-5.233701229,-8.497511864,12.19143105,15.75532695
30.49508595,-6.144170284,-9.110671997,11.6584301,16.02105381
30.49739152,-6.776473522,-9.649655342,11.46640587,16.44733733
30.49972292,-7.153343201,-10.3214407,11.14816093,16.79237771
30.50204136,-7.359724045,-10.97946644,11.1128664,17.26875852
30.50434694,-7.064210415,-11.70209885,11.17807102,17.65761756
30.50667834,-6.607181549,-12.71486092,10.93161011,18.0228365
30.50899683,-6.0927248,-13.82273865,10.46261692,18.37541162
30.51130235,-5.444269657,-15.08136272,9.871589661,18.82912255
30.51363376,-4.909473896,-16.35255051,9.061020851,19.3290181
30.51595225,-4.504488468,-17.51665878,8.213961601,19.86436298
30.51825777,-4.119842529,-18.50250053,7.418348312,20.355528
30.52058918,-4.12821722,-19.13300896,6.941578388,20.76775673
30.52290766,-4.49970293,-19.41117477,6.619743824,20.996715
30.52521324,-4.995615482,-19.23111534,6.580860615,20.93083127
30.52754464,-5.793023586,-18.66401672,6.655636311,20.64466365
30.52986308,-6.605386734,-17.92403603,6.796214581,20.2753726
30.53216866,-7.194021225,-17.054245,6.559923172,19.6375611
30.53450006,-7.590631485,-16.0265274,6.286543369,18.81456602
30.5368185,-7.684549809,-15.04965782,5.878567219,17.89139622
30.53912407,-7.432705402,-14.14696598,5.405984402,16.87028226
30.54145548,-6.902695179,-13.2329073,4.817948341,15.68341999
30.54377397,-6.322435856,-12.26919842,4.219144344,14.43286541
30.54607949,-5.799603939,-11.28275681,3.625724554,13.19400946
30.54841089,-5.37188673,-10.3471632,3.131008387,12.07162652
30.55072938,-5.030311584,-9.431908607,2.779263496,11.04487393
30.5530349,-4.82333231,-8.510671616,2.545365095,10.10816251
30.55536631,-4.819743156,-7.646264553,2.248655081,9.314061165
30.5576848,-4.877170563,-6.980462074,1.956730723,8.737416013
30.55999037,-5.008177757,-6.465406895,1.670190215,8.347027382
30.56232173,-5.228317261,-6.038288116,1.560120344,8.138193918
30.56464022,-5.438287735,-5.578267574,1.273579836,7.893924766
30.56694579,-5.464010715,-5.118247509,1.189232826,7.580642808
30.5692772,-5.341976643,-4.649254322,1.101296663,7.166947366
30.57159563,-5.446064472,-4.080958843,0.9379864931,6.869764332
30.57390121,-5.816951752,-3.359523058,0.8201399446,6.767270675
30.57623261,-6.294320107,-2.59740901,0.7674978375,6.852302686
30.5785511,-6.719046116,-2.031506538,0.7166503668,7.055932771
30.58085662,-7.204789162,-1.518844128,0.6747759581,7.393997359
30.58318803,-7.780860901,-1.191625714,0.7579265833,7.90798463
30.58550652,-8.23729229,-1.086939692,0.8153542876,8.348606158
30.58781204,-8.718847275,-1.136590719,0.9499505758,8.843785522
30.59014345,-9.113064766,-1.159322619,1.414158225,9.294720106
30.59246194,-9.40199852,-1.251446247,2.012962103,9.696169878
30.59476751,-9.433105469,-1.567298889,2.783450842,9.959292303
30.59709886,-9.173483849,-1.79521513,3.912863255,10.13341513
30.59941735,-8.95932579,-2.20618248,4.70488739,10.35725471
30.60172292,-9.025727272,-2.937189817,5.258227825,10.85079705
30.60405433,-9.174081802,-3.649652719,5.906084538,11.50502397
30.60637277,-9.198010445,-4.191029072,7.083353043,12.3426906
30.60867834,-9.18245697,-5.178068161,8.349754333,13.4479851
30.61100975,-9.260822296,-6.209972858,9.668199539,14.75807151
30.61332824,-9.330811501,-7.188637257,10.89153004,16.04262994
30.61563376,-9.458827972,-8.477172852,11.95872974,17.44543216
30.61796516,-9.440283775,-9.929615974,13.16172123,18.99860881
30.62028366,-9.205786705,-11.47358418,13.98126316,20.2944663
30.62258918,-8.613563538,-12.92782211,15.05623817,21.63359354
30.62492058,-7.565506935,-14.43350601,15.96371651,22.81234832
30.62723907,-6.092126369,-16.22752571,16.48595047,23.92139539
30.62954464,-4.123431683,-18.15494347,16.40758514,24.81559009
30.631876,-1.99501586,-20.08116531,15.40020657,25.38502809
30.63419449,-0.3583251834,-21.6981163,13.45663643,25.53463749
30.63650006,0.8147560954,-22.80001068,10.49372387,25.11219933
30.63883147,1.823929071,-23.43171501,6.73400116,24.44828741
30.64114991,2.600399971,-23.55075836,2.458027124,23.82104525
30.64345548,3.085544825,-23.11526489,-1.78145647,23.38823732
30.64578688,3.306880951,-22.2376976,-5.572884083,23.16263571
30.64810537,3.276970625,-20.95215416,-8.435297966,22.82291726
30.65041089,3.010769129,-19.50090599,-10.30409241,22.26037703
30.6527423,2.564507723,-18.00120544,-11.35454178,21.43701743
30.65506079,1.80119729,-16.42553139,-11.76371479,20.28367271
30.65736631,0.8039883971,-14.76730537,-11.65543938,18.83000192
30.65969772,-0.1226321608,-13.13599777,-10.84546852,17.03507157
30.66201621,-1.021735311,-11.60758305,-9.591031075,15.09197814
30.66432178,-1.984248161,-10.25444126,-8.140382767,13.24222934
30.66665319,-2.854637384,-9.148359299,-6.681358814,11.68255058
30.66897162,-3.570689678,-8.15832901,-5.063810825,10.24452718
30.6712772,-4.172484398,-7.377072334,-3.338585854,9.109169983
30.6736086,-4.65403986,-6.751348972,-1.711466432,8.376748612
30.67592704,-5.185844898,-6.107081413,0.02991028316,8.011886502
30.67823261,-5.628517151,-5.60578537,1.853839397,8.157313004
30.68056402,-5.959922791,-5.255236626,3.47557497,8.672820362
30.68288251,-6.313462734,-4.890929699,4.700101852,9.266712602
30.68518803,-6.473781586,-4.725226402,5.751747608,9.865100766
30.68751944,-6.18245554,-4.979464054,7.139584541,10.67667955
30.68983793,-5.570491314,-4.954937458,7.545167923,10.60713617
30.6921435,-4.695914268,-4.762913704,6.654439926,9.434963089
30.69447485,-3.592823267,-4.707280159,4.570291042,7.480269095
30.69679334,-2.285145521,-4.859224796,1.901695848,5.6965255
30.69909892,-0.9738788009,-5.050650597,-1.051645517,5.250092348
30.70143032,0.2548356056,-5.386841774,-3.87218523,6.639037878
30.70374876,1.418345571,-5.944369793,-6.24766016,8.739593461
30.70605433,2.560320139,-6.339783669,-8.185846329,10.66565405
30.70838574,3.646661758,-6.834499836,-9.446265221,12.21640113
30.71070418,4.763511658,-7.57806921,-10.06959629,13.47274826
30.71300975,5.380261898,-8.390432358,-10.56909752,14.52764247
30.71534116,5.492125988,-9.104091644,-10.8682003,15.20413465
30.71765964,5.635097504,-9.917053223,-10.59422207,15.56726725
30.71996516,5.68175745,-10.75095177,-10.16231823,15.84733553
30.72229657,5.565107346,-11.41496086,-9.53898716,15.88282177
30.72461506,5.46161747,-12.06939697,-8.72423172,15.86227688
30.72692058,5.307878971,-12.67597771,-7.800003529,15.80171019
30.72925199,5.106283665,-13.11625767,-6.83569622,15.64727104
30.73157048,4.873581409,-13.4650116,-5.7571311,15.43382297
30.73387605,4.677370071,-13.75633717,-4.759922504,15.28958682
30.73620741,4.500301361,-14.01296806,-3.795614958,15.19943023
30.73852589,4.306482315,-14.17508125,-2.90428853,15.09680795
30.74083147,4.171288013,-14.31087399,-2.207977057,15.06903848
30.74316287,4.112663746,-14.64706516,-1.51944232,15.28918657
30.74548131,4.089931965,-15.01197147,-1.063011408,15.59541036
30.74778688,4.054039955,-15.20459366,-0.8045865893,15.75634056
30.75011829,4.040280819,-15.24347687,-0.7423732281,15.78729154
30.75243678,4.127020836,-15.23151207,-0.8039883971,15.80119167
30.7547423,4.136591911,-15.05803299,-0.7956135273,15.63613606
30.75707371,4.109673023,-14.90070438,-0.8925228715,15.48279692
30.7593922,4.079762459,-14.61835194,-1.104287624,15.2170998
30.76171069,4.029513359,-14.32702541,-1.192822099,14.93062154
30.76402912,3.933800459,-14.07996655,-1.372283816,14.68343988
30.76634761,3.876971006,-13.86461258,-1.498505235,14.47424969
30.7686661,3.795016766,-13.63669586,-1.567298889,14.2414203
30.77098454,3.627519131,-13.36690521,-1.709073544,13.95542842
30.77330303,3.472583771,-13.09232903,-1.712662816,13.65287996
30.77562152,3.304488182,-12.88475132,-1.696511269,13.40949698
30.77794001,3.21356082,-12.68973637,-1.674975872,13.19704233
30.78025845,3.136392355,-12.48993587,-1.572084427,12.9733151
30.78257694,3.062214851,-12.27039433,-1.412363529,12.72534901
30.78489543,2.94317174,-12.00897884,-1.14795661,12.41755359
30.78721392,2.78883481,-11.78644657,-1.064806104,12.15860742
30.78951944,2.626721144,-11.58843994,-1.120439172,11.93511576
30.79185084,2.475374937,-11.43350506,-1.179661512,11.75772598
30.79416933,2.370688915,-11.28694439,-1.057627559,11.58161714
30.79647485,2.240280151,-11.02134132,-1.084546804,11.29889647
30.79880626,2.101496458,-10.78504944,-1.207777262,11.05406281
30.80112475,1.963909149,-10.65763187,-1.152144074,10.89814169
30.80343032,1.833500385,-10.43031406,-1.054636598,10.64262343
30.80576173,1.773679733,-10.2347002,-0.8847461939,10.42486469
30.80808017,1.70249331,-10.07737255,-0.8105686903,10.25226524
30.81038574,1.568495274,-9.865009308,-0.8560323119,10.02553626
30.81271714,1.464407444,-9.713663101,-0.8482556343,9.859983652
30.81503558,1.261615753,-9.608379364,-0.8608179688,9.729010016
30.81735407,1.121635556,-9.572486877,-0.7286145091,9.665477249
30.81967256,0.9541380405,-9.586245537,-0.6586244106,9.656100093
30.82199105,0.798604548,-9.656833649,-0.6496513486,9.711552513
30.82430949,0.6711867452,-9.717850685,-0.6885347366,9.765305611
30.82662798,0.5742774606,-9.792028427,-0.8608179688,9.846553859
30.82894647,0.4402793646,-9.896714211,-1.022931695,9.959176037
30.8312649,0.2099701911,-9.955338478,-1.258624673,10.03678174
30.83358339,-0.09272187948,-9.851848602,-1.290927768,9.936499018
30.83590188,-0.4354937077,-9.552745819,-1.200598717,9.637740645
30.83820746,-0.7405785918,-9.275178909,-0.9667003751,9.354780065
30.84053886,-0.9678967595,-9.03051281,-0.7130611539,9.11018342
30.8428573,-1.239482164,-8.753543854,-0.4929214716,8.854593024
30.84516287,-1.363310695,-8.574081421,-0.4480560422,8.693344723
30.84749428,-1.256231904,-8.33539772,-0.3200400174,8.435603083
30.84981272,-0.9643075466,-8.246863365,-0.1417747438,8.304260622
30.85213121,-0.8087740541,-8.10807991,0.2075773627,8.150960904
30.8544497,-0.5144568682,-8.162516594,0.5485545993,8.197088213
30.85676819,-0.1782652885,-8.073383331,0.665802896,8.102752028
30.85908662,0.09032905847,-7.994420528,0.8297112584,8.037869102
30.86140511,0.3062812984,-7.902894974,0.9260223508,7.962855932
30.8637236,0.6047859192,-7.804789066,0.8183453679,7.870844143
30.86604209,0.7896314859,-7.574480057,0.8943174481,7.667859526
30.86836053,0.7357929349,-7.321439266,0.8398807645,7.406096399
30.87067902,0.7657032609,-7.268198967,0.4725824594,7.323684311
30.87299751,0.8626125455,-7.016952515,0.09032905847,7.070352349
30.87531595,0.8476574421,-6.60478878,-0.02751746029,6.659017584
30.87763444,0.8255237937,-6.12921524,0.02632104978,6.184614927
30.87994001,0.7136593461,-5.84446907,-0.005383851007,5.887882248
30.88227142,0.5970092416,-5.741578102,-0.1555334777,5.774628109
30.88458985,0.5808576941,-5.790630817,-0.3607180119,5.830859148
30.88690834,0.5497509837,-5.853442192,-0.4462614357,5.896114052
30.88922683,0.5144568682,-5.988636971,-0.3690928817,6.022015293
30.89154532,0.5264210105,-6.13220644,-0.2297109663,6.159045545
30.89386376,0.5359922647,-6.367300987,0.001794616925,6.38982103
30.89618225,0.471386075,-6.531807423,0.2309073806,6.552864355
30.89850074,0.4540380836,-6.483353138,0.4594219327,6.51544987
30.90081923,0.4384847581,-6.63290453,0.5270192027,6.668241194
30.90313767,0.4588237405,-6.915257454,0.6819544435,6.963933281
30.90545616,0.4887340367,-7.211369038,0.8895317912,7.282442665
30.90777464,0.4456632137,-7.347760201,0.7752745152,7.401975833
30.91009308,0.3200400174,-7.389634609,0.4983053207,7.413328096
30.91241157,0.2249253243,-7.507481098,0.2309073806,7.514398317
30.91473006,0.1776670814,-7.662416458,0.08434699476,7.664940051
30.91704855,0.09272187948,-7.847261906,-0.01555334684,7.847825092
30.91936699,0.02691925503,-8.059624672,-0.009571290575,8.05967531
30.92168548,-0.05563312769,-8.210372925,0.04307080805,8.210674376
30.92400397,-0.1387837082,-8.32762146,0.1052841991,8.32944325
30.92632246,-0.2081755698,-8.405985832,0.1339980662,8.40963081
30.92864089,-0.2805584669,-8.422736168,0.2428714931,8.430906486
30.93095938,-0.3152543902,-8.398807526,0.3236292601,8.410950546
30.93327787,-0.3774677813,-8.38564682,0.3607180119,8.401885027
30.93559631,-0.3984049559,-8.337790489,0.4175475538,8.357740287
30.9379148,-0.3984049559,-8.352147102,0.4319044948,8.372791005
30.94023329,-0.404387027,-8.304290771,0.4319044948,8.325341769
30.94255178,-0.4193421602,-8.290532112,0.4121637046,8.311356656
30.94487022,-0.4313062727,-8.180462837,0.3876372576,8.200991402
30.94718871,-0.3846462369,-8.112266541,0.3110669553,8.127335591
30.9495072,-0.2763710022,-8.018348694,0.2207378894,8.026146144
30.95182569,-0.1525424421,-7.771289825,-0.008374879137,7.772791319
30.95414412,-0.009571290575,-7.691728592,-0.261415869,7.696175583
30.95646261,0.132801652,-7.635497093,-0.3655036688,7.645393716
30.9587811,0.2303091735,-7.479963779,-0.5563312769,7.504159177
30.96109954,0.3637090325,-7.390830994,-0.7800601721,7.440776902
30.96341803,0.513858676,-7.25743103,-0.970289588,7.340014835
30.96573652,0.6687939167,-7.124629498,-1.083948612,7.237580768
30.96805501,0.8823533654,-7.191628456,-1.253839016,7.353242794
30.97037345,1.027717352,-7.395616531,-1.470389485,7.610084893
30.97269194,1.182652593,-7.637291908,-1.567298889,7.885640155
30.97501042,1.296909928,-7.793423176,-1.670190215,8.075206221
30.97732886,1.39860487,-8.021339417,-1.734198213,8.324987991
30.97964735,1.495514154,-8.277970314,-1.636690736,8.56972063
30.98196584,1.514656782,-8.532207489,-1.453041553,8.786585205
30.98428433,1.466202021,-8.758329391,-1.184447169,8.958850216
30.98660282,1.383051515,-8.952147484,-0.8883354068,9.101808384
30.98892126,1.219143152,-9.036494255,-0.3690928817,9.125829716
30.99123975,0.9535398483,-8.902496338,0.209371984,8.955864889
30.99355824,0.6556333899,-8.994620323,0.7513462901,9.049727684
30.99587673,0.2751746178,-9.199206352,1.312463164,9.296433625
30.99818225,-0.1322034448,-9.46720314,1.825723648,9.642545301
31.00051366,-0.5491527915,-9.731011391,2.291725874,10.01230038
31.00283214,-1.021735311,-9.972088814,2.580060959,10.35100058
31.00513767,-1.460219979,-10.21256733,2.76371026,10.68020919
31.00746907,-1.837089539,-10.4279213,2.824128866,10.95865614
31.00978756,-2.100300074,-10.55892849,2.765504837,11.11531593
31.01209308,-2.260619164,-10.60618591,2.683550596,11.17152731
31.01442449,-2.249851465,-10.58704376,2.459223509,11.09932915
31.01674298,-2.075773716,-10.43450165,2.21216464,10.86652353
31.01906147,-1.740180254,-10.25384331,1.989033818,10.58894638
31.02137991,-1.275374413,-10.05165005,1.762912035,10.28445951
31.02369839,-0.6729813814,-9.86022377,1.504487276,9.997019491
31.02601688,0.05982056633,-9.723833084,1.299900889,9.81051735
31.02833537,0.9517452121,-9.659825325,1.121635556,9.771187777
31.03065381,1.84606266,-9.696913719,0.9577272534,9.917425297
31.03295938,2.779263496,-9.790233612,0.8087740541,10.20916722
31.03529079,3.695714474,-9.960722923,0.7280163169,10.64914618
31.03760928,4.579862595,-10.19462109,0.7375875711,11.20042302
31.0399148,5.395814896,-10.60259724,0.8189435601,11.92478742
31.04224621,6.119045734,-11.1188488,0.9056833982,12.72367014
31.0445647,6.725626469,-11.68534946,0.9529415965,13.5162695
31.04687022,7.202994347,-12.26979637,0.9756734371,14.2612401
31.04920162,7.466204643,-12.6430769,0.94277215,14.71327375
31.05152011,7.554739475,-12.90509033,0.8691928387,14.9790167
31.05382569,7.556533813,-12.96790218,0.8171489239,15.03114842
31.05615704,7.478767395,-12.887743,0.7728816867,14.92056391
31.05847553,7.340581894,-12.71845055,0.708275497,14.70186318
31.0607811,7.048058987,-12.45643616,0.6370890141,14.32633308
31.06311251,6.7704916,-12.4055891,0.6203392744,14.14648431
31.06543095,6.389434814,-12.23210907,0.6490531564,13.81559407
31.06774944,6.068796635,-11.65304661,0.5659025311,13.15081874
31.07006793,5.69611454,-11.37428284,0.3792623878,12.7265027
31.07238642,5.258227825,-11.35155106,0.2033899277,12.51191587
31.07470485,4.746761799,-11.29651546,0.1507478207,12.25421291
31.07702334,4.27178669,-11.16371441,0.08374879509,11.95339679
31.07934183,3.748954773,-11.06560802,0.05443671346,11.68354853
31.08164735,3.294318676,-11.01834965,0.08374879509,11.50059035
31.08397876,2.812762976,-11.01535892,0.0652044192,11.36899377
31.08629725,2.393420935,-11.23609734,0.1345962733,11.48897138
31.08860282,1.945963025,-11.48195934,0.2321037948,11.64800561
31.09093418,1.567897081,-11.67278671,0.3589234054,11.78308435
31.09325266,1.199402332,-11.85942745,0.5575276613,11.93295531
31.09555824,0.8452646136,-12.02094269,0.6843472719,12.07004004
31.09788964,0.5407779217,-12.12383366,0.8542376757,12.16591572
31.10020808,0.2847459018,-12.23988628,1.014556766,12.28516267
31.10251366,0.0568295382,-12.31226921,1.171286702,12.36798752
31.10484506,-0.1573280841,-12.35055447,1.278963685,12.41759622
31.1071635,-0.3702892959,-12.22134209,1.243071318,12.28997733
31.10946907,-0.5700899959,-12.05803108,1.163509965,12.12744291
31.11180048,-0.7028916478,-12.06640625,1.0863415,12.13558216
31.11411897,-0.8153542876,-12.13101292,1.090528965,12.20719175
31.11642449,-0.9092726111,-12.18126202,1.066002488,12.26157748
31.11875589,-0.956530869,-12.20638657,1.066002488,12.29012553
31.12107438,-0.97926265,-12.24586773,1.051047325,12.3298391
31.12339287,-0.9643075466,-12.26441288,1.071386337,12.34882914
31.12571131,-0.9164510965,-12.29671574,1.095912814,12.37942347
31.1280298,-0.8195417523,-12.33799171,1.073180914,12.41166409
31.13034829,-0.6502495408,-12.4301157,1.07497561,12.49344521
31.13266678,-0.4540380836,-12.66042423,1.097707391,12.71603137
31.13498522,-0.2781656384,-12.77647686,1.076171994,12.82473716
31.13730371,-0.0382851623,-12.83809185,1.040279627,12.88022709
31.1396222,0.2578266263,-13.00917816,0.9343972206,13.0452401
31.14194063,0.6053841114,-13.31366539,0.8249256015,13.3529277
31.14425912,0.9218349457,-13.7096777,0.7304090858,13.76003414
31.14657761,1.259222865,-14.16790295,0.584446907,14.23575408
31.1488961,1.557129383,-14.42034531,0.5647061467,14.51516117
31.15120162,1.860419631,-14.68654728,0.4839483798,14.8118209
31.15353303,2.145165443,-14.99701595,0.4648058116,15.15678946
31.15585152,2.386840582,-15.303895,0.5120640397,15.49736815
31.15815709,2.618944407,-15.66281891,0.6311069727,15.89279906
31.16048845,2.855833769,-15.8249321,0.7680960894,16.09888922
31.16280694,2.968296528,-15.76929951,0.9116654396,16.07211016
31.16511251,3.150151014,-15.6496582,1.060618639,15.99875511
31.16744392,3.306880951,-15.45883083,1.094118118,15.84638782
31.16976235,3.422932863,-15.15853119,1.102493048,15.57924992
31.17206792,3.662813187,-14.86899948,1.135992527,15.35557961
31.17439933,3.920639992,-14.53161144,1.235892892,15.1018734
31.17671777,4.160520554,-14.22353554,1.28315115,14.87499147
31.17902334,4.229912281,-13.75573921,1.228116274,14.44371105
31.18135475,4.353740692,-13.40219975,1.322034478,14.15350809
31.18367324,4.481756687,-13.03430271,1.353739381,13.84961373
31.18597876,4.545764923,-12.76810169,1.42372942,13.62774394
31.18831016,4.6402812,-12.549757,1.456630826,13.45921186
31.19062866,4.726422787,-12.38465214,1.422533035,13.33200214
31.19293423,4.752744198,-12.22612762,1.250249863,13.17686984
31.19526558,4.807778835,-12.26321602,1.049850941,13.21375766
31.19758407,4.811966419,-12.43131161,1.008574724,13.36823669
31.19990256,4.804189682,-12.66221905,0.9529415965,13.57645489
31.20222105,4.760520458,-12.9756794,0.8733802438,13.84895678
31.20453949,4.657031059,-13.33878994,0.6987041831,14.14565102
31.20685798,4.503292084,-13.58764362,0.4797609448,14.32249522
31.20917647,4.320241451,-13.66421413,0.3409772217,14.3349747
31.21149491,4.058227062,-13.54995632,0.4426721931,14.15155404
31.21381339,3.833301783,-13.4345026,0.8255237937,13.99505456
31.21613188,3.512065411,-13.16231918,1.379462242,13.69248574
31.21845037,3.16570425,-12.88116264,2.036890268,13.41994621
31.22075589,2.784049034,-12.58146191,2.770888567,13.18036176
31.2230873,2.367099762,-12.34038448,3.504886866,13.04501753
31.22540579,1.974676847,-12.12263775,4.18205595,12.97487135
31.22771136,1.596012712,-11.91924763,4.864010334,12.97205909
31.23004272,1.2352947,-11.81575775,5.536991596,13.10711105
31.23236121,0.965503931,-11.88814068,6.108277798,13.40041583
31.23466678,0.7423732281,-12.01795197,6.455237389,13.66207807
31.23699819,0.6191428304,-12.30808163,6.637091637,13.99725675
31.23931662,0.494716078,-12.61376476,6.485745907,14.19213534
31.2416222,0.4486542344,-12.87996578,5.982056618,14.20844152
31.2439536,0.3810569942,-13.32981682,5.126024246,14.28654421
31.24627209,0.3409772217,-14.10688591,3.690928936,14.58572768
31.24857761,0.4073780477,-14.56391525,2.230708838,14.73939097
31.25090902,0.4833501875,-14.9778738,0.6023930907,14.99777345
31.25322751,0.5431707501,-15.30210114,-1.049850941,15.34768779
31.25553303,0.6203392744,-15.4420805,-2.560320139,15.66518146
31.25786444,0.7567301393,-15.31645775,-3.809971809,15.80134183
31.26018293,0.9194421172,-15.20878029,-4.892126083,16.00266444
31.2624885,1.11445713,-15.23988724,-5.906084538,16.38224686
31.26481985,1.329811215,-15.39482307,-6.771090031,16.87058492
31.26713834,1.508674622,-15.62214088,-7.512266636,17.40004411
31.26944392,1.710868239,-15.96371651,-7.812565804,17.85506929
31.27177532,1.859223247,-16.3017025,-7.928019524,18.22239581
31.27409376,1.986641049,-16.63490295,-7.867600918,18.50853541
31.27639933,2.039881229,-17.07458496,-7.716254711,18.84789521
31.27873074,2.018944025,-17.44008827,-7.503891945,19.09296227
31.28104923,1.890329838,-17.71167374,-7.183253765,19.20614142
31.28335475,1.764108539,-17.94437599,-6.820741177,19.27784269
31.28568616,1.549950838,-18.06880188,-6.487540245,19.26063673
31.28800464,1.278365493,-18.01675797,-6.056233883,19.05034789
31.29032313,0.9499505758,-17.86481476,-5.42572546,18.69471875
31.29264157,0.665802896,-17.64945984,-4.624129772,18.25730819
31.29496006,0.3912265003,-17.31266975,-3.612564087,17.68989009
31.29726563,0.1322034448,-16.92742538,-2.248056889,17.07656194
31.29959699,-0.09152546525,-16.64626884,-0.7543373108,16.6636031
31.30191548,-0.3122633696,-16.50509262,0.7256234884,16.52398621
31.30422105,-0.5706881881,-16.51346779,2.02073884,16.64643172
31.30655246,-0.7866404653,-16.7282238,2.922234535,16.99975675
31.30887089,-0.9708877802,-16.99502373,3.623929977,17.40420418
31.31117647,-1.073180914,-17.23669815,4.077968121,17.74500787
31.31350787,-1.158126116,-17.38684845,4.421936035,17.97768821
31.31582636,-1.256231904,-17.47119522,4.483551502,18.08101256
31.31813188,-1.313061476,-17.47777557,4.406383038,18.07243705
31.32046329,-1.296909928,-17.57408524,3.916452408,18.0518433
31.32278178,-1.265205026,-17.69911003,3.302095175,18.04890778
31.32510027,-1.353141189,-17.6315136,2.179861546,17.81721244
31.32741871,-1.599003673,-17.53400612,0.9361918569,17.63163743
31.3297372,-1.972882271,-17.13141441,-0.2051845491,17.2458611
31.33204277,-2.362314224,-16.62892151,-1.428515077,16.85651845
31.33437418,-2.823530674,-16.31067467,-2.689532757,16.77033154
31.33669261,-3.37387991,-16.07079506,-3.821935892,16.86003302
31.33899819,-3.914059639,-16.07139397,-4.952544689,17.26665184
31.34132959,-4.389633179,-16.00259972,-5.934798241,17.6231072
31.34364808,-4.919643402,-15.70947933,-6.886543751,17.84419
31.3459536,-5.39701128,-15.37209129,-7.961519241,18.13324875
31.34828501,-5.647061348,-15.12981796,-9.077172279,18.52554318
31.3506035,-5.600999832,-14.8707943,-9.722038269,18.62873453
31.35290902,-5.511867046,-14.72064495,-10.02293587,18.64235257
31.35524042,-5.263013363,-14.45504189,-9.817750931,18.2492679
31.35755892,-4.918447018,-14.21037579,-8.962317467,17.5056858
31.35986449,-4.510470867,-13.94357586,-7.720442295,16.56420491
31.36219584,-4.034897327,-13.62712479,-6.192026615,15.50226177
31.36451433,-3.614956856,-13.17308712,-4.61814785,14.41961951
31.36681991,-3.215355396,-12.65145111,-3.229712248,13.44725871
31.36915131,-3.007179976,-12.02513027,-2.025524378,12.55984229
31.37146975,-3.017349243,-11.22114182,-0.9726824164,11.66038298
31.37377532,-2.914458036,-10.3728857,-0.4869394004,10.7855428
31.37610673,-2.921636343,-9.57129097,-0.4498506486,10.01738166
31.37842522,-2.874976397,-8.850452423,-0.9074779749,9.349840301
31.38073074,-2.769692183,-8.204390526,-1.211964726,8.743687848
31.38306214,-2.648854733,-7.563114166,-1.095912814,8.088148872
31.38538063,-2.461616278,-7.294519901,-0.9529415965,7.757426956
31.38768621,-2.228914261,-7.211967468,-1.080359459,7.625464583
31.39001756,-1.920240164,-7.267600536,-1.330409408,7.633827941
31.39233605,-1.576870084,-7.268796921,-1.341775298,7.557928876
31.39464162,-1.103689432,-7.088737011,-0.8285148144,7.221825224
31.39697298,-0.6478567123,-7.101897717,-0.5521438122,7.15272901
31.39929147,-0.3290131092,-7.29691267,-0.9152546525,7.361445186
31.40159704,-0.1423729509,-7.558926582,-1.980060697,7.815259528
31.40392845,0.2099701911,-7.787441254,-2.991626501,8.344948046
31.40624694,0.5676971674,-7.80897665,-3.546761274,8.595458797
31.40855246,0.9475577474,-7.742575645,-3.50069952,8.549867861
31.41088386,1.241874933,-7.673183918,-3.56530571,8.551690452
31.41320235,1.511665702,-7.52782011,-3.759722471,8.549194223
31.41550787,1.790429592,-7.344171047,-4.068396568,8.584540589
31.41783928,1.798804402,-7.037889481,-4.957928658,8.794807684
31.42015777,1.971685886,-6.567101955,-4.16769886,8.023969536
31.42246334,2.176272154,-6.257829189,-3.305086374,7.404065275
31.4247947,2.26540494,-6.014359951,-2.729014158,6.982270651
31.42711319,2.353341103,-5.752943993,-2.606382132,6.740015337
31.42941876,2.444268227,-5.601597786,-2.563311338,6.627436151
31.43175016,2.414358139,-5.483152866,-2.784049034,6.606437739
31.4340686,2.255833626,-5.304887772,-3.234498024,6.610037601
31.43637418,2.29052949,-5.009374142,-2.545365095,6.067885802
31.43870558,2.341975212,-4.791627407,-1.97826612,5.688416119
31.44102407,2.335993052,-4.61814785,-1.72223413,5.454378379
31.44332959,2.328814745,-4.532006264,-1.732403636,5.381791639
31.445661,2.263610125,-4.351347923,-1.915454507,5.265655279
31.44797949,2.255235434,-4.126422882,-2.184647083,5.185184234
31.45028506,2.258824587,-3.842873096,-2.406581402,5.065727608
31.45261642,2.233700037,-3.541377544,-2.603989124,4.930672381
31.45493491,2.191825628,-3.201596737,-2.626122952,4.685172676
31.45724048,2.168495417,-2.90967226,-2.514258385,4.414754836
31.45957188,2.155933142,-2.649452925,-2.320439816,4.129417568
31.46189032,2.123630047,-2.400001049,-2.097907305,3.830277362
31.46419589,2.120040894,-2.155334949,-1.852044702,3.545435335
31.4665273,2.079961061,-1.949552298,-1.663011789,3.300393975
31.46884579,2.094317913,-1.790429592,-1.616351724,3.194432428
31.47115131,2.080559254,-1.607976794,-1.64626193,3.102336945
31.47348272,2.060818434,-1.463809252,-1.494915962,2.936747159
31.47580121,2.086541414,-1.414756417,-1.237687469,2.808391188
31.47811964,2.06261301,-1.453639746,-1.146760225,2.771732302
31.48043813,1.924427629,-1.462014675,-1.085743308,2.649480541
31.48275662,1.817348838,-1.459023595,-0.9385846853,2.512458529
31.48507511,1.667199135,-1.42372942,-0.6927221417,2.299222125
31.4873936,1.493121386,-1.417747378,-0.4127618968,2.099950353
31.48971204,1.257428288,-1.399203062,-0.2434697002,1.896884974
31.49203053,1.03549397,-1.351346612,-0.0933200866,1.705020254
31.49434902,0.7674978375,-1.299900889,-0.1339980662,1.515503459
31.49666746,0.5234299302,-1.253240824,-0.2416750938,1.379492046
31.49898595,0.17587246,-1.319641709,-0.6777670383,1.493905459
31.50130444,-0.2171486616,-1.175474167,-0.8967102766,1.494316693
31.50362293,-0.2811566591,-0.9355936646,-0.1651047617,0.9907795691
31.50592845,-0.4229314029,-1.006181955,-0.2183450609,1.11308026
31.50825985,-0.6293123364,-1.194616675,-0.6095715761,1.481458918
31.51057834,-0.9780662656,-1.520638824,-1.268794179,2.208799384
31.51288392,-1.333400369,-1.648654819,-1.141974568,2.408344902
31.51521527,-1.538584948,-1.667797327,-1.105484009,2.524061501
31.51753376,-1.652244091,-1.737787485,-0.9960124493,2.596508556
31.51983933,-1.813759565,-1.794616938,-0.8733802438,2.696880932
31.52217074,-1.969292998,-1.898704767,-0.7304090858,2.831376368
31.52448918,-2.0769701,-2.011167526,-0.6161518097,2.956051872
31.52679475,-2.112264156,-2.146361828,-0.5826523304,3.067248392
31.52912616,-2.084746838,-2.313859463,-0.471386075,3.1499714
31.53144464,-2.063211441,-2.452044964,-0.3176472187,3.220289694
31.53376308,-2.042274237,-2.585444927,-0.1495514214,3.298147231
31.53608157,-1.994417667,-2.660818815,0.1142572835,3.327268148
31.53840006,-1.939980984,-2.682952404,0.5012963414,3.348590426
31.54070563,-1.91365993,-2.710469961,0.9499505758,3.451253082
31.54303699,-1.869392633,-2.727817774,1.436890006,3.605588928
31.54535548,-1.810170293,-2.78285265,1.953141451,3.851719991
31.54766105,-1.802393675,-2.864208698,2.445464849,4.175238048
31.54999246,-1.750947952,-2.986242771,3.004188776,4.583515553
31.55231089,-1.733001828,-3.110071182,3.511467218,5.000623973
31.55461647,-1.752144337,-3.291925669,4.122833252,5.559185049
31.55694787,-1.813161373,-3.507878065,4.691727161,6.132296996
31.55926636,-1.889133453,-3.705285788,5.369493961,6.791865235
31.56157188,-1.972882271,-3.994817495,6.06760025,7.52772237
31.56390329,-2.143969059,-4.247260094,6.821937561,8.317130137
31.56622178,-2.337189436,-4.595416069,7.647460938,9.223012637
31.5685273,-2.62851572,-4.96091938,8.344370842,10.05725314
31.57085871,-2.955136061,-5.309075356,9.135796547,10.97186806
31.5731772,-3.278167009,-5.761318684,9.841679573,11.86582609
31.57548277,-3.680161238,-6.11485815,10.60917759,12.7863101
31.57781412,-4.091128349,-6.503093719,11.35274696,13.70811521
31.58013261,-4.51346159,-6.972685337,11.9910326,14.58679331
31.58243819,-4.92143774,-7.543971539,12.38824081,15.31667609
31.58476959,-5.428716183,-8.083553314,12.61137199,15.93303164
31.58708803,-5.671587944,-8.67039299,12.68076324,16.37511468
31.5893936,-5.920441628,-9.156135559,12.59103298,16.65594666
31.59172501,-6.099903107,-9.728020668,12.35534,16.86705756
31.5940435,-6.044867992,-10.26042366,11.97308636,16.88702223
31.59634902,-5.664409637,-10.81436157,11.56092262,16.81341383
31.59868042,-5.073382378,-11.40120125,11.09791183,16.70000736
31.60099892,-4.356731892,-11.9718895,10.50269699,16.51102344
31.60330449,-3.561716557,-12.48215961,9.983454704,16.37557637
31.60563584,-2.871985435,-12.96670628,9.306883812,16.21733203
31.60795433,-2.199602127,-13.49432373,8.696115494,16.20362451
31.61025991,-1.501496196,-14.09910965,8.12961483,16.34411273
31.61259131,-1.085743308,-14.72363567,7.670193195,16.63719176
31.61490975,-0.9469595551,-15.32662678,7.185048103,16.95367621
31.61721532,-1.089930773,-15.82014656,6.98704195,17.32869705
31.61954673,-1.441077471,-16.25564003,6.958328247,17.74093766
31.62186517,-2.059622049,-16.47219086,6.868597507,17.96532066
31.62417074,-2.740380049,-16.5026989,6.73400116,18.03317846
31.62650214,-3.357130051,-16.33580017,6.412166595,17.86741643
31.62882063,-3.979862213,-15.94218063,6.02752018,17.50209776
31.63112616,-4.454239368,-15.35893059,5.560919762,16.93106098
31.63345756,-4.857429981,-14.56271839,5.107480049,16.17880544
31.63577605,-5.028516769,-13.72223949,4.609174728,15.32417467
31.63808162,-5.135595798,-12.78365517,4.185645103,14.39846549
31.64041303,-5.102096081,-11.89591789,3.693321705,13.46049301
31.64273147,-5.010570526,-11.05424213,3.172882795,12.54469096
31.64503704,-5.035695076,-10.11924744,2.708076954,11.62286859
31.64736845,-5.03988266,-9.274580956,2.224726915,10.78738518
31.64968688,-4.960321426,-8.54357338,1.800000787,10.04178458
31.65199246,-5.076971531,-7.821538925,1.517647743,9.447505796
31.65432386,-5.124827862,-7.198806763,1.340578914,8.93777552
31.65664235,-5.288137913,-6.645466805,1.497308731,8.623721069
31.65894787,-5.420341492,-6.220740795,1.741376638,8.432681099
31.66127928,-5.495715618,-5.904888153,1.79521513,8.263981584
31.66359777,-5.495117188,-5.708676815,1.651047587,8.093902768
31.66590334,-5.618945599,-5.47657299,1.47158587,7.983167688
31.6682347,-5.799603939,-5.250451088,1.268195987,7.925336809
31.67055319,-6.163911343,-4.956732273,1.067198873,7.981347712
31.67285876,-6.758527756,-4.663012981,1.10309124,8.284817305
31.67519017,-7.305885792,-4.555934429,1.221535921,8.696243771
31.6775086,-7.837690353,-4.505684853,1.368694544,9.143517421
31.67981418,-8.22353363,-4.389633179,1.512263894,9.443639494
31.68214558,-8.478966713,-4.338187218,1.633699656,9.663421724
31.68446402,-8.665607452,-4.174279213,1.807179332,9.786892081
31.68676959,-8.64526844,-3.74536562,2.018944025,9.635588462
31.689101,-8.469395638,-3.279961586,2.327618122,9.375852846
31.69141949,-8.303094864,-2.863012314,2.273181438,9.072242153
31.69372501,-7.967501163,-2.547757864,2.264806747,8.666111846
31.69605642,-7.399804115,-2.558525562,2.23130703,8.141368746
31.6983749,-7.125825882,-2.936591625,2.112264156,7.991409434
31.70069339,-6.812366009,-3.519243956,2.343769789,8.017896574
31.70301183,-6.257829189,-4.158127785,3.07836628,8.119531501
31.70533032,-6.031109333,-4.963312149,3.563511133,8.585298997
31.70763589,-6.047261238,-5.93778944,4.061218262,9.397883043
31.7099673,-6.161518097,-7.125227451,4.8849473,10.61112066
31.71228574,-6.345765591,-8.413763046,6.504888535,12.38441458
31.71459131,-6.589235306,-9.723833084,7.895716667,14.15320789
31.71692272,-7.024130821,-11.17208862,9.156734467,16.06237106
31.71924121,-7.500302792,-12.53480148,10.46022415,17.96641532
31.72154673,-7.730611801,-13.8676033,12.05623722,19.93553702
31.72387813,-7.941180229,-15.35115337,12.85185051,21.53811308
31.72619662,-7.72223711,-16.89990807,13.7671051,23.12515992
31.7285022,-7.224529743,-18.48096657,14.53221035,24.595225
31.73083355,-6.222535133,-20.12782669,15.06760406,25.90139075
31.73315204,-4.852644444,-21.74776649,14.94856167,26.83231264
31.73545761,-3.129812002,-23.33779716,14.02612782,27.40767705
31.73778902,-0.8075776696,-24.57010078,11.53220844,27.15389228
31.74010746,1.250249863,-24.98884583,7.861618996,26.22614332
31.74241303,2.587239504,-24.52344131,3.748356581,24.94279774
31.74474444,3.364906788,-23.27379036,-0.380458802,23.51885763
31.74706292,3.813561201,-21.3589325,-4.35852623,22.13016035
31.74936845,4.062414646,-19.07378769,-7.822137356,21.01186385
31.75169985,4.143172264,-16.57448387,-10.53978539,20.07402471
31.75401834,4.06660223,-14.18824196,-12.43250847,19.29794627
31.75632386,3.907479286,-12.16211891,-13.46919823,18.563535
31.75865527,3.538386583,-10.43689442,-13.46082401,17.39662978
31.76097376,2.924627542,-8.759525299,-12.59163094,15.61511765
31.76327933,2.190629244,-7.347760201,-11.22951698,13.59744418
31.76561069,1.319043517,-6.265605927,-9.523433685,11.47577808
31.76792918,0.4013960063,-5.481358528,-7.710272789,9.468617457
31.77023475,-0.4863412082,-4.941178799,-5.747560024,7.595144628
31.77256616,-1.28315115,-4.558327198,-3.977469444,6.184261225
31.77488459,-2.097309113,-4.214358807,-2.279163599,5.230115905
31.77719016,-2.775076151,-3.987040758,-0.5509474277,4.888873563
31.77952157,-3.361915827,-3.901497364,1.036092162,5.253346236
31.78184006,-3.870390654,-3.876971006,2.491526604,6.018183514
31.78414558,-4.183850288,-3.959523201,3.810570002,6.9067265
31.78647699,-4.383651257,-4.101896286,4.811966419,7.693956869
31.78879548,-4.294518471,-4.199403763,5.323431969,8.026008272
31.79110105,-4.004388809,-4.269991875,4.992624283,7.693780448
31.7934324,-3.355933666,-4.4488554,3.897907972,6.800609657
31.79575089,-2.565105915,-4.755136967,2.036890268,5.774081563
31.79806938,-1.632503271,-5.313860893,-0.1357926875,5.560631635
31.80038787,-0.5635097623,-6.132804394,-2.319243431,6.58086036
31.80270631,0.5521438122,-6.787839413,-4.355535507,8.083954245
31.80501188,1.223330617,-7.087540627,-6.183651924,9.485110492
31.80734329,1.791625977,-7.441678524,-7.554739475,10.75465441
31.80966178,2.474178553,-7.893323898,-8.508877754,11.86706039
31.8119673,3.132204771,-8.397610664,-9.177073479,12.82767513
31.81429871,3.803391695,-8.921041489,-9.687342644,13.70749347
31.8166172,4.413561344,-9.531210899,-10.03489971,14.52662098
31.81892272,5.018347263,-10.19462109,-10.15334511,15.2382586
31.82125412,5.497509956,-10.84128094,-10.06361389,15.78075767
31.82357261,5.909075737,-11.49870968,-9.912267685,16.29081186
31.82587819,6.254838467,-12.21535969,-9.717850685,16.81590433
31.82820954,6.531209469,-12.86082363,-9.243474007,17.13182107
31.83052803,6.79920578,-13.67976665,-8.505288124,17.48442567
31.8328336,6.955337048,-14.30309772,-7.473383427,17.57289896
31.83516501,7.027719975,-14.88515186,-6.299703598,17.62506339
31.83748345,7.110272408,-15.61137295,-5.258825779,17.94230162
31.83978902,7.123433113,-16.44048691,-4.183850288,18.39938891
31.84212042,7.007979393,-17.08894157,-3.17407918,18.74082383
31.84443892,6.857231617,-17.46102524,-2.123031855,18.87899076
31.84674444,6.600601196,-17.75354767,-1.269990563,18.98339451
31.84907584,6.253642082,-17.77986908,-0.8333004713,18.86600576
31.85139433,5.857031822,-17.39462471,-0.7345965505,18.36892546
31.85369991,5.510072231,-16.93221092,-0.5982056856,17.81624295
31.85603131,5.157131195,-16.28256035,-0.3864408433,17.08411865
31.85834975,4.833501816,-15.5934267,-0.313459754,16.32837877
31.86065532,4.596014023,-14.94078445,-0.1441675574,15.63237568
31.86298673,4.393222332,-14.36411476,0.0747757107,15.02111137
31.86530517,4.140181541,-13.8173542,0.1208375469,14.4248044
31.86761074,3.940979004,-13.35135174,0.1537388563,13.9216933
31.86994214,3.693321705,-12.96850014,0.06819544733,13.4843343
31.87226063,3.422932863,-12.6245327,-0.01794617064,13.08035234
31.87456616,3.120240688,-12.22911835,-0.4151547253,12.62773103
31.87689756,2.941377163,-11.82592773,-0.8961120844,12.21913595
31.87921605,2.715255499,-11.41854954,-1.364507079,11.81599617
31.88152162,2.427518606,-11.09013462,-1.631306887,11.46931099
31.88385298,2.160120726,-10.81376362,-1.893320918,11.18875638
31.88617147,1.868196249,-10.56550884,-2.031506538,10.92003448
31.88847704,1.56191504,-10.31366348,-2.154736757,10.65148457
31.89080845,1.348355532,-10.18923664,-2.06261301,10.48298519
31.89312688,1.047458172,-10.08036327,-1.789233088,10.29136762
31.89543246,0.6879364848,-10.12642574,-1.47756803,10.25675203
31.89776386,0.4175475538,-10.22393322,-1.264606714,10.31030487
31.90008235,0.09092725813,-10.40877819,-1.022333503,10.45925891
31.90238787,-0.2949153781,-10.48415279,-0.7489534616,10.51500671
31.90471928,-0.709471941,-10.44048309,-0.4145565331,10.4727692
31.90703777,-1.183250785,-10.30229759,-0.08075776696,10.37033943
31.90934329,-1.788036704,-10.10967541,0.342173636,10.27227798
31.9116747,-2.422134638,-9.864411354,0.7872386575,10.18788949
31.91399319,-3.055634499,-9.653244972,1.124028444,10.18751592
31.91629876,-3.513859987,-9.528220177,1.362712502,10.24652024
31.91863017,-4.005585194,-9.43848896,1.719841242,10.3965206
31.9209486,-4.370490551,-9.465408325,2.088934183,10.63291063
31.92325418,-4.391427994,-9.662816048,2.371885538,10.87568365
31.92558558,-4.182653904,-9.960722923,2.280359983,11.04131498
31.92790407,-3.691527128,-10.07916737,2.142174482,10.9455881
31.93020959,-3.342773199,-9.964909554,2.283350945,10.7558006
31.932541,-3.043072224,-9.862018585,1.998605132,10.5125697
31.93485949,-2.7577281,-9.688538551,1.54217422,10.19073819
31.93717792,-2.299502611,-9.370891571,1.128814101,9.714707529
31.93949642,-1.815554142,-9.028717995,0.8584251404,9.249371827
31.9418149,-1.464407444,-8.694320679,0.6825526357,8.843165685
31.94412048,-1.301097274,-8.34915638,0.5575276613,8.468299916
31.94645183,-1.143171072,-7.990232944,0.5419743061,8.089771242
31.94877032,-0.8853443861,-7.591229916,0.3888336718,7.652568062
31.95107589,-0.6753742099,-7.168298244,0.1824527234,7.202355104
31.9534073,-0.4588237405,-6.827321053,0.0197407864,6.84274957
31.95572574,-0.3098705411,-6.665805817,-0.02751746029,6.673061078
31.95803131,-0.2536391914,-6.582654953,-0.123828575,6.588703407
31.96036272,-0.1609173268,-6.466004848,-0.228514567,6.472042336
31.96268121,-0.05024927482,-6.314060688,-0.233300209,6.318569169
31.96498673,0.1345962733,-6.112465382,-0.1333998591,6.115402253
31.96731813,0.2835494876,-5.983851433,-0.1040877849,5.991469982
31.96963662,0.3918247223,-5.928816319,-0.09391828626,5.942491918
31.97195511,0.494716078,-5.901896954,0.002392822644,5.922595493
31.97427355,0.5700899959,-5.866602898,0.05084748194,5.894456517
31.97659204,0.6454638839,-5.845665932,0.06999006122,5.881609679
31.97891053,0.717248559,-5.834300041,0.1232303679,5.879514282
31.98122902,0.8039883971,-5.866004944,0.09571290761,5.921619061
31.98354746,0.9343972206,-5.910870075,0.04486542568,5.984437828
31.98586595,1.026520967,-5.95214653,-0.04007977992,6.040149005
31.98818444,1.101296663,-6.051448345,-0.1680957973,6.153140467
31.99050287,1.143171072,-6.358327866,-0.2321037948,6.464444718
31.99282136,1.147358418,-6.704091072,-0.2249253243,6.805281761
31.99513985,1.088136077,-6.973881721,-0.2279163599,7.061941111
31.99745834,0.9762716293,-7.250252724,-0.2512463629,7.319999699
31.99977683,0.8350951076,-7.537391186,-0.1645065546,7.585295784
32.00209527,0.6544370055,-7.829315662,0.01794617064,7.856640096
32.00441376,0.4803591371,-7.953144073,0.1698904037,7.969448432
32.00673225,0.3768695593,-8.070392609,0.3750749528,8.087889016
32.00905069,0.2967100143,-8.219944,0.72323066,8.257032081
32.01136918,0.2189432681,-8.255238533,1.032503009,8.322437254
32.01368766,0.1214357466,-8.218747139,1.241874933,8.31292996
32.01600616,-0.06939185411,-8.227720261,1.273579836,8.325995527
32.01832464,-0.2494517565,-8.279764175,1.325025558,8.388826718
32.02064308,-0.4498506486,-8.29890728,1.29451704,8.41130204
32.02296157,-0.7022934556,-8.257032394,1.1395818,8.364833934
32.02528006,-0.941575706,-8.186444283,1.003190875,8.301254528
32.0275985,-1.099501967,-8.123034477,0.8913264275,8.245426399
32.02991699,-1.214955688,-8.059026718,0.8279166222,8.192037286
32.03223548,-1.282552958,-8.012366295,0.7411768436,8.148146958
32.03455397,-1.259222865,-7.944769382,0.6023930907,8.066466401
32.03687241,-1.202991605,-7.857431412,0.4594219327,7.962253808
32.03919089,-1.080359459,-7.735397339,0.1926222295,7.812851712
32.04150938,-0.8991031051,-7.630711555,-0.1597209126,7.685158164
32.04382787,-0.7274180651,-7.512266636,-0.5790630579,7.569583943
32.04614631,-0.524028182,-7.330412388,-0.9834501147,7.414629151
32.04845188,-0.304486692,-7.171887875,-1.450648785,7.323460229
32.05078329,-0.09571290761,-6.985845566,-1.893320918,7.238498693
32.05310178,0.1363908947,-6.808178425,-2.346162558,7.202386735
32.0554073,0.3912265003,-6.769295216,-2.744567633,7.314989226
32.05773871,0.5988038778,-6.755536556,-3.086143017,7.451182387
32.0600572,0.7842476368,-6.814160824,-3.36550498,7.640317785
32.06236277,0.8829515576,-6.879364967,-3.546163082,7.789771397
32.06469412,0.927816987,-6.960123062,-3.564109325,7.874454437
32.06701261,0.8715856671,-7.061817646,-3.363112211,7.870162246
32.0693311,0.7866404653,-7.173682213,-3.062813044,7.839728532
32.07164954,0.6209374666,-7.388438225,-2.633301258,7.868218239
32.07396803,0.3631108403,-7.705487251,-2.098505497,7.994379812
32.07628652,0.01256231871,-8.149355888,-1.555334687,8.296458594
32.07860501,-0.3086741269,-8.636295319,-0.8961120844,8.688146719
32.08092345,-0.7070791125,-9.124430656,-0.27577281,9.155940493
32.08322902,-1.109073281,-9.594620705,0.3110669553,9.663516578
32.08556043,-1.49431777,-9.976874352,0.8584251404,10.12461857
32.08787892,-1.850848317,-10.34955597,1.24965167,10.58775602
32.09018444,-2.143370867,-10.72104168,1.488335729,11.03403447
32.09251584,-2.368894339,-11.06201935,1.593619823,11.4245156
32.09483433,-2.505285263,-11.30548859,1.555932879,11.6838116
32.0971399,-2.499303341,-11.50708389,1.490728498,11.86936259
32.09947126,-2.371885538,-11.6339035,1.430907965,11.95914083
32.10178975,-2.112862349,-11.690135,1.418943882,11.96398117
32.10409532,-1.756331801,-11.66261768,1.460219979,11.88417414
32.10642673,-1.331605792,-11.48435211,1.481755376,11.65586189
32.10874516,-0.8428717852,-11.22832012,1.532004714,11.36365452
32.11106366,-0.3086741269,-10.84128094,1.576870084,10.95970672
32.11338214,0.2273181528,-10.37228775,1.539781332,10.48841996
32.11570063,0.7794619799,-9.917651176,1.47457695,10.05692513
32.11800616,1.359721422,-9.519247055,1.500898004,9.732296834
32.12033756,1.900499344,-9.20399189,1.479362607,9.513878189
32.12265605,2.367099762,-8.977272034,1.467398524,9.39935279
32.12496157,2.746362209,-8.886942863,1.422533035,9.409774656
32.12729298,3.03888464,-8.918647766,1.387238979,9.523735077
32.12961147,3.28115797,-9.066405296,1.385444283,9.740901318
32.13191704,3.369094372,-9.318847656,1.359721422,10.00202784
32.13424845,3.402593851,-9.702297211,1.367498159,10.3721872
32.13656688,3.407379389,-10.09591675,1.460818172,10.75508061
32.13887246,3.382254839,-10.44167995,1.568495274,11.08731282
32.14120386,3.345165968,-10.70249748,1.665404558,11.33609986
32.1435223,3.339782238,-10.88016415,1.742573142,11.51384725
32.14584079,3.351746321,-10.96630573,1.73360002,11.5973891
32.14815928,3.421138287,-11.05603695,1.654038668,11.69085044
32.15047777,3.428914785,-11.09910774,1.48295188,11.71096903
32.15279621,3.49471736,-11.18943691,1.231705427,11.78701175
32.1551147,3.533002615,-11.27976608,0.9744769931,11.86022073
32.15743319,3.626920938,-11.52802086,0.7387840152,12.10766791
32.15975168,3.693321705,-11.62253761,0.5012963414,12.20554398
32.16207011,3.764508247,-11.73200989,0.2596212626,12.32391908
32.1643886,3.802195072,-11.99581814,0.03768695518,12.58402799
32.16670709,3.792025566,-11.93898869,-0.1250249892,12.52735167
32.16902558,3.769891977,-11.95872974,-0.2446661144,12.54125847
32.17134402,3.710071564,-12.02752304,-0.3302095234,12.59106746
32.17366251,3.631108284,-12.1160574,-0.3110669553,12.65229453
32.175981,3.519243956,-12.43490124,-0.1477568001,12.92415099
32.17829949,3.357728481,-12.5246315,0.06161518395,12.96705561
32.18061792,3.181257725,-12.79262829,0.3577269912,13.18710385
32.18293642,3.001796007,-12.95055389,0.6526423693,13.30990486
32.1852549,2.798406124,-13.11805153,0.9050851464,13.44371719
32.18757339,2.621337175,-13.1455698,1.085145116,13.44823237
32.18989183,2.456232548,-13.25025558,1.232303619,13.53221799
32.19221032,2.300100803,-13.31605816,1.322034478,13.57776284
32.19452881,2.087139606,-13.21555901,1.348355532,13.44712662
32.1968473,1.891526341,-13.01815128,1.302293777,13.2191567
32.19916574,1.744965911,-12.85364532,1.204187989,13.02732409
32.20148423,1.625324726,-12.63529968,1.125224829,12.78900346
32.20380272,1.548156261,-12.40259838,1.017547846,12.54020088
32.20612121,1.420140266,-12.22313595,0.9529415965,12.34220193
32.20843964,1.326221943,-12.06221867,0.865005374,12.16569842
32.21075813,1.283749342,-12.05384445,0.7980063558,12.1482506
32.21307662,1.292124271,-12.00060368,0.7597211599,12.09385174
32.21539506,1.334596872,-11.97607708,0.7597211599,12.07413547
32.21771355,1.361516118,-12.10469151,0.7800601721,12.20597298
32.22003204,1.400399446,-12.34397411,0.8775677085,12.4541134
32.22235053,1.517647743,-12.29791164,0.9260223508,12.42575563
32.22466897,1.683350682,-12.41396427,0.890130043,12.5591604
32.22698746,1.78684032,-12.56949711,0.9589236975,12.7320301
32.22930595,1.875972986,-12.6873436,0.9840483069,12.86298229
32.23162444,1.936989903,-12.81595802,0.9571290612,12.99679984
32.23394287,1.960319996,-13.16172123,0.926620543,13.33912988
32.23626136,2.029113531,-13.61097336,0.9541380405,13.7944292
32.23857985,2.060818434,-14.11466217,1.034297585,14.30176326
32.24089834,2.083550215,-14.65185165,1.148554921,14.84375683
32.24320386,2.008176327,-15.08973789,1.270588875,15.27571137
32.24553527,1.962114573,-15.56650734,1.435693622,15.75522962
32.24785376,1.87956214,-15.9188509,1.585245013,16.10762458
32.25015928,1.820937991,-16.12104416,1.73898387,16.31649303
32.25249069,1.862214208,-16.26880074,1.868794441,16.48132615
32.25480918,2.01475668,-16.2897377,1.956132531,16.53001069
32.25711475,2.230708838,-16.17847252,2.038684845,16.45828882
32.25944616,2.472383976,-15.94218063,2.067398787,16.26468394
32.26176459,2.703291416,-15.65863132,2.019542217,16.01808572
32.26408308,2.986242771,-15.30628872,1.986042738,15.72082969
32.26640157,3.190829039,-14.88335705,1.851446509,15.33373931
32.26872006,3.327818155,-14.43410397,1.730010748,14.91343918
32.2710385,3.457030535,-14.08535004,1.680957913,14.60047141
32.27335699,3.598206997,-13.78445339,1.580459356,14.33373994
32.27567548,3.703491211,-13.57567883,1.408176184,14.14206007
32.27799392,3.810570002,-13.40578842,1.216750264,13.98985662
32.28031241,3.913461447,-13.29272842,1.030708313,13.89511314
32.28263089,4.066003799,-13.21316624,0.7926225066,13.84732463
32.28494938,4.192225456,-13.1581316,0.3978067636,13.81555036
32.28726782,4.309473515,-13.13659668,-0.04007977992,13.82545987
32.28958631,4.375874519,-13.21256828,-0.2967100143,13.92150406
32.2919048,4.469792843,-13.33998585,-0.314057976,14.07241638
32.29422329,4.582853794,-13.51944828,-0.2021935135,14.27651613
32.29654178,4.543372154,-13.6977129,-0.005383851007,14.43154871
32.29886022,4.514657974,-13.75095367,0.1668993831,14.47407057
32.30117871,4.361517429,-13.77847099,0.327816695,14.45602162
32.3034972,4.137190342,-13.67737389,0.6586244106,14.30456873
32.30581563,3.865604877,-13.33220959,1.231107235,13.93579343
32.30813412,3.53718996,-13.01216984,1.869392633,13.61333558
32.31045261,3.186043262,-12.69751358,2.474776745,13.32299676
32.31275819,2.821137905,-12.38824081,2.913261652,13.03512267
32.31508954,2.446063042,-12.17587757,3.189632654,12.82220634
32.31740803,2.112862349,-12.03470135,3.31465745,12.66037827
32.3197136,1.777269006,-11.85523987,3.439084291,12.47127492
32.32204501,1.470987678,-11.64048386,3.530609846,12.25274969
32.32436345,1.168893814,-11.76790142,3.514458179,12.33698638
32.32666902,0.912861824,-12.25005531,3.147758245,12.68091297
32.32900043,0.7016952634,-12.6687994,2.758326292,12.98457617
32.33131892,0.513858676,-13.13539982,2.187638044,13.326235
32.33362444,0.3433700502,-13.53918839,1.55892396,13.63296626
32.33595584,0.214157626,-13.86521053,0.8159525394,13.89084969
32.33827433,0.04486542568,-14.18345642,-0.2279163599,14.18535847
32.3405799,-0.06400800496,-14.45205021,-1.233500123,14.50473629
32.34291126,-0.1794617027,-14.62014675,-2.37786746,14.81334369
32.34522975,-0.2548356056,-14.67159176,-3.55154705,15.09748431
32.34753532,-0.2632105052,-14.7457695,-4.610371113,15.45194226
32.34986673,-0.1764706671,-14.87498188,-5.504688263,15.86183535
32.35218516,-0.05144568533,-15.0466671,-6.351747513,16.3324687
32.35449074,0.08315058798,-15.24228001,-7.016952515,16.78009644
32.35682214,0.2057827413,-15.41276932,-7.520043373,17.1507101
32.35914063,0.3092723191,-15.67478275,-7.70788002,17.47014248
32.36144616,0.3774677813,-15.91765404,-7.691728592,17.68267176
32.36377756,0.3541377485,-16.1389904,-7.633104324,17.8565592
32.36609605,0.2805584669,-16.45304871,-7.469195843,18.07125926
32.36840162,0.2147558331,-16.78983879,-7.090531826,18.22691549
32.37073298,0.09810572863,-17.03689766,-6.617351055,18.27716722
32.37305147,-0.01734796353,-17.16311836,-6.087938786,18.21087399
32.37535704,-0.1908276081,-17.25763512,-5.496912003,18.11293534
32.37768845,-0.3481557071,-17.28395653,-4.855037212,17.95627333
32.38000688,-0.5318048596,-17.2438755,-4.08873558,17.72996947
32.38231246,-0.72323066,-17.13141441,-3.217748165,17.44598308
32.38464386,-1.00737834,-16.83350754,-2.00638175,16.98256032
32.38696235,-1.313061476,-16.5021019,-0.5659025311,16.56392898
32.38926787,-1.567298889,-16.31845284,0.7513462901,16.4107541
32.39159928,-1.820937991,-16.30768394,2.032104731,16.53438298
32.39391777,-2.105085611,-16.36032677,3.160918713,16.79532925
32.39622334,-2.346162558,-16.35913086,4.127020836,17.03402308
32.3985547,-2.53280282,-16.28016663,5.150550842,17.26230255
32.40087319,-2.668595552,-16.07976723,5.953940868,17.35308987
32.40317876,-2.729014158,-15.8931284,6.329015732,17.32326437
32.40551016,-2.81395936,-15.74178219,6.293721676,17.18525549
32.4078286,-2.829512835,-15.63230991,6.077769279,17.00924853
32.41013418,-2.766701221,-15.5545435,5.725426197,16.80413533
32.41246558,-2.835494757,-15.48515129,5.170291424,16.5699081
32.41478407,-2.773879766,-15.36909962,4.807778835,16.34069672
32.41710251,-2.584248543,-15.2410841,3.973880291,15.96122519
32.419421,-2.38624239,-15.13759422,2.734398127,15.56656175
32.42173949,-2.142174482,-15.35055542,1.545763373,15.5761949
32.42404506,-2.004587173,-15.58445358,0.5802595019,15.72355762
32.42637642,-1.871187329,-15.79442406,-0.5431707501,15.91415118
32.4286949,-1.898106575,-15.99542141,-2.545365095,16.30751968
32.43100048,-2.011167526,-16.00259972,-5.102694511,16.91642645
32.43333188,-2.051845312,-15.80519199,-6.678368092,17.28047347
32.43565032,-1.994417667,-15.498312,-7.69651413,17.41871713
32.43795589,-1.926222205,-15.07059479,-8.676973343,17.49637178
32.4402873,-1.771885157,-14.54417419,-8.855836868,17.1201176
32.44260579,-1.498505235,-14.00818157,-8.309076309,16.35589857
32.44491131,-1.221535921,-13.66002655,-7.731808186,15.74386653
32.44724272,-0.8506484628,-13.48176098,-6.97627449,15.2036143
32.44956121,-0.3589234054,-13.23350525,-5.971887112,14.52301356
32.45186678,0.1405783296,-12.89671612,-4.543372154,13.67432921
32.45419813,0.5156532526,-12.39661598,-3.566502094,12.90976078
32.45651662,0.6502495408,-11.87378407,-3.010170937,12.26664997
32.4588222,0.8021938205,-11.37009525,-2.707478762,11.7155035
32.4611536,0.7495517135,-10.75633621,-2.258824587,11.01648242
32.46347204,0.7429714203,-10.17906761,-2.106282234,10.42122108
32.46577761,0.8297112584,-9.933204651,-2.422134638,10.25786097
32.46810902,0.8081758618,-9.678967476,-2.35274291,9.993545858
32.47042751,0.7040880919,-9.166305542,-1.856232166,9.378832293
32.47273303,0.7136593461,-8.771489143,-1.249053478,8.888670657
32.47506444,0.7639086246,-8.880961418,-1.243071318,9.000014355
32.47738292,1.001396298,-8.990432739,-1.373480201,9.149706184
32.4796885,1.303490162,-9.031708717,-1.432104349,9.236978501
32.48201985,1.643869162,-9.09571743,-1.414756417,9.350717465
32.48433834,1.835893154,-9.211769104,-1.788634896,9.561715771
32.48665683,1.992024899,-9.248259544,-2.669791937,9.829865553
32.48897532,2.109273195,-9.126823425,-3.447459221,9.981628841
32.49129376,2.270190477,-8.917451859,-4.014558315,10.03949157
32.49359933,2.414358139,-8.698508263,-4.301098824,9.999631109
32.49593074,2.43708992,-8.367102623,-4.633102894,9.869825531
32.49824923,2.370090723,-7.922635555,-4.813162804,9.568281996
32.50055475,2.429313183,-7.468597889,-4.204787731,8.908521585
32.50288616,2.363510609,-7.027719975,-3.913461447,8.383925747
32.50520464,2.39162612,-6.627520561,-3.395415306,7.821301003
32.50751016,2.402393818,-6.247061729,-2.96889472,7.321995095
32.50984157,2.435893536,-5.971887112,-2.684746981,6.986048908
32.51216006,2.436491728,-5.813362598,-2.685943365,6.851712808
32.51446563,2.46221447,-5.683551788,-2.758326292,6.780385311
32.51679704,2.470589399,-5.630311489,-2.77746892,6.746743885
32.51911548,2.567498684,-5.589035511,-2.543570518,6.65575829
32.52142105,2.55792737,-5.474180222,-2.305484533,6.467217366
32.52375246,2.516052961,-5.344967365,-2.249253273,6.321260865
32.52607095,2.499901533,-5.240281582,-2.336591244,6.258571512
32.52837647,2.459821701,-5.126024246,-2.509472847,6.214845239
32.53070787,2.396411896,-5.012365341,-2.659024239,6.159302411
32.53302636,2.441277266,-4.877170563,-2.797807932,6.129792542
32.53534485,2.474178553,-4.775475979,-3.007778168,6.162260936
32.53766329,2.514856577,-4.511068821,-3.052045345,5.999102124
32.53998178,2.474178553,-4.262215137,-2.959323406,5.748533066
32.54228735,2.434697151,-4.022933006,-2.937189817,5.544260475
32.54461876,2.321038008,-3.760320902,-2.716451883,5.187132305
32.5469372,2.129014015,-3.563511133,-2.571686029,4.883122086
32.54924277,1.928016901,-3.308077335,-2.140978098,4.386845341
32.55157418,1.637288928,-3.083750248,-1.763510346,3.911546928
32.55389266,1.345364571,-2.946162939,-1.476371527,3.559431805
32.55619819,0.9469595551,-2.840280533,-1.485344648,3.342181118
32.55852959,0.6664010882,-2.702095032,-1.488933921,3.156316238
32.56084808,0.366101861,-2.52682066,-1.459621787,2.940977555
32.56315366,0.1112662554,-2.330609322,-1.253240824,2.648534038
32.56548501,-0.111864455,-2.215753794,-1.150349498,2.499076329
32.5678035,-0.2715853751,-2.128415823,-1.128814101,2.424486297
32.57010907,-0.4307080805,-2.026720762,-1.298704505,2.445350668
32.57244048,-0.6167500615,-1.964507341,-1.462612867,2.525649646
32.57475892,-0.798604548,-1.892124534,-1.655235052,2.637746681
32.57706449,-0.9140582681,-1.808375716,-1.819143414,2.723051232
32.57939589,-1.080359459,-1.755135417,-2.016551256,2.883427797
32.58171438,-1.267597795,-1.673181176,-2.16670084,3.016775091
32.58401991,-1.45483613,-1.581655741,-2.302493572,3.149549126
32.58635131,-1.623530149,-1.490130305,-2.443670034,3.290571639
32.5886698,-1.757528186,-1.440479279,-2.554338217,3.418849163
32.59097537,-1.889731646,-1.448255897,-2.646461725,3.559816076
32.59330673,-2.027318954,-1.451845169,-2.723630428,3.692700807
32.59562522,-2.121237278,-1.506880045,-2.772084951,3.801945559
32.59794371,-2.24267292,-1.581655741,-2.786442041,3.910943104
32.6002622,-2.364108801,-1.666600943,-2.830111027,4.046739125
32.60258063,-2.494517565,-1.804188251,-2.825325251,4.178537531
32.60489912,-2.638087034,-1.94715941,-2.821137905,4.325477089
32.60721761,-2.745764017,-2.102692842,-2.682354212,4.376706678
32.6095361,-2.870190859,-2.302493572,-2.515454769,4.457239607
32.61185459,-2.982055187,-2.477169752,-2.300100803,4.507714146
32.61417303,-3.138785124,-2.590828657,-2.018944025,4.543181722
32.61649152,-3.251247883,-2.722434044,-1.79521513,4.604894926
32.61881001,-3.336791277,-2.806182861,-1.570888042,4.634277454
32.6211285,-3.359523058,-2.907279491,-1.394417405,4.656508254
32.62344694,-3.224328518,-3.196810961,-1.266999602,4.713934949
32.62576543,-3.23330164,-3.417548895,-1.194018483,4.853819123
32.62808392,-3.42472744,-3.382853031,-0.6329016089,4.855205157
32.63040241,-3.544368505,-3.327219963,-0.104685992,4.862499351
32.63270793,-3.498306751,-3.406781197,0.3260220885,4.893934884
32.63503933,-3.382853031,-3.561716557,0.7525427341,4.969490922
32.63735782,-3.276970625,-3.750151396,1.189232826,5.120199867
32.63966334,-3.059821844,-3.980460405,1.679163337,5.293974336
32.64199475,-2.867797852,-4.200600147,2.178664923,5.533162474
32.64431324,-2.646461725,-4.405784607,2.682952404,5.797666019
32.64661881,-2.410768747,-4.643870354,3.248854876,6.158928139
32.64895022,-2.199602127,-4.863411903,3.792025566,6.547555479
32.65126866,-1.983051777,-5.131408215,4.415356159,7.054021167
32.65357423,-1.823929071,-5.40000248,5.048855782,7.614308159
32.65590563,-1.707877159,-5.684150219,5.786443233,8.289109325
32.65822412,-1.563709617,-5.991029739,6.672984123,9.1030952
32.66052964,-1.405185103,-6.288337708,7.606184959,9.96853981
32.66286105,-1.293918848,-6.658627033,8.583054543,10.93985216
32.66517954,-1.203589797,-7.125227451,9.574879646,11.99565817
32.66748511,-1.179661512,-7.607979774,10.54217815,13.05413642
32.66981647,-1.289133191,-8.093722343,11.53699398,14.15176441
32.67213496,-1.435693622,-8.489136696,12.72144127,15.36104573
32.67444053,-1.588235974,-9.019146919,13.74975681,16.52039095
32.67677194,-1.807179332,-9.613762856,14.49093437,17.48363556
32.67909037,-2.085943222,-10.17188931,14.80319691,18.08184531
32.68139595,-2.440080881,-10.78564835,14.57528114,18.29543728
32.68372735,-2.874378204,-11.33958626,13.9740839,18.22424998
32.68604584,-3.297309637,-11.83071327,13.56909943,18.30187112
32.68835136,-3.647259951,-12.29133129,12.92483139,18.20523542
32.69068277,-4.109673023,-12.61077309,12.0598259,17.92652813
32.69300126,-4.422534466,-12.92303658,11.09073257,17.59454559
32.69530683,-4.419543266,-13.28973675,10.05882835,17.24324486
32.69763819,-4.247260094,-13.60858059,9.23270607,16.98456786
32.69995668,-3.857828379,-14.06680584,8.538188934,16.90143593
32.70226225,-3.376870871,-14.66261864,7.5924263,16.85350347
32.7045936,-2.944368362,-15.19262886,6.531807423,16.79731481
32.70691209,-2.67338109,-15.67238998,5.750551224,16.90679194
32.70921767,-2.711068153,-15.75554085,5.402395248,16.87521355
32.71154907,-2.830709219,-15.53719521,5.371288776,16.68136963
32.71386756,-2.947359324,-15.09332657,5.376672268,16.29122582
32.71617308,-3.227319479,-14.4323101,5.397609711,15.74297801
32.71850449,-3.546163082,-13.77189064,5.581258774,15.27712977
32.72082298,-3.73160696,-12.93081379,5.769095421,14.64285825
32.72312855,-3.796811342,-11.98564816,5.985645771,13.92477983
32.7254599,-3.722633839,-11.00399303,6.136393547,13.13777725
32.72777839,-3.643670797,-10.03190899,6.239883423,12.36331994
32.73008397,-3.506681681,-9.0921278,6.315257072,11.61232433
32.73241537,-3.354737282,-8.170890808,6.36251545,10.88573937
32.73473381,-3.161516905,-7.369295597,6.367899418,10.23971922
32.73703938,-3.055634499,-6.637091637,6.311069489,9.654920283
32.73937079,-2.946761131,-6.010172367,6.140581131,9.083628662
32.74168928,-2.818146944,-5.431109428,6.04187727,8.599022198
32.7439948,-2.690729141,-4.981258392,5.939583778,8.205584315
32.74632621,-2.586641312,-4.54217577,5.870790482,7.860550545
32.7486447,-2.496910334,-4.103690624,5.734997749,7.480978354
32.75095027,-2.464607239,-3.809971809,5.489135265,7.121852287
32.75328162,-2.555534601,-3.538984776,5.248058319,6.826220511
32.75560011,-2.694916487,-3.306880951,5.164309502,6.698367646
32.75790569,-2.870789051,-3.133401155,5.146961689,6.674642103
32.76023709,-3.037090063,-2.998206854,5.221138954,6.743400653
32.76255553,-3.187838078,-2.905484915,5.247459888,6.792642305
32.7648611,-3.357130051,-2.779861689,5.135595798,6.735896183
32.76719251,-3.497708559,-2.610569477,4.904089928,6.564993235
32.76951095,-3.612564087,-2.541775942,4.740181446,6.479241033
32.77181652,-3.586242914,-2.608176708,4.650450706,6.425761881
32.77414792,-3.59043026,-2.825325251,4.647459984,6.517095712
32.77646642,-3.652643681,-3.061616659,4.877170563,6.819244469
32.7787849,-3.772284985,-3.332005501,5.240880013,7.266307038
32.78110334,-3.949951887,-3.647259951,5.761917114,7.880629029
32.78342183,-4.212564468,-4.018147469,6.381658077,8.638099808
32.7857274,-4.555934429,-4.403990269,7.082755089,9.503530316
32.78805881,-4.948955536,-4.829912663,7.511668682,10.21006286
32.79037725,-5.302495003,-5.380859852,7.560122967,10.68763609
32.79268282,-5.636891842,-6.119643688,7.076174736,10.92230916
32.79501423,-5.821737289,-6.999604225,6.212964058,11.0221598
32.79733272,-5.639284611,-7.962715626,4.966901779,10.94881201
32.79963824,-5.423930645,-8.685946465,3.648456335,10.870875
32.80196964,-5.084149837,-9.385847092,2.187039852,10.89613916
32.80428813,-4.762315273,-10.08275604,0.6538388133,11.17000991
32.80659371,-4.503292084,-10.78086281,-0.9361918569,11.72105361
32.80892506,-4.26879549,-11.67517948,-2.263011932,12.63541269
32.81124355,-4.177269936,-12.84586811,-2.764906645,13.78806079
32.81354912,-4.197608948,-14.14337635,-2.598007202,14.98014209
32.81588053,-4.419543266,-15.58265972,-1.744965911,16.29099606
32.81819897,-4.930410862,-17.09073639,-0.3218346536,17.79060986
32.82050454,-5.711069584,-18.51207161,1.756331801,19.45245004
32.82283595,-6.73400116,-19.91007996,4.247260094,21.44288399
32.82515444,-7.816154957,-21.21715927,7.281359196,23.75454309
32.82745996,-8.898308754,-22.31785774,10.17547798,26.09227903
32.82979136,-9.969097137,-23.33241272,12.67298698,28.36175206
32.83210985,-10.78804111,-24.11666107,14.42154217,30.09943606
32.83441537,-10.80120182,-24.84168625,14.86600876,30.89941023
32.83674678,-9.214161873,-25.31606293,13.62413406,30.18974743
32.83906527,-7.042675018,-25.2251358,11.38684464,28.55813332
32.84137084,-5.012365341,-24.55873489,8.737391472,26.54425127
32.84370225,-3.126821041,-23.2414856,6.044867992,24.21743363
32.84602069,-1.529013634,-21.63829422,3.266202927,21.93676688
32.84832626,-0.2159522474,-19.79761696,0.6358926296,19.80900381
32.85065766,0.693320334,-17.80140495,-1.574477315,17.88434204
32.85297616,1.154536963,-15.79083443,-3.139383316,16.14122471
32.85528168,1.179661512,-13.79462242,-4.427320004,14.53562422
32.85761308,0.8727820516,-11.49751282,-5.176871777,12.63940469
32.85993157,0.4163511395,-8.989236832,-6.443871498,11.06811669
32.86223714,0.3314059377,-6.774080753,-7.238886833,9.919651331
32.8645685,0.3236292601,-5.377869129,-7.792226791,9.473384329
32.86688699,0.2219343036,-4.59242487,-7.785048485,9.041382689
32.86919256,-0.06460621208,-3.83569479,-7.788039684,8.681606453
32.87152397,-0.3535395563,-3.064009428,-7.591229916,8.193895022
32.87384241,-0.6538388133,-2.109871387,-7.214360237,7.544935791
32.87614798,-0.8255237937,-1.401595831,-6.471987247,6.67327351
32.87847938,-1.033101201,-0.8865407705,-5.452046394,5.619436139
32.88079787,-1.247258782,-0.5096712112,-4.335794449,4.540322975
32.88310339,-1.426122308,-0.3822534084,-3.255435228,3.574605017
32.8854348,-1.564307809,-0.522831738,-2.220539331,2.766081501
32.88775329,-1.677368641,-0.836291492,-1.394417405,2.336096941
32.89005886,-1.695314884,-1.277169108,-0.6753742099,2.227416398
32.89239022,-1.480558991,-1.794616938,-0.1262213886,2.329943501
32.89470871,-1.319641709,-2.563311338,0.1148554832,2.885344181
32.89701428,-1.217348576,-3.372683525,0.111864455,3.587400921
32.89934569,-0.8673982024,-4.258625984,-0.1746760458,4.349573156
32.90166412,-0.3894318938,-5.276772022,-1.159322619,5.416641867
32.9039697,0.3367897868,-6.386443615,-2.514258385,6.871796318
32.9063011,1.21854496,-7.459026337,-4.306482315,8.698719195
32.90861959,2.019542217,-8.269595146,-6.378068924,10.63694119
32.91092511,2.734996319,-9.00538826,-8.283951759,12.53798546
32.91325652,3.397209883,-9.718449593,-10.01396275,14.3620593
32.91557501,3.964308977,-10.39920712,-11.3258276,15.8787161
32.91788058,4.458426952,-11.00877857,-12.06521034,16.93044823
32.92021199,4.861617565,-11.56152058,-12.39661598,17.63462989
32.92253043,5.14397049,-12.01077366,-12.26680565,17.92187594
32.924836,5.341976643,-12.58624744,-11.79362488,18.05657573
32.9271674,5.464608669,-13.30289745,-11.0811615,18.15547214
32.92948584,5.506483078,-14.07338619,-10.1832552,18.22306893
32.93179142,5.43649292,-14.77448368,-9.27278614,18.27088903
32.93412282,5.226522923,-15.27219009,-8.27378273,18.13868277
32.93644131,5.00040102,-15.69811249,-7.232904434,17.99304456
32.93874683,4.823930264,-16.05524254,-6.048457623,17.82203568
32.94107824,4.647459984,-16.28315735,-4.67976284,17.56816091
32.94339673,4.460221291,-16.47697639,-3.253042459,17.37718649
32.9457023,4.225724697,-16.48475266,-1.900499344,17.12354277
32.94803366,3.979264021,-16.37827301,-0.7064808607,16.86954309
32.95035214,3.73160696,-16.26162338,0.06340979785,16.68440309
32.95265772,3.530609846,-16.01157188,0.5126622319,16.40422088
32.95498912,3.347558975,-15.66939926,0.8333004713,16.0446444
32.95730756,3.217149973,-15.29312801,1.034297585,15.66204297
32.95961313,3.069393158,-14.92642784,1.034895778,15.27384797
32.96194454,2.827120066,-14.62134266,0.4109672904,14.89782411
32.96426303,2.655434847,-14.13619804,0.0765703246,14.3836467
32.96656855,2.504088879,-13.61097336,-0.009571290575,13.83940564
32.96889996,2.325823545,-13.15454292,-0.04785645381,13.35865805
32.97121845,2.114656925,-12.71785259,-0.1298106313,12.89311441
32.97352402,1.881955028,-12.25723362,0.003589233849,12.40086866
32.97585542,1.634297848,-11.89352512,-0.08733802289,12.00560274
32.97817386,1.305882931,-11.46939754,-0.3511467278,11.54884039
32.98047944,1.031306505,-10.93819046,-0.524028182,10.9991913
32.98281084,0.7369893789,-10.42612648,-0.5826523304,10.46836904
32.98512933,0.5012963414,-10.02353382,-0.4923232496,10.0481297
32.98743485,0.2500499785,-9.765109062,-0.2961117923,9.77279705
32.98976626,0.05443671346,-9.630513191,-0.1704886109,9.632175977
32.99208475,-0.09750752151,-9.479764938,-0.1393819153,9.481290963
32.99439032,-0.3433700502,-9.346364975,-0.195015043,9.354703208
32.99672168,-0.6771687865,-9.330213547,-0.3122633696,9.359965321
32.99904017,-0.9098708034,-9.340981483,-0.3810569942,9.392923101
33.00134574,-1.14795661,-9.317651749,-0.5359922647,9.40338908
33.00367714,-1.392622828,-9.251849174,-0.5479564071,9.372105831
33.00599558,-1.588834286,-9.251250267,-0.5641079545,9.403629282
33.00830116,-1.742573142,-9.351150513,-0.6364908218,9.53339906
33.01063256,-1.891526341,-9.460622787,-0.7417750359,9.676336374
33.01295105,-2.024327993,-9.55035305,-0.5706881881,9.779204069
33.01525657,-2.015354872,-9.631111145,-0.1788634956,9.841338796
33.01758798,-1.81495595,-9.788438797,0.2871387303,9.959420055
33.01990647,-1.536192179,-9.963713646,0.5862415433,10.09847291
33.02222496,-1.305284739,-10.03011417,0.650847733,10.13560858
33.02454339,-1.110867858,-9.997213364,0.6095715761,10.07719604
33.02686188,-0.9020941257,-9.920642853,0.4821537733,9.973234214
33.02918037,-0.6005984545,-9.832706451,0.107078813,9.851614108
33.03149886,-0.2656033039,-9.686145782,-0.4731806815,9.701333166
33.0338173,0.003589233849,-9.435498238,-1.015753269,9.49001552
33.03613579,0.394217521,-9.105886459,-1.454237938,9.229701168
33.03845428,0.9002995491,-8.820542336,-1.752144337,9.037838024
33.04077277,1.450648785,-8.659625053,-1.953739643,8.995031215
33.04307829,1.992024899,-8.579465866,-1.892124534,9.008636578
33.0454097,2.4173491,-8.449056625,-1.822732687,8.975103842
33.04772819,2.775674343,-8.315656662,-1.805982947,8.950759084
33.05003376,3.121437073,-8.201399803,-1.746760488,8.947485699
33.05236511,3.486342669,-8.010572433,-1.549352646,8.872674317
33.0546836,3.762713671,-7.916653633,-1.228116274,8.850971048
33.05698918,3.833899975,-7.761120319,-1.109073281,8.727188618
33.05932058,3.805186272,-7.728816986,-1.200598717,8.698016547
33.06163902,3.769293785,-7.725227833,-1.434497118,8.714614317
33.06394459,3.651447296,-7.680362701,-1.802991867,8.693205292
33.066276,3.4809587,-7.530810833,-1.81495595,8.492599742
33.06859449,3.323032379,-7.240681171,-1.523031592,8.111080893
33.07091292,3.112463951,-6.933203697,-1.241276741,7.700487861
33.07323142,2.835494757,-6.636493683,-0.9684949517,7.281556248
33.0755499,2.595016241,-6.483353138,-0.6424728632,7.012898729
33.07786839,2.380260229,-6.478567123,-0.6448656917,6.932050381
33.08018683,2.252842426,-6.558128834,-0.4929214716,6.951785697
33.08250532,2.08235383,-6.672386169,-0.2931207716,6.995916985
33.08482381,1.814357758,-6.764509678,0.04905286431,7.003776941
33.08714225,1.475175142,-7.016354084,0.3529413342,7.178435339
33.08946074,1.158126116,-7.33639431,0.5479564071,7.44742867
33.09176631,0.7878368497,-7.42672348,0.6358926296,7.495416465
33.09409772,0.3152543902,-7.447062492,0.679561615,7.484646223
33.09641621,-0.04127619043,-7.517650604,0.8105686903,7.561335592
33.09872173,-0.380458802,-7.511070251,0.8883354068,7.572982571
33.10105313,-0.6652047038,-7.459624767,1.043270707,7.56154169
33.10337162,-0.9230313301,-7.523034573,1.289731383,7.688396651
33.1056772,-1.101894855,-7.685148239,1.513460279,7.909882284
33.10800855,-1.250249863,-7.894520283,1.694716692,8.170596054
33.11032704,-1.319641709,-8.044670105,1.923829436,8.376114316
33.11263261,-1.367498159,-8.117650986,2.167299032,8.512549197
33.11496402,-1.360319614,-8.222934723,2.259422779,8.63551482
33.11728246,-1.394417405,-8.401200294,2.298306227,8.82081503
33.11960095,-1.452443361,-8.556734085,2.298904419,8.978432572
33.12191944,-1.478166223,-8.653044701,2.280359983,9.06974088
33.12423792,-1.490130305,-8.734998703,2.25703001,9.144116969
33.12655636,-1.469791293,-8.773283958,2.238485575,9.172873897
33.12887485,-1.472184181,-8.667402267,2.185245275,9.059055428
33.13119334,-1.44646132,-8.528019905,2.069791555,8.894009834
33.13351183,-1.391426325,-8.382656097,1.907079697,8.708728003
33.13583027,-1.316650629,-8.280363083,1.758724689,8.56686023
33.13814876,-1.116850019,-8.213363647,1.593619823,8.440753551
33.14046725,-0.9200403094,-8.185248375,1.318445325,8.341646313
33.14278574,-0.6610172391,-8.170292854,1.033699393,8.261910406
33.14510418,-0.3481557071,-8.167900085,0.769890666,8.211488041
33.14742266,-0.09451649338,-8.119445801,0.4378865361,8.131794273
33.14974116,0.1872383654,-8.051250458,0.1393819153,8.054633415
33.15205964,0.4462614357,-8.026124954,-0.1214357466,8.039438892
33.15436516,0.7369893789,-8.082356453,-0.4235295951,8.126931555
33.15669657,1.034297585,-8.099704742,-0.6209374666,8.189050723
33.15901506,1.279561877,-8.113463402,-0.8189435601,8.25446761
33.16132063,1.44347024,-8.138587952,-0.9361918569,8.318453905
33.16365199,1.603191137,-8.193024635,-1.101296663,8.420732084
33.16597048,1.794018745,-8.322834969,-1.247258782,8.604867207
33.16827605,1.93340075,-8.49332428,-1.349551916,8.814526996
33.17060746,2.029711723,-8.683553696,-1.481157184,9.039782136
33.17292589,2.086541414,-8.849854469,-1.469791293,9.21053015
33.17524438,2.109273195,-9.036494255,-1.315454245,9.372175932
33.17756287,2.042274237,-9.282357216,-1.075573802,9.565035209
33.17988136,1.819143414,-9.449854851,-0.718445003,9.650140035
33.1821998,1.567897081,-9.652647018,-0.228514567,9.781825731
33.18451829,1.26341033,-9.893723488,0.4438686073,9.983936571
33.18683678,0.9397810698,-10.12582684,1.16769743,10.23616505
33.18914235,0.5318048596,-10.25862885,1.832303882,10.43453975
33.19147371,0.104685992,-10.29631615,2.37786746,10.56784458
33.1937922,-0.2703889608,-10.34297562,2.880360365,10.73995953
33.19609777,-0.6071787477,-10.33101177,3.153740168,10.81871283
33.19842918,-0.8237292171,-10.30708313,3.337987661,10.86538789
33.20074761,-0.9726824164,-10.25743294,3.364906788,10.838987
33.20305319,-1.016949654,-10.16770172,3.220739365,10.71398651
33.20538459,-0.9613165259,-10.05643559,3.029313564,10.54669459
33.20770308,-0.8087740541,-9.937990189,2.686541557,10.32643549
33.21002152,-0.6137589812,-9.790233612,2.229512453,10.05962723
33.21234001,-0.3122633696,-9.65444088,1.715653777,9.810667918
33.2146585,0.08195417374,-9.458827972,1.231705427,9.539037758
33.21697699,0.5706881881,-9.227322578,0.775872767,9.277453612
33.21929542,1.146162033,-9.02692318,0.4031906128,9.108325432
33.22161392,1.859821439,-8.857032776,0.08853443712,9.050624494
33.22391949,2.611167669,-8.883354187,-0.1866401732,9.261048146
33.22625089,3.347558975,-9.049057007,-0.4695914388,9.659818835
33.22856933,4.042674065,-9.306883812,-0.680758059,10.16979505
33.2308749,4.673780918,-9.681360245,-0.8392825127,10.78319801
33.23320631,5.215157032,-10.07258701,-0.965503931,11.38363166
33.2355248,5.56630373,-10.35733318,-1.064806104,11.80643468
33.23783032,5.820540905,-10.58166027,-1.128215909,12.12943122
33.24016173,5.963512421,-10.75155067,-1.130010486,12.34650744
33.24248022,6.007181168,-10.78445148,-1.100698471,12.39363371
33.24478574,5.976672649,-10.72223854,-1.063609719,12.32145612
33.24711714,5.854040623,-10.61874866,-1.012762189,12.16771557
33.24943563,5.693721294,-10.50269699,-0.9672985673,11.9858572
33.25175412,5.492125988,-10.49312592,-0.8883354068,11.87679583
33.25407261,5.249852657,-10.71506023,-0.8123632669,11.9596573
33.25639105,4.92502737,-10.20837975,-0.7046862841,11.35620951
33.25870954,4.609174728,-9.942177773,-0.7854440212,10.98673349
33.26102803,4.334000111,-10.00618649,-0.7686942816,10.93152395
33.26334652,4.045664787,-10.3346014,-0.6687939167,11.11839354
33.26566496,3.686143398,-10.68395329,-0.4929214716,11.31271331
33.26798345,3.248256683,-10.37647533,-0.3990031779,10.88033158
33.27030194,2.80857563,-10.37228775,-0.3457628787,10.75137211
33.27260751,2.437688112,-10.65942669,-0.1657029688,10.93586568
33.27493886,2.033899307,-11.13918781,0.05443671346,11.32348069
33.27725735,1.682154298,-11.8343029,0.3038884699,11.95711991
33.27956292,1.161117196,-11.62014484,0.3601198196,11.68356305
33.28189433,0.7465606928,-11.78405285,0.3242274821,11.81212842
33.28421277,0.4001995921,-12.2482605,0.3146561682,12.25883573
33.28651834,0.01794617064,-12.23809147,0.3684946895,12.24365114
33.28884975,-0.2512463629,-12.13400364,0.3320041299,12.14114475
33.29116824,-0.456430912,-12.32602787,0.3367897868,12.33907288
33.29347376,-0.6059823632,-12.6125679,0.313459754,12.63100711
33.29580517,-0.747158885,-12.51027489,0.2925225794,12.53597996
33.29812366,-0.7830511928,-12.40080357,0.2291127741,12.42761405
33.30042918,-0.8219345808,-12.35892868,0.195015043,12.38776515
33.30276058,-0.7633104324,-12.386446,0.1531406492,12.41088794
33.30507907,-0.7375875711,-12.27039433,0.1477568001,12.29343094
33.30739756,-0.6514459848,-12.11964703,0.190229401,12.13863308
33.30971605,-0.5593222976,-11.98744297,0.190229401,12.00199224
33.31203449,-0.4271188378,-11.97009563,0.2434697002,11.98018771
33.31435298,-0.3026920557,-11.98146152,0.3493520916,11.99037487
33.31667147,-0.1800599098,-11.77627659,0.4396811724,11.78585726
33.31898996,-0.01136590727,-11.70927715,0.5742774606,11.72335682
33.32130839,0.1477568001,-11.68594742,0.8333004713,11.71655192
33.32362688,0.2745763958,-11.65902805,1.034297585,11.70803565
33.32594537,0.4342973232,-11.62612724,1.217348576,11.69775134
33.32826386,0.6197410822,-11.62612724,1.290329576,11.71391754
33.3305823,0.8321040869,-11.71705437,1.354935765,11.82444972
33.33290079,1.080359459,-11.93240833,1.377667665,12.06016225
33.33521928,1.247258782,-12.11127186,1.34237349,12.24910311
33.33753777,1.509272933,-12.26381397,1.312463164,12.42584393
33.33985621,1.782652855,-12.50189972,1.278365493,12.69289432
33.3421747,1.921436548,-12.66221905,1.180858016,12.86149817
33.34449319,2.105684042,-12.91765308,1.079162955,13.13256484
33.34681168,2.233101845,-13.19821167,0.9672985673,13.42070049
33.34913011,2.390429735,-13.55474186,0.94277215,13.7961589
33.3514486,2.510071039,-13.93579865,0.9320043921,14.19068612
33.35376709,2.59740901,-14.37129307,0.926620543,14.63349663
33.35607266,2.664407969,-14.74397469,0.9110672474,15.01045978
33.35840402,2.711068153,-15.07896996,0.9421738982,15.34968785
33.36072251,2.768495798,-15.27458382,0.9439685345,15.55212385
33.36302808,2.81695056,-15.28834248,0.9254241586,15.57321534
33.36535949,2.964707375,-15.2608242,0.926620543,15.57372373
33.36767792,3.128017426,-15.12204075,0.8985049129,15.46828757
33.36999642,3.317050457,-14.89651775,0.941575706,15.29037703
33.3723149,3.573082447,-14.65065479,0.9708877802,15.11129469
33.37463339,3.828516245,-14.77867126,1.036092162,15.30163873
33.37695183,3.932005882,-14.05125237,1.241874933,14.64379106
33.37927032,4.152145386,-13.42074394,1.501496196,14.12838172
33.38158881,4.277170658,-12.94277763,1.642074585,13.72975202
33.38389438,4.424927235,-12.6311121,1.807777524,13.5052965
33.38622574,4.459623337,-12.51027489,1.821536183,13.40571565
33.38854423,4.494318962,-12.37029457,1.801795483,13.28418449
33.39086272,4.54995203,-12.30150127,1.768295884,13.23464648
33.39318121,4.61814785,-12.35294724,1.802991867,13.31064892
33.39549964,4.711467743,-12.50429249,1.904686809,13.49752165
33.39781813,4.753940582,-12.68076324,1.968694806,13.68493576
33.40013662,4.777270317,-12.8386898,1.941177368,13.83554976
33.40245511,4.777270317,-12.97388458,1.804188251,13.94270734
33.40477355,4.708476543,-13.02353573,1.641476393,13.94548956
33.40709204,4.613960266,-13.02114296,1.497906923,13.89541358
33.40941053,4.48534584,-13.01516056,1.42971158,13.84040487
33.41172902,4.375874519,-13.03669643,1.490728498,13.83206431
33.41404746,4.172484398,-12.97867012,1.698305845,13.73825851
33.41636595,3.945764542,-12.81954765,2.033899307,13.56637779
33.41868444,3.689134359,-12.64188004,2.545963287,13.41300758
33.42100292,3.358924866,-12.39422321,3.113062143,13.21326232
33.42332142,2.942573547,-12.17288685,3.709473372,13.06132099
33.42562694,2.495713949,-12.00479126,4.228715897,12.97018271
33.42795834,2.036890268,-11.92343521,4.658227444,12.96211064
33.43027683,1.552343726,-11.92463207,5.035695076,13.03705665
33.43258235,1.13120687,-11.96291637,5.351547718,13.1540891
33.43491376,0.7668996453,-12.29731369,5.469992638,13.48083375
33.43723225,0.4618147612,-12.7944231,5.213362217,13.82351913
33.43953782,0.2685943544,-13.30469227,4.795814991,14.14520487
33.44186918,0.156729877,-13.75454235,4.130012035,14.36206806
33.44418766,0.1322034448,-14.18465233,3.207578659,14.54339714
33.44649324,0.123828575,-14.44128323,2.093121529,14.59270888
33.44882464,0.09690931439,-14.69372559,0.9020941257,14.72170971
33.45114313,0.01136590727,-14.89472294,-0.242273286,14.89669752
33.45344866,0.02093719877,-15.09332657,-1.418943882,15.15989271
33.45578006,0.06939185411,-15.31585979,-2.595016241,15.5343003
33.45809855,0.1357926875,-15.52283859,-3.689732552,15.95591063
33.46040407,0.2171486616,-15.60419464,-4.661816597,16.28712921
33.46273548,0.3553341627,-15.71785355,-5.493920803,16.65413907
33.46505397,0.4719842672,-15.7932272,-6.160321712,16.95872513
33.46735954,0.6460621357,-15.94337749,-6.577271461,17.25888705
33.46969095,0.7782655358,-16.1515522,-6.847062111,17.56019918
33.47200938,0.8757730722,-16.37587929,-6.968497753,17.81842759
33.47431496,0.8913264275,-16.60140419,-7.000202656,18.03895565
33.47664636,0.8644071817,-16.85145378,-7.007979393,18.27102815
33.47896485,0.8045865893,-17.14517212,-6.872784615,18.48890086
33.48127037,0.6783652306,-17.3683033,-6.5288167,18.56727192
33.48360178,0.5252245665,-17.50170326,-6.014359951,18.51372473
33.48592027,0.3559323549,-17.60040665,-5.432903767,18.42328541
33.48822584,0.17587246,-17.64168358,-4.838287354,18.29395953
33.4905572,-0.06879365444,-17.60818291,-4.143770695,18.08932485
33.49287569,-0.2608176768,-17.61117554,-3.34875536,17.92862773
33.49518126,-0.471386075,-17.5184536,-2.431107759,17.69261728
33.49751266,-0.6604190469,-17.35693741,-1.355534077,17.42231047
33.49983116,-0.8691928387,-17.14876175,-0.3714857101,17.17479337
33.50213668,-1.109073281,-16.98485374,0.5359922647,17.02946235
33.50446808,-1.32801652,-16.8544445,1.220339537,16.95066831
33.50678657,-1.572682738,-16.78206253,1.761117458,16.94734458
33.50909209,-1.838884234,-16.74018669,2.092523336,16.97038596
33.5114235,-2.097907305,-16.73600006,2.267199516,17.01866936
33.51374199,-2.383849621,-16.66062546,2.607578516,17.03110817
33.51604756,-2.620140791,-16.52602959,3.114258766,17.01979434
33.51837897,-2.784647465,-16.2640152,3.722035646,16.91525942
33.5206974,-2.965903759,-15.8883419,4.265804768,16.71625209
33.52300298,-3.016152859,-15.65863132,4.48833704,16.56608229
33.52533438,-3.02512598,-15.55753422,4.673780918,16.52369469
33.52765287,-3.055634499,-15.48634815,4.634299278,16.45115835
33.52995839,-3.073580742,-15.57847214,4.25802803,16.43978392
33.5322898,-3.077169895,-15.63290882,3.647858143,16.34514245
33.53460829,-2.913261652,-15.774683,2.705684185,16.26801906
33.53692678,-2.848655462,-15.86680698,1.466800332,16.18709069
33.53924522,-2.771486759,-15.84826279,0.04606183618,16.08883756
33.54156371,-2.726621389,-15.83988762,-1.403988719,16.13405368
33.54386928,-2.79421854,-15.70888042,-2.364706993,16.12973715
33.54620069,-2.936591625,-15.52642822,-3.087339401,16.1004723
33.54851912,-3.096312523,-15.18126297,-3.902095556,15.97761704
33.5508247,-3.212962627,-14.78704548,-4.912465096,15.90949893
33.5531561,-3.231507063,-14.5011034,-5.935396671,15.99854904
33.55547459,-3.147758245,-14.15055466,-6.79561615,16.0102148
33.55778011,-2.920439959,-13.8676033,-7.573283672,16.06841674
33.56011152,-2.537588358,-13.65703487,-7.771887779,15.9171667
33.56243001,-2.082952023,-13.50150204,-7.31126976,15.49464139
33.56473558,-1.641476393,-13.41356564,-6.711269379,15.08838376
33.56706694,-1.305882931,-13.29392433,-6.089733601,14.68055209
33.56938542,-0.9571290612,-13.17906857,-5.352744102,14.25678132
33.571691,-0.7202396393,-13.02293682,-4.430909157,13.77492594
33.5740224,-0.6717849374,-12.5683012,-3.66101861,13.10788112
33.57634084,-0.6867401004,-11.94855976,-3.136392355,12.37241485
33.57864642,-0.685543716,-11.34317589,-2.930609465,11.73567558
33.58097782,-0.6442674994,-10.74676514,-2.858226538,11.13900806
33.58329631,-0.6921239495,-10.18086243,-2.920439959,10.61404564
33.58560183,-0.7040880919,-9.57129097,-2.786442041,9.993478379
33.58793324,-0.6406782866,-9.141778946,-2.593819857,9.524205605
33.59025173,-0.3672982752,-8.885149002,-2.306082726,9.186881862
33.5925573,-0.24765715,-8.709874153,-2.388036966,9.03470876
33.59488871,-0.1172483116,-8.54357338,-2.540579557,8.914086478
33.59720714,-0.01076770201,-8.373085022,-2.688934565,8.794261642
33.59951272,0.1782652885,-8.128418922,-2.693720102,8.564992743
33.60184412,0.4426721931,-8.045268059,-2.606382132,8.468501911
33.60416261,0.7603194118,-8.100302696,-2.722434044,8.579314454
33.60646813,1.007976532,-8.277970314,-3.305086374,8.97019538
33.60879954,1.252642632,-8.456833839,-4.170091629,9.511930211
33.61111803,1.377069473,-8.499305725,-5.303691387,10.11254965
33.6134236,1.431506157,-8.302495956,-6.206383705,10.46421749
33.61575496,1.411765337,-7.957930088,-6.609574318,10.44069946
33.61807345,1.413560033,-7.395616531,-6.270391941,9.798525958
33.62037902,1.449452281,-6.797410965,-5.577669621,8.911571474
33.62271042,1.412363529,-6.273981094,-4.981258392,8.134527932
33.62502886,1.365105271,-5.870790482,-4.607978344,7.587038796
33.62733444,1.308275819,-5.550152302,-4.491328239,7.258636618
33.62966584,1.210768223,-5.298307419,-4.389034748,6.985817577
33.63198433,1.103689432,-5.060221672,-4.310669899,6.73838621
33.6342899,0.9798609018,-4.78385067,-4.065405846,6.353965636
33.63662126,0.8380861282,-4.58943367,-3.653840065,5.925861709
33.63893975,0.717248559,-4.336990833,-3.074178934,5.364187832
33.64124532,0.6562315822,-4.082753658,-2.298904419,4.731223822
33.64357673,0.6466603279,-3.893720627,-1.657029629,4.280768283
33.64589516,0.6687939167,-3.777668715,-1.271187067,4.041532232
33.64820074,0.7106683254,-3.622135162,-0.927816987,3.806015891
33.65053214,0.769890666,-3.562912941,-0.7800601721,3.727676774
33.65285063,0.8057830334,-3.457030535,-0.8949156404,3.660767736
33.65515616,0.8673982024,-3.288336515,-1.401595831,3.678315858
33.65748756,0.8847461939,-2.928216696,-1.700100541,3.499652939
33.65980605,0.927816987,-2.590828657,-1.673181176,3.220678925
33.66211162,0.9738788009,-2.373680115,-1.531406522,2.987976429
33.66444298,1.034895778,-2.175075769,-1.479960799,2.827056391
33.66676147,1.097707391,-2.029711723,-1.504487276,2.754663892
33.66906704,1.10608232,-1.938784599,-1.619342685,2.757639308
33.67139845,1.055832982,-1.81495595,-1.692323804,2.696814462
33.67371688,0.97926265,-1.614557028,-1.741974831,2.569090509
33.67602246,0.7740781307,-1.313061476,-2.103291035,2.597529705
33.67835386,0.8644071817,-1.08335042,-1.021735311,1.721856833
33.68067235,0.8392825127,-1.010967612,-0.5120640397,1.410198649
33.68299079,0.7495517135,-1.060618639,-0.4360919297,1.370005781
33.68530928,0.5880361795,-1.040877819,-0.6382854581,1.355220096
33.68762777,0.2817548811,-1.030110121,-1.160519004,1.577123024
33.68994626,0.1674975902,-0.8590233326,-0.5431707501,1.030053878
33.69226475,0.1525424421,-0.8626125455,0.1633101404,0.8910891101
33.69458319,0.08614161611,-0.9547362328,0.4253242314,1.048733691
33.69690168,-0.01375873014,-1.101296663,0.3206382394,1.147106152
33.69922016,-0.07776673883,-1.179661512,0.2111666054,1.200933089
33.70153866,-0.1860419661,-1.211366415,0.1148554832,1.230939473
33.70385709,-0.3014956415,-1.137787223,-0.01076770201,1.177104638
33.70617558,-0.4474578202,-1.179661512,-0.1597209126,1.271743117
33.70849407,-0.5814558864,-1.293320656,-0.3224328458,1.454211885
33.71081256,-0.7100701332,-1.445863128,-0.4510470629,1.672771123
33.713131,-0.8578268886,-1.593021631,-0.5850451589,1.901542197
33.71544949,-1.032503009,-1.780858278,-0.72323066,2.181875628
33.71776798,-1.222732425,-1.967498422,-0.7806583643,2.444494243
33.72008647,-1.447059512,-2.117049932,-0.8817551732,2.7117105
33.72240496,-1.630708575,-2.236690998,-0.8775677085,2.903811661
33.72472339,-1.752144337,-2.344966173,-0.8255237937,3.041441379
33.72704188,-1.91066885,-2.468794823,-0.8739784956,3.241826914
33.72936037,-2.042274237,-2.533999205,-0.8985049129,3.376291916
33.73167886,-2.117049932,-2.62253356,-0.8123632669,3.466917473
33.7339973,-2.17806673,-2.690729141,-0.693320334,3.530536939
33.73631579,-2.181656122,-2.772084951,-0.5306084156,3.567299217
33.73863428,-2.196012974,-2.844467878,-0.3589234054,3.611411982
33.74095277,-2.170290232,-2.973082066,-0.1668993831,3.684729578
33.74327121,-2.148754835,-3.121437073,0.006580262445,3.789532958
33.7455897,-2.101496458,-3.312264681,0.08973085135,3.923701862
33.74790819,-2.164308071,-3.403790236,0.537786901,4.069303644
33.75022668,-2.087737799,-3.434298754,1.192223907,4.192189749
33.7525322,-1.956132531,-3.507279873,1.718644857,4.368204063
33.7548636,-1.819741607,-3.604189157,2.240878344,4.617702324
33.75718209,-1.682154298,-3.733999729,2.776870728,4.948071149
33.75948766,-1.549352646,-3.893122435,3.39960289,5.395757196
33.76181902,-1.438684583,-4.101297855,3.988237143,5.898855222
33.76413751,-1.384846091,-4.329214573,4.55354166,6.43386658
33.76644308,-1.357328653,-4.625326157,5.114060402,7.027773255
33.76877449,-1.411765337,-4.928018093,5.764907837,7.714441397
33.77109293,-1.541576028,-5.28514719,6.400202274,8.442264307
33.7733985,-1.642074585,-5.578866005,7.408178806,9.418135063
33.7757299,-1.749153376,-5.997011662,8.488538742,10.53940114
33.77804839,-1.840080619,-6.525227547,9.64068222,11.78589177
33.78035392,-2.074577332,-7.162914753,10.64985561,13.00117854
33.78268532,-2.409572363,-7.788637638,11.70568848,14.26506425
33.78500381,-2.752942562,-8.365307808,12.89970684,15.61920305
33.78730938,-3.167499065,-9.050851822,13.95972729,16.93590727
33.78964079,-3.617947817,-9.756733894,14.72423458,18.03015493
33.79195923,-4.171886444,-10.34536839,14.9527483,18.65518601
33.7942648,-4.680361271,-10.93400288,14.81875038,19.00140951
33.79659621,-4.863411903,-11.48614693,14.49631786,19.12400529
33.79891464,-5.021338463,-12.06221867,13.99382496,19.14518467
33.80122022,-5.036293507,-12.69811153,13.1395874,18.95402453
33.80355162,-4.854438782,-13.13300705,12.15254784,18.53984544
33.80587011,-4.385445595,-13.50269794,11.30070305,18.14554695
33.80817569,-3.592225075,-14.13440323,10.25324535,17.8273519
33.81050704,-2.55254364,-14.99462318,9.429515839,17.89608819
33.81282553,-1.572084427,-15.93859196,8.581260681,18.16998068
33.8151311,-0.9068797827,-16.8664093,7.735397339,18.57779765
33.81746251,-0.6448656917,-17.62493324,7.247261524,19.06769318
33.819781,-0.5982056856,-18.19083595,6.86082077,19.45084122
33.82208652,-0.8470591903,-18.46541214,6.674778938,19.65303103
33.82441792,-1.341177106,-18.5108757,6.602993965,19.69900517
33.82673642,-1.704287887,-18.3224411,6.613163471,19.55378163
33.82904194,-2.248655081,-17.73081589,6.541976929,19.03249179
33.83137334,-2.599203587,-16.86999702,6.479763508,18.25760099
33.83369183,-3.000599623,-15.856637,6.173482418,17.27855377
33.8359974,-3.248256683,-14.66740417,5.852844238,16.12264564
33.83832881,-3.273381472,-13.43869019,5.600401402,14.92239646
33.84064725,-3.142972469,-12.15434265,5.319842815,13.63477352
33.84295282,-2.97726965,-10.91186905,4.983651161,12.36000807
33.84528423,-2.769692183,-9.783653259,4.590630054,11.15638607
33.84760272,-2.666800737,-8.711071014,4.335196495,10.08902934
33.84990824,-2.584248543,-7.744370461,4.071387768,9.123037472
33.85223964,-2.606980324,-6.836892605,3.907479286,8.295049202
33.85455813,-2.704487801,-6.017949104,3.843471289,7.635590169
33.85686371,-2.771486759,-5.25643301,3.75134778,7.027363447
33.85919506,-2.767299414,-4.637290478,3.623331785,6.503148641
33.86151355,-2.906083107,-4.112065792,3.727419376,6.264827157
33.86381912,-3.163909674,-3.608376503,3.936193228,6.206796479
33.86615053,-3.355933666,-3.06999135,4.173680782,6.173066413
33.86846902,-3.530011654,-2.516052961,4.48833704,6.239925814
33.87077454,-3.733401537,-1.944168448,4.777868748,6.367582568
33.87310595,-3.759124279,-1.377667665,4.940580368,6.359112982
33.87542444,-3.635295868,-1.024128079,5.044070244,6.301337873
33.87772996,-3.472583771,-0.7417750359,5.252843857,6.340460301
33.88006136,-3.317648649,-0.4971089065,5.347958565,6.31304765
33.88237985,-3.076571703,-0.2943171859,5.5154562,6.322355031
33.88468542,-2.871387243,-0.1692921966,5.707480431,6.391311087
33.88701678,-2.757129908,-0.0652044192,5.989234924,6.593705477
33.88933527,-2.683550596,-0.0580259487,6.285346985,6.834500533
33.89164084,-2.748156786,-0.09750752151,6.73400116,7.2738329
33.89397225,-2.90967226,-0.2297109663,7.138388157,7.712038983
33.89629074,-3.150749207,-0.5862415433,7.406384468,8.070032875
33.89859626,-3.465405464,-1.17906332,7.550551891,8.391070206
33.90092767,-3.800998688,-1.965105653,7.286743164,8.450198648
33.90324616,-4.022933006,-2.821736097,6.833303452,8.416663272
33.90555173,-4.042075634,-3.720839262,6.20458889,8.287336336
33.90788308,-3.915256023,-4.661218643,5.286941528,8.062750132
33.91020157,-3.787838221,-5.673980713,3.950550079,7.883439696
33.91250714,-3.668197155,-6.7202425,2.590230465,8.082488694
33.91483855,-3.665804386,-7.726424217,1.36211431,8.659740664
33.91715699,-3.548556089,-8.787042618,0.3218346536,9.481980059
33.91946256,-3.335594654,-9.936196327,-0.5413761139,10.4951073
33.92179397,-3.223132133,-11.34616661,-1.045065284,11.8412938
33.92411246,-3.226721287,-12.85902882,-1.076770186,13.30134529
33.92641798,-3.410370588,-14.53400517,-0.6753742099,14.94403105
33.92874938,-3.730410576,-16.2640152,0.2787638307,16.68867468
33.93106787,-4.308875561,-17.93659782,1.721635938,18.52706076
33.93337345,-5.130809784,-19.69651985,3.435495138,20.64172304
33.93570485,-6.017350674,-21.46122551,5.658427238,22.99588025
33.93802329,-6.927819729,-23.25584412,7.824530125,25.49612213
33.94032886,-7.926225185,-24.80758858,9.515059471,27.72684355
33.94266027,-8.699705124,-26.12962341,10.8867445,29.61356606
33.94497876,-8.970093727,-27.35534668,11.17029476,30.87965444
33.94728428,-8.30668354,-28.36451912,10.1964159,31.26521763
33.94961569,-7.110870838,-28.90649414,8.621937752,30.99173597
33.95193418,-5.682355404,-28.81257629,7.384250641,30.28169205
33.95423975,-4.198805332,-28.12643433,6.271588326,29.12145419
33.9565711,-2.80259347,-26.75175667,4.914259434,27.34338971
33.95888959,-1.654038668,-24.73939323,3.254238844,25.00726878
33.96119516,-0.8327022791,-22.19761658,1.397408366,22.25714099
33.96352657,-0.4348955154,-19.439291,-0.6514459848,19.45506491
33.96584501,-0.4797609448,-16.62533188,-2.461616278,16.81342872
33.96815058,-0.7621139884,-13.93998623,-3.966701746,14.51339921
33.97048199,-1.150349498,-11.34317589,-4.995615482,12.44777559
33.97280048,-1.57028985,-8.986844063,-5.60279417,10.70609541
33.975106,-2.111665964,-7.036095142,-6.270989895,9.658730882
33.9774374,-2.592025042,-5.453841209,-6.772884369,9.073860283
33.97975589,-3.040679455,-4.255036831,-7.167700291,8.872823532
33.98206147,-3.586841106,-3.322434187,-7.446464062,8.908076396
33.98439287,-4.068396568,-1.729412556,-7.386045456,8.607925761
33.98671131,-4.299304008,-0.1980060786,-7.360920429,8.52680309
33.98901688,-4.283750534,0.9888339639,-7.202396393,8.438176642
33.99134829,-4.113262177,1.748555183,-6.490531445,7.880569103
33.99366678,-3.964907169,2.277369022,-5.31027174,7.007559096
33.9959723,-3.837489367,2.513062,-4.066003799,6.129779128
33.99830371,-3.75673151,2.52682066,-2.810968399,5.329108521
34.0006222,-3.666402578,2.338984251,-1.563709617,4.62153037
34.00292777,-3.578466177,1.868196249,-0.3002992272,4.047932439
34.00525912,-3.464807272,1.157527924,0.9696913958,3.779558404
34.00757761,-3.285943747,0.2075773627,1.97527504,3.839560671
34.00988319,-2.964108944,-0.8446664214,2.778067112,4.149344535
34.01221459,-2.531606436,-1.967498422,3.071187973,4.439850983
34.01453308,-1.936989903,-3.245863914,2.64227438,4.611851725
34.0168386,-1.238285661,-4.484747887,1.607976794,4.922591224
34.01917001,-0.4366901219,-5.54058075,-0.4139583111,5.573158421
34.0214885,0.6406782866,-6.668198586,-3.263211966,7.451435659
34.02379402,1.926820397,-8.036294937,-6.32303381,10.40554803
34.02612543,3.020938635,-9.202198029,-9.305686951,13.43139339
34.02844392,3.919443607,-10.2089777,-11.75653553,16.0561948
34.03074949,4.652843475,-10.88195896,-13.5726881,18.00788287
34.03308089,5.2707901,-11.54118156,-14.68774319,19.40901595
34.03539933,5.716453075,-12.21894836,-15.16989708,20.30040178
34.03770491,6.079564095,-12.83390427,-15.0526495,20.69426141
34.04003631,6.326622963,-13.35553932,-14.38325691,20.62218873
34.0423548,6.379863262,-13.83290768,-13.43988705,20.31458968
34.04466032,6.260222435,-14.37189102,-12.32542896,19.94135992
34.04699173,6.104090691,-14.96830177,-11.11585712,19.6181615
34.04931022,5.900700569,-15.55693626,-9.934999466,19.37887374
34.05161574,5.652445316,-16.10788345,-8.683553696,19.15249728
34.05394714,5.455037594,-16.67199135,-7.168896675,18.95008734
34.05626563,5.215754986,-17.12124443,-5.583651543,18.74882064
34.05857121,4.960321426,-17.5950222,-3.732205153,18.65794603
34.06090261,4.792225361,-17.93121529,-1.846660852,18.65218652
34.06322105,4.604987144,-18.02872276,-0.1836491376,18.60845179
34.06552662,4.326821327,-17.87976837,0.7531409264,18.41126615
34.06785803,4.055834293,-17.5824604,1.430907965,18.10083432
34.07017652,3.908077478,-17.19123459,1.903490424,17.73231209
34.07248204,3.798007727,-16.67019653,2.046461582,17.21941695
34.07481345,3.698107481,-16.1007061,1.984248161,16.63868915
34.07713194,3.49531579,-15.48694611,1.49132669,15.94637224
34.07943751,3.342773199,-14.75713539,0.8548358679,15.15512857
34.08176892,3.221935749,-14.00638771,0.4001995921,14.37775804
34.08408735,3.09272337,-13.31904888,0.03170489892,13.67344164
34.08639293,2.874976397,-12.59462166,-0.2524427772,12.9210569
34.08872433,2.658426046,-11.89890862,-0.4600201547,12.20093742
34.09104282,2.475374937,-11.249856,-0.537786901,11.5315201
34.09334834,2.269592285,-10.80897808,-0.685543716,11.06593993
34.09567975,2.015354872,-10.32024384,-0.9152546525,10.55494098
34.09799824,1.693520188,-9.838089943,-1.083948612,10.04146249
34.10030381,1.451845169,-9.550951958,-0.993021369,9.711571919
34.10263516,1.202393413,-9.330811501,-0.9254241586,9.453369931
34.10495366,0.9367900491,-9.187840462,-0.9379864931,9.28298479
34.10725923,0.694516778,-9.064012527,-0.9170492887,9.136720202
34.10959063,0.433100909,-8.935996056,-0.8967102766,8.991311986
34.11190907,0.2165504545,-8.868997574,-0.8177471161,8.909249262
34.11421464,-0.007776673418,-8.873783112,-0.7914260626,8.909009058
34.11654605,-0.1974078715,-8.92642498,-0.7543373108,8.96041615
34.11886454,-0.4169493318,-8.935996056,-0.7375875711,8.97607418
34.12117006,-0.6029912829,-8.964710236,-0.6574280262,9.008986608
34.12350147,-0.7286145091,-8.938388824,-0.5539384484,8.985127806
34.12581996,-0.8961120844,-8.941978455,-0.4313062727,8.997111795
34.12812553,-0.9571290612,-8.996415138,-0.3744767308,9.054933142
34.13045694,-0.9146564603,-8.976076126,-0.3984049559,9.031349045
34.13277537,-0.865005374,-8.883952141,-0.3457628787,8.932658725
34.13509386,-0.7387840152,-8.986245155,-0.2823530734,9.0209826
34.13741235,-0.5156532526,-9.03828907,0.01674975827,9.053002162
34.13973084,-0.2691925466,-9.17109108,0.09571290761,9.175540157
34.14204928,-0.03050848842,-9.281160355,-0.2213360965,9.283849307
34.14436777,0.2183450609,-9.161520004,-0.7393822074,9.193900663
34.14668626,0.4701896608,-8.949754715,-1.273579836,9.052137503
34.14900475,0.7639086246,-8.867202759,-1.843669891,9.089002136
34.15132319,1.095314622,-8.67816925,-2.218744755,9.024032577
34.15364168,1.521835208,-8.562117577,-2.244467735,8.981284719
34.15594725,1.921436548,-8.523832321,-2.169692039,9.003066111
34.15827866,2.342573404,-8.456234932,-1.99501586,8.99864699
34.16059709,2.825923443,-8.395816803,-1.833500385,9.046397446
34.16290267,3.178864956,-8.33898735,-1.335195065,9.023670999
34.16523407,3.527020693,-8.24865818,-1.036690354,9.030778684
34.16755256,3.501297712,-8.137989998,-0.6179464459,8.880755862
34.16985813,3.534797192,-8.108677864,-0.708275497,8.873956393
34.17218949,3.474976778,-7.961519241,-0.8721838593,8.730518709
34.17450798,3.394817114,-7.719245911,-1.184447169,8.515542012
34.17682647,3.403790236,-7.37288475,-1.048654556,8.188094643
34.17914496,3.361317635,-7.089933395,-0.8129615188,7.888378681
34.18146339,3.263810158,-6.933203697,-0.4761717021,7.677793286
34.18378188,3.220141172,-6.813562393,-0.1435693651,7.537542956
34.18610037,3.119642496,-6.762116909,0.37986058,7.456721026
34.18841886,2.939582586,-6.938587666,0.6801598072,7.566225078
34.1907373,2.742773056,-7.211967468,0.5611169338,7.736286642
34.19305579,2.485544443,-7.439285755,0.6939185858,7.87416197
34.19537428,2.254039049,-7.578667641,0.8835497499,7.955976081
34.19769277,2.128415823,-7.739584923,1.055832982,8.096055334
34.20001121,1.953141451,-7.950751305,0.9601200819,8.243241984
34.2023297,1.684547186,-8.10090065,0.9876375198,8.332929763
34.20464819,1.44347024,-8.240283012,1.177268744,8.44818514
34.20696668,1.144367456,-8.276175499,1.174875975,8.437119847
34.20928511,0.8668000102,-8.220541954,1.091127157,8.337818105
34.21159069,0.6412764788,-8.163712502,1.026520967,8.252949935
34.21392209,0.4121637046,-8.111668587,0.8620143533,8.167748461
34.21624058,0.1878365725,-8.06441021,0.7166503668,8.098369117
34.2185461,0.03469592705,-8.034500122,0.6957131624,8.064639659
34.22087751,-0.1028913707,-8.037490845,0.6610172391,8.065282977
34.223196,-0.2410768867,-8.05065155,0.6741777658,8.08242687
34.22550157,-0.366101861,-8.201997757,0.7076773047,8.240607074
34.22783292,-0.4815555513,-8.363512993,0.6747759581,8.404496887
34.23015142,-0.5790630579,-8.452646255,0.6789634228,8.499619643
34.2324699,-0.6634100676,-8.507680893,0.6741777658,8.560097123
34.23478839,-0.7531409264,-8.566903114,0.7357929349,8.631363824
34.23710688,-0.8147560954,-8.61655426,0.8739784956,8.699004151
34.23942532,-0.9032905698,-8.560322762,1.010967612,8.667013046
34.24174381,-0.94277215,-8.536993027,1.144367456,8.664793485
34.2440623,-1.000798106,-8.528617859,1.1820544,8.668112369
34.24638079,-1.013360381,-8.577073097,1.148554921,8.712764233
34.24869923,-1.026520967,-8.625527382,1.177866936,8.765890624
34.25101772,-1.046261668,-8.58784008,1.091127157,8.719874953
34.25333621,-1.082154036,-8.468797684,1.008574724,8.597023586
34.2556547,-1.070788145,-8.314460754,0.9170492887,8.43313846
34.25797313,-1.070189953,-8.146365166,0.8775677085,8.263092462
34.26029162,-1.104287624,-7.917252064,0.8183453679,8.035671754
34.26261011,-1.041476011,-7.74736166,0.7268198729,7.850767612
34.2649286,-0.9613165259,-7.543971539,0.7645068169,7.643304698
34.26724704,-0.8303094506,-7.421339512,0.6837490797,7.498880366
34.26956553,-0.7417750359,-7.284350395,0.5072783828,7.339572347
34.27188402,-0.6329016089,-7.210172653,0.3595215976,7.246820676
34.27420251,-0.4253242314,-7.234699249,0.1423729509,7.248589103
34.276521,-0.2195414752,-7.355536938,-0.07956135273,7.359242632
34.27883944,-0.06161518395,-7.539186001,-0.2249253243,7.542792148
34.28115792,0.1184447184,-7.626523972,-0.37986058,7.636896693
34.28347642,0.2410768867,-7.724629879,-0.4923232496,7.744056238
34.2857949,0.3014956415,-7.847859859,-0.4911268353,7.868990378
34.28811334,0.3056831062,-8.030312538,-0.3894318938,8.04555895
34.29043183,0.1447657645,-8.143971443,-0.1944168359,8.147577916
34.29275032,-0.05862415582,-8.321041107,0.1866401732,8.323340462
34.29506881,-0.3080759048,-8.575876236,0.6442674994,8.605558935
34.29738725,-0.590429008,-8.715856552,1.148554921,8.811012442
34.29970574,-0.9074779749,-8.981459618,1.719841242,9.189558588
34.30201131,-1.228116274,-9.242876053,2.157727718,9.570518075
34.30434272,-1.520638824,-9.498309135,2.600998163,9.96470824
34.30666116,-1.783849239,-9.754341125,2.858226538,10.31982305
34.30896673,-1.980060697,-9.917053223,2.94317174,10.53237128
34.31129813,-2.119442701,-10.04566765,2.866601467,10.65949717
34.31361662,-2.129612207,-10.13719273,2.647658348,10.69149284
34.31593506,-2.038684845,-10.2029953,2.205584288,10.63588036
34.31825355,-1.842473388,-10.26640511,1.711466432,10.56990536
34.32057204,-1.541576028,-10.28016472,1.118644595,10.45512358
34.32289053,-1.13120687,-10.2711916,0.4731806815,10.34412421
34.32520897,-0.5736792088,-10.2592268,-0.09032905847,10.27565091
34.32752746,0.07058826834,-10.27896786,-0.628115952,10.29838301
34.32983303,0.8045865893,-10.30110168,-1.083948612,10.38917707
34.33216444,1.627119422,-10.44048309,-1.509871125,10.67384259
34.33448292,2.407777786,-10.44706345,-1.87956214,10.8844514
34.33678845,3.182454109,-10.41954613,-2.168495417,11.10843499
34.33911985,4.003790379,-10.42014408,-2.357528448,11.40910516
34.34143834,4.764110088,-10.46500969,-2.416750908,11.74963224
34.34374392,5.419743061,-10.37707329,-2.325823545,11.93594236
34.34607527,6.035296917,-10.28076267,-2.134995937,12.11103206
34.34839376,6.497111797,-10.27896786,-1.944766641,12.31469688
34.35069933,6.906284332,-10.34596729,-1.668993831,12.55075069
34.35303074,7.110870838,-10.3788681,-1.433300734,12.66253285
34.35534918,7.188039303,-10.50150013,-1.173679471,12.77994278
34.35765475,7.134799004,-10.5601244,-0.8925228715,12.77568711
34.35998616,6.933801651,-10.60738277,-0.6221339107,12.68783769
34.36230464,6.650850773,-10.61815071,-0.4193421602,12.53613929
34.36462308,6.31226635,-10.67916775,-0.2267199457,12.40728545
34.36694157,6.01316309,-10.78205872,-0.04187439755,12.3455528
34.36926006,5.919245243,-11.60459137,0.08733802289,13.02734175
34.37157855,5.375475883,-11.47298622,0.2817548811,12.67298464
34.37389699,5.033900738,-11.0440731,0.3756731451,12.143016
34.37621548,4.723432064,-10.98963642,0.2769692242,11.96493339
34.37853397,4.515256405,-11.23430252,0.2482553422,12.1102735
34.38085246,4.284946918,-11.38385391,0.314057976,12.16764285
34.38317089,4.077968121,-11.50349522,0.394217521,12.21129124
34.38548938,3.923630953,-11.68953705,0.509073019,12.34096072
34.38780787,3.750749588,-11.8713913,0.641874671,12.466357
34.39012636,3.660420418,-12.1034956,0.8003991842,12.67019819
34.39244485,3.559323788,-12.30269718,0.9870393276,12.84520885
34.39476329,3.454637766,-12.54437256,1.17906332,13.06468504
34.39708178,3.403790236,-12.86680603,1.39561379,13.38238481
34.39938735,3.332005501,-13.08993626,1.601396561,13.60195437
34.40171871,3.273979664,-13.30170155,1.774278045,13.81311947
34.4040372,3.145365477,-13.34776306,1.906481385,13.84524373
34.40635569,3.02512598,-13.33579922,2.039283037,13.82583102
