Time (s),Acceleration x (m/s^2),Acceleration y (m/s^2),Acceleration z (m/s^2),Absolute acceleration (m/s^2)
40.00084204,2.37248373,-11.76371479,0.8817551732,12.03291972
40.00316053,2.519043922,-11.89472103,0.888933599,12.19098739
40.00547897,2.53818655,-11.85643578,0.7788637877,12.15006539
40.00779746,2.562713146,-11.87498093,0.7220342159,12.16979885
40.01011595,2.562114954,-11.98564816,0.5706881881,12.26971392
40.01243444,2.571087837,-12.12024498,0.4378865361,12.39768429
40.01475287,2.516651154,-12.18903828,0.3236292601,12.45033827
40.01707136,2.457428932,-12.2482605,0.195015043,12.49387342
40.01938985,2.301297188,-12.24706459,0.05024927482,12.46150412
40.02170834,2.100898266,-12.18485069,-0.123828575,12.36526156
40.02402678,1.818545222,-12.10110188,-0.3367897868,12.24161757
40.02634527,1.53918314,-11.96351528,-0.4833501875,12.07180227
40.02866376,1.281356573,-11.92642593,-0.5479564071,12.00757121
40.03098225,1.037886858,-12.28295708,-0.5144568682,12.33745961
40.03328782,0.6191428304,-12.38824081,-0.3314059377,12.40812952
40.03561918,0.4875376225,-11.94975662,-0.2261217386,11.96183545
40.03793766,0.3487538993,-11.80379391,-0.0466600433,11.80903709
40.04025616,0.2075773627,-11.73440266,0.0951147005,11.73662391
40.04257464,0.09272187948,-11.77029419,0.2991028428,11.77445902
40.04489308,0.02991028316,-11.83908844,0.5563312769,11.85219027
40.04721157,0.0382851623,-11.8528471,0.775872767,11.87827549
40.04953006,0.09810572863,-11.98086262,0.8727820516,12.01301138
40.05184855,0.2434697002,-12.09691525,0.970289588,12.13820818
40.05416704,0.4097708762,-12.29432297,1.116850019,12.35174657
40.05648548,0.5934200287,-12.60180092,1.216152072,12.67424789
40.05880397,0.7794619799,-12.60718441,1.241874933,12.69215951
40.06112246,1.000199914,-12.82313633,1.216750264,12.91950875
40.06344095,1.197009563,-13.2269249,1.154536963,13.33106634
40.06575938,1.347159147,-13.67498112,1.087537885,13.78414615
40.06806496,1.417149186,-14.11526108,0.9523434043,14.21815266
40.07039636,1.526022673,-14.45384502,0.9320043921,14.56403149
40.07271485,1.585843205,-14.71645737,0.9008977413,14.82904693
40.07502037,1.655833244,-14.85883045,0.9744769931,14.98253088
40.07735178,1.756331801,-14.89472294,0.9990034699,15.03115035
40.07967027,1.909472466,-14.90549088,1.086939692,15.06655837
40.08198876,2.073979139,-14.81037617,1.08335042,14.99407482
40.08430725,2.21216464,-14.60100365,0.9822536707,14.80026358
40.08662569,2.39162612,-14.34736443,0.9439685345,14.57593284
40.08894418,2.562114954,-14.10329628,0.8859425783,14.36148646
40.09126266,2.656033039,-13.84128284,0.8518448472,14.11953476
40.09358116,2.729014158,-13.52782249,0.8404789567,13.82591424
40.09589959,2.858824968,-13.24128246,0.9349954724,13.57861031
40.09821808,2.944966555,-12.93141174,1.063011408,13.30504532
40.10053657,3.023929596,-12.65085316,1.137787223,13.05690605
40.10285506,3.086741209,-12.51506042,1.180259824,12.94402264
40.1051735,3.068794966,-12.53958702,1.089930773,12.95556615
40.10749199,3.208775282,-12.18126202,0.8925228715,12.62837995
40.10981048,3.366701365,-11.95693493,0.7202396393,12.44273748
40.11212897,3.499503136,-11.90608692,0.6209374666,12.42525619
40.11444746,3.62153697,-12.02812099,0.6514459848,12.57837853
40.11676589,3.735794306,-12.21236897,0.6825526357,12.78921393
40.11908438,3.855435371,-12.4301157,0.7040880919,13.03333796
40.12140287,3.882354736,-12.69870949,0.6442674994,13.29454706
40.12372136,3.882354736,-12.85244846,0.5503492355,13.43729862
40.12603985,3.901497364,-12.84706497,0.5264210105,13.43673618
40.12835829,3.862015724,-12.65145111,0.6155536175,13.24210281
40.13067678,3.80159688,-12.41216946,0.8703892231,13.01044453
40.13299527,3.733401537,-12.28834057,1.241276741,12.90280469
40.13531376,3.638286829,-12.07358456,1.663609982,12.71912628
40.1376322,3.497110367,-11.90369415,2.118844509,12.58639017
40.13995069,3.353540897,-11.84327602,2.575275421,12.57543109
40.14226918,3.170490026,-11.88574791,3.002992392,12.66258164
40.14457475,2.992822886,-11.96590805,3.412763357,12.79792554
40.1469061,2.806781054,-12.1034956,3.807579041,12.99500995
40.14922459,2.62253356,-12.27517986,4.174279213,13.22808867
40.15153017,2.425125837,-12.48574829,4.503890514,13.49296763
40.15386157,2.199602127,-12.69212914,4.722833633,13.71982321
40.15618006,1.963909149,-13.13061428,4.652245522,14.06816829
40.15848558,1.775474429,-13.58166122,4.515854359,14.42243986
40.16081699,1.58703959,-13.94656658,4.268197536,14.67115961
40.16313548,1.381256819,-14.18285847,3.886542082,14.77046222
40.16544105,1.256830096,-14.35035515,3.324228764,14.78386998
40.1677724,1.109073281,-14.46580887,2.474178553,14.71771821
40.17009089,0.9643075466,-14.61536026,1.348355532,14.70906888
40.17239647,0.866201818,-14.68654728,0.1220339537,14.71257519
40.17472787,0.8093722463,-14.69970798,-1.085145116,14.76191174
40.17704636,0.8380861282,-14.71107388,-2.258226395,14.90696714
40.17935188,0.8578268886,-14.74158192,-3.45583415,15.16551661
40.18168329,0.890130043,-14.76192093,-4.427918434,15.437393
40.18400178,0.9439685345,-14.75234985,-5.262415409,15.69126887
40.18630735,1.002592683,-14.80020618,-5.895915031,15.96286657
40.18863871,1.05224371,-14.8767767,-6.467201233,16.25578031
40.1909572,1.045663476,-15.04128361,-6.938587666,16.59751859
40.19326277,1.010967612,-15.23031616,-7.376473904,16.952786
40.19559418,0.9379864931,-15.46780396,-7.632505894,17.27390877
40.19791261,0.8392825127,-15.65264893,-7.765307903,17.49313638
40.20021819,0.7339983582,-15.85185146,-7.69352293,17.63548251
40.20254959,0.5928218365,-16.0133667,-7.469794273,17.6798523
40.20486808,0.3894318938,-16.15693665,-7.150950432,17.67298365
40.20717366,0.2231307179,-16.33280945,-6.640082836,17.63238928
40.20950506,0.02811566554,-16.53799438,-6.053841114,17.61121918
40.2118235,-0.2033899277,-16.67677689,-5.229514122,17.4786748
40.21414199,-0.4480560422,-16.78086472,-4.18145752,17.2997908
40.21646048,-0.6580262184,-16.89930916,-3.133401155,17.19993754
40.21877897,-0.8757730722,-16.92622948,-2.080559254,17.07609293
40.22108449,-1.161715388,-16.79163361,-0.6675975323,16.84500603
40.22341589,-1.326820135,-16.60499191,0.9080761671,16.68264998
40.22573438,-1.559522152,-16.41596031,2.502892494,16.67873896
40.22803996,-1.723430514,-16.28734589,4.08873558,16.88092436
40.23037131,-1.861616015,-16.22453308,5.728417397,17.30652633
40.2326898,-1.984248161,-16.18146324,7.182057381,17.81457105
40.23499537,-2.099103689,-16.10549164,8.243872643,18.21413005
40.23732678,-2.036890268,-15.89552116,9.321240425,18.53920274
40.23964527,-1.894517303,-15.67059517,9.840482712,18.60085613
40.24195079,-1.663609982,-15.66999722,9.618548393,18.46165984
40.2442822,-1.393819213,-15.83390522,8.639286041,18.09122853
40.24660069,-1.250848055,-16.21257019,6.897909641,17.66332954
40.24891918,-1.188036442,-16.58106422,4.381856441,17.19138701
40.25123767,-1.276570916,-16.67976761,1.439282775,16.79034889
40.2535561,-1.581057549,-16.4273262,-0.8267202377,16.52392978
40.25586168,-2.017149448,-15.96132374,-3.238087177,16.41090966
40.25819308,-2.48195529,-15.45942879,-6.460621357,16.93793579
40.26051157,-2.686541557,-14.97847176,-8.779864311,17.56866924
40.26281709,-2.727817774,-14.25224972,-10.16351414,17.71622509
40.2651485,-2.568695068,-13.55294704,-10.83051395,17.53797595
40.26746699,-2.420340061,-13.31007576,-11.08355427,17.48889184
40.26977256,-2.112264156,-12.98644638,-11.29831028,17.34246997
40.27210397,-1.694716692,-12.76391411,-10.60917759,16.68365119
40.2744224,-1.224527001,-12.50070381,-9.371489525,15.67137129
40.27672798,-0.7280163169,-12.31346512,-7.63190794,14.50508358
40.27905938,-0.2446661144,-12.35115242,-5.839085579,13.66403118
40.28137787,0.08494520187,-12.44207954,-4.403990269,13.19877606
40.28368339,0.2207378894,-12.47498131,-3.386442184,12.92833611
40.2860148,0.2871387303,-12.30927753,-2.672184706,12.59925923
40.28833329,0.2572284341,-11.91984558,-2.002194405,12.08956854
40.29063886,0.04426721856,-11.46281719,-1.835893154,11.60898967
40.29297022,-0.2338984162,-10.86461163,-1.800000787,11.01519392
40.29528871,-0.4875376225,-10.15454102,-1.688136339,10.30544519
40.29759428,-0.7633104324,-9.324830055,-1.481755376,9.472628852
40.29992569,-1.043270707,-8.553144455,-1.179661512,8.696912965
40.30224418,-1.19581306,-8.219944,-1.106680512,8.379868137
40.3045497,-1.275972724,-8.025527,-1.252642632,8.222305248
40.3068811,-1.384247899,-7.79820919,-1.574477315,8.075096757
40.30919959,-1.417747378,-7.545167923,-1.824527264,7.89103709
40.31150516,-1.398006678,-7.338787079,-1.983649969,7.729623902
40.31383657,-1.24366951,-7.214360237,-1.959123492,7.578381908
40.31615501,-0.8422735929,-7.290930748,-1.816750646,7.560931086
40.31846058,-0.3565305769,-7.443472862,-1.816152334,7.670124615
40.32079199,0.1082752272,-7.518846989,-1.820937991,7.736963147
40.32311048,0.3559323549,-7.608577728,-1.546361685,7.772282634
40.325416,0.6550351977,-7.812565804,-1.275374413,7.943036915
40.32774741,1.132403374,-7.935796261,-1.513460279,8.157803731
40.33006589,1.644467354,-7.99202776,-2.142772675,8.436127982
40.33237147,1.965105653,-7.726424217,-2.514258385,8.359471672
40.33470287,2.257628202,-7.311867714,-2.886342287,8.178708111
40.33702131,2.627917528,-6.87158823,-3.497110367,8.145824468
40.33932688,2.917448997,-6.538986206,-3.826123476,8.118440128
40.34165829,3.074178934,-6.285944939,-3.950550079,8.035578748
40.34397678,3.208176851,-6.076572895,-4.089334011,7.996235959
40.3462823,3.29551506,-5.959324837,-4.084548473,7.940875786
40.34861371,3.308077335,-5.906084538,-4.051048756,7.888992727
40.3509322,3.245863914,-5.935994625,-3.918246984,7.818204664
40.35325069,3.127419233,-6.010172367,-3.75673151,7.746996488
40.35556918,2.950948477,-5.961119175,-3.338585854,7.442391701
40.35788761,2.811566591,-5.804389477,-2.530410051,6.928117993
40.36019319,2.754737139,-5.63090992,-1.301097274,6.402232216
40.36252459,2.657229662,-5.496912003,-0.3254238665,6.114148488
40.36484308,2.535793781,-5.411966801,0.2985046208,5.984040421
40.3671486,2.411965132,-5.36111927,0.7639086246,5.928130567
40.36948001,2.314457655,-5.310869694,0.8249256015,5.851713714
40.3717985,2.253440619,-5.250451088,0.5521438122,5.740217247
40.37410407,2.16131711,-5.070989609,0.1256231815,5.513801633
40.37643548,2.000399828,-4.844269276,-0.1686939895,5.24375838
40.37875392,1.908276081,-4.558327198,-0.3098705411,4.951351755
40.38107241,1.816152334,-4.29691124,-0.4701896608,4.688596146
40.38339089,1.706680775,-4.092923164,-0.5300102234,4.4660598
40.38570938,1.546361685,-3.98165679,-0.5174478889,4.302624498
40.38801491,1.292124271,-3.761517286,-0.4498506486,4.002619522
40.39034631,1.015753269,-3.59043026,-0.4582255483,3.759376917
40.3926648,0.6490531564,-3.425923824,-0.4965106845,3.522037324
40.39497037,0.2590230405,-3.286541939,-0.4480560422,3.327041489
40.39730178,-0.1196411327,-3.078964472,-0.3290131092,3.098803938
40.39962022,-0.5294120312,-2.939582586,-0.2715853751,2.999196809
40.40192579,-0.8476574421,-2.817548752,-0.2135594189,2.950035887
40.4042572,-1.073779106,-2.80259347,-0.01495514158,3.001292285
40.40657569,-1.178465128,-2.819941521,0.03230310604,3.056451166
40.40888121,-1.301097274,-2.846860647,-0.04486542568,3.130412523
40.41121261,-1.492523074,-2.832503796,-0.04187439755,3.201945712
40.4135311,-1.529013634,-2.891128063,-0.04187439755,3.270819108
40.41583668,-1.6181463,-2.903092146,-0.2817548811,3.335525037
40.41816808,-1.739582062,-2.910868645,-0.5497509837,3.435335233
40.42048652,-1.844866276,-2.842075109,-0.7178468108,3.463556921
40.42280501,-1.97826612,-2.787040234,-0.8865407705,3.530875903
40.4251235,-2.187638044,-2.758924484,-1.060020447,3.677100471
40.42744199,-2.355135679,-2.840280533,-1.295115232,3.910393975
40.42976048,-2.508874655,-2.912065268,-1.558325768,4.147644555
40.43207892,-2.666800737,-3.050250769,-1.658824325,4.378076526
40.43439741,-2.799602509,-3.259622574,-1.710868239,4.624930666
40.43671589,-2.931207657,-3.488735437,-1.777269006,4.891005868
40.43903438,-3.047259569,-3.789034605,-1.809572101,5.188171673
40.44135287,-3.201596737,-4.085744858,-1.784447432,5.488878332
40.44367131,-3.30927372,-4.405186653,-1.625923038,5.744613801
40.4459898,-3.321835995,-4.678566456,-1.495514154,5.929598725
40.44830829,-3.370290756,-4.838287354,-1.461416483,6.074835177
40.45062678,-3.407977581,-4.886742115,-1.360917926,6.111191152
40.45294522,-3.381656647,-4.982454777,-1.360319614,6.173404793
40.45526371,-3.302693367,-5.100899696,-1.363310695,6.227806776
40.4575822,-3.171088219,-5.207978249,-1.356730461,6.246563493
40.45990069,-2.887538671,-5.441876888,-1.485942841,6.337186266
40.46221912,-2.827120066,-5.487938881,-1.155733347,6.280589192
40.46453761,-2.734996319,-5.470590591,-0.7591229677,6.163102625
40.4668561,-2.542374134,-5.469992638,-0.3619144261,6.042802971
40.46917459,-2.280958176,-5.549553871,0.06101697683,6.000336777
40.47148016,-2.009970903,-5.666802406,0.5509474277,6.037894965
40.47381152,-1.673181176,-5.787639618,1.113260746,6.126635054
40.47613001,-1.369890928,-5.851647854,1.640878081,6.229836646
40.47843558,-1.066002488,-5.949155331,2.11585331,6.403565076
40.48076699,-0.8291130662,-6.010172367,2.524427891,6.571326847
40.48308548,-0.5880361795,-6.065805435,3.003590584,6.794213606
40.485391,-0.4133601189,-6.151947021,3.531208038,7.1054028
40.4877224,-0.2392822653,-6.233901024,4.124029636,7.478395444
40.49004089,-0.0951147005,-6.301498413,4.789234638,7.915472031
40.49234647,0.05324030295,-6.344569206,5.477769375,8.38226403
40.49467787,0.1453639716,-6.403791428,6.128018856,8.864665275
40.49699631,0.2721835673,-6.552744865,6.865008354,9.494255572
40.49930188,0.3224328458,-6.665805817,7.524230957,10.05738443
40.50163329,0.3397808075,-6.832107067,8.279166222,10.73954055
40.50395178,0.3822534084,-7.05523777,9.0921278,11.5147421
40.5062573,0.337986201,-7.241877556,9.822537422,12.20824585
40.50858871,0.3062812984,-7.539186001,10.65464115,13.05582291
40.5109072,0.2279163599,-7.871190071,11.40060329,13.85573291
40.51321277,0.05862415582,-8.166703224,12.05922794,14.56445869
40.51554418,-0.2087737769,-8.456234932,12.45524025,15.05604548
40.51786261,-0.5653043389,-8.747561455,12.63051414,15.3743061
40.52016819,-0.950548768,-9.005986214,12.72921848,15.62191838
40.52249959,-1.490130305,-9.152546883,12.76391411,15.77679011
40.52481808,-1.99501586,-9.333204269,12.58923817,15.79802861
40.5271236,-2.455634356,-9.546165466,12.41516018,15.85230638
40.52945501,-2.857628345,-9.762716293,12.08315659,15.79491508
40.5317735,-3.240479946,-9.940383911,11.64766216,15.6518362
40.53407907,-3.460619688,-10.02293587,11.38863945,15.56072751
40.53641048,-3.427120209,-10.22393322,11.40479088,15.69532473
40.53872892,-3.22492671,-10.49731255,11.50409317,15.90402096
40.54103449,-2.921636343,-10.81675434,11.54716396,16.08959692
40.54336589,-2.533401012,-11.23968601,11.53938675,16.30662776
40.54568438,-2.43708992,-11.526227,11.1750803,16.2380952
40.5479899,-2.593221426,-11.8773737,10.4033947,16.00085699
40.55032131,-2.715255499,-11.74098206,10.23888779,15.81322532
40.5526398,-2.644068956,-11.41256714,10.49013424,15.72516155
40.55495829,-2.678765059,-11.4382906,10.05583763,15.46383343
40.55727678,-2.837289333,-11.3760767,9.37687397,15.01303092
40.55959522,-3.110669374,-11.15773201,8.813961983,14.55531427
40.56190079,-3.493520975,-10.77368355,8.379066467,14.08849534
40.5642322,-3.837489367,-10.30648518,8.019545555,13.6111378
40.56655069,-4.06660223,-9.832706451,7.694121361,13.13083674
40.56885621,-4.090530396,-9.391230583,7.485945702,12.68727842
40.57118761,-4.054637909,-8.891729355,7.320242882,12.21019637
40.5735061,-3.917648792,-8.432905197,7.18445015,11.75066747
40.57581168,-3.669991732,-7.965706348,6.983452797,11.21115203
40.57814308,-3.327219963,-7.549953461,6.83569622,10.71442638
40.58046152,-2.925225735,-7.185048103,6.640082836,10.21139373
40.58276709,-2.574079037,-6.832107067,6.38823843,9.701193746
40.5850985,-2.19780755,-6.54018259,6.079564095,9.195947255
40.58741699,-1.805384636,-6.301498413,5.694917679,8.68333941
40.58972256,-1.479362607,-6.072983742,5.40000248,8.260125425
40.59205392,-1.18743825,-5.860022545,5.162514687,7.899457685
40.5943724,-0.9451649189,-5.739783287,4.887340069,7.597666869
40.59667798,-0.717248559,-5.624329567,4.626522541,7.317939559
40.59900938,-0.5048855543,-5.495117188,4.441078663,7.083389162
40.60132787,-0.3248256743,-5.371288776,4.260420799,6.863486011
40.60363339,-0.1543370634,-5.242674351,4.007977962,6.601010652
40.6059648,-0.04426721856,-5.023731232,3.816552162,6.309192142
40.60828329,-0.02452643216,-4.79820776,3.567698479,5.979286888
40.61058881,-0.1154536903,-4.493721008,3.235096216,5.538294465
40.61292022,-0.3218346536,-4.144368649,2.849253654,5.03960469
40.61523871,-0.5778666735,-3.699303865,2.371885538,4.432225173
40.61754428,-0.8811569214,-3.260818958,1.845464468,3.849041037
40.61987569,-1.161117196,-2.79720974,1.362712502,3.321078264
40.62219412,-1.467996716,-2.349751949,0.7411768436,2.868046669
40.6244997,-1.81495595,-1.888535261,0.1914258152,2.626266242
40.6268311,-2.228316069,-1.447059512,-0.2213360965,2.666151421
40.62914959,-2.746362209,-1.057029366,-0.5910272002,3.001521217
40.63145511,-3.376272678,-0.745962441,-0.9756734371,3.592717052
40.63378652,-4.177269936,-0.6311069727,-1.408176184,4.453183164
40.63610501,-4.987240791,-0.6023930907,-1.654038668,5.288789281
40.63841058,-5.81096983,-0.6221339107,-1.694716692,6.084939246
40.64074199,-6.504290104,-0.7962117195,-1.575673699,6.739620944
40.64306042,-7.018148899,-1.211366415,-1.534397483,7.285341323
40.645366,-7.44048214,-1.903490424,-1.389631748,7.804814326
40.6476974,-7.545167923,-2.745165825,-1.050449133,8.097464898
40.65001589,-7.670193195,-3.727419376,-0.7058826685,8.557089996
40.65232147,-7.666005611,-4.825725079,0.003589233849,9.058436811
40.65465282,-7.644470215,-5.913861275,0.8368897438,9.701137278
40.65697131,-7.800003529,-6.963113785,1.663609982,10.5873796
40.65927688,-8.021938324,-8.234300613,2.600998163,11.78644953
40.66160829,-8.188239098,-9.744172096,3.874577999,13.30445429
40.66392678,-8.312665939,-11.63629627,5.284548759,15.2456637
40.6662323,-8.386843681,-13.60499096,6.687341213,17.32499519
40.66856371,-8.933603287,-15.80040646,8.238488197,19.93325863
40.6708822,-9.425328255,-18.03649902,10.22572803,22.77537318
40.67318777,-9.891928673,-20.26660919,12.71785259,25.8907218
40.67551912,-10.34955597,-22.45364952,15.07657719,28.95829527
40.67783761,-10.4033947,-24.5216465,16.66062546,31.4184374
40.68014319,-9.832706451,-26.40479851,17.00878143,32.91191496
40.68247459,-8.928817749,-28.29572678,16.30529213,33.856085
40.68479303,-7.896913052,-30.17588615,15.08794308,34.64955075
40.6870986,-6.528218269,-31.79343414,13.81436348,35.27430689
40.68943001,-4.896911621,-32.98207092,12.34457207,35.55538223
40.6917485,-3.125026464,-33.61676407,10.50449181,35.35812445
40.69405407,-1.24666059,-33.19802094,8.018348694,34.17538109
40.69638542,0.7351947427,-31.83530807,5.068596363,32.24465879
40.69870392,2.45383954,-29.58127022,2.248056889,29.76787927
40.70100949,3.689732552,-26.45504761,-0.2781656384,26.71256345
40.70334089,4.299902439,-22.64088821,-2.508874655,23.18174782
40.70565933,4.316053867,-18.86920166,-4.324428558,19.833703
40.70796491,3.685544968,-15.85125351,-5.712265968,17.24747698
40.71029631,2.668595552,-12.33799171,-6.934400082,14.40254652
40.7126148,2.06560421,-8.036892891,-8.187641144,11.65743692
40.71492037,1.531406522,-5.38564539,-9.160921097,10.73651981
40.71725173,0.9936196208,-3.885345697,-9.352945328,10.17648158
40.71957022,0.166301176,-2.901895761,-9.362516403,9.80333456
40.72187579,-0.6532405615,-1.99800694,-8.879764557,9.12518348
40.7242072,-1.396211982,-1.197009563,-7.977072716,8.186325727
40.72652569,-1.971685886,-0.5407779217,-6.765107632,7.067295612
40.72883121,-2.365903378,0.06759724021,-5.299503803,5.804033833
40.73116261,-2.670988321,0.5910272002,-4.14197588,4.963814657
40.7334811,-2.843271494,0.9242277741,-3.291925669,4.446927521
40.73578668,-3.004188776,1.003789067,-2.516651154,4.045525395
40.73811803,-3.129812002,0.8386843204,-1.795813441,3.704599907
40.74043652,-3.217149973,0.5156532526,-1.102493048,3.439686489
40.74274209,-3.255435228,0.09870393574,-0.3511467278,3.27580601
40.7450735,-3.208176851,-0.4558327198,0.3355933726,3.257730052
40.74739194,-3.105883837,-1.052842021,0.822532773,3.381057659
40.74969751,-2.882154942,-1.686341763,1.201196909,3.548723667
40.75202892,-2.524427891,-2.426322222,1.266999602,3.723582105
40.75434741,-2.155933142,-3.178266764,0.5503492355,3.879730869
40.75666589,-1.706082582,-3.842274904,-1.081555843,4.340916638
40.75898433,-1.159920812,-4.453042984,-2.989831924,5.487631825
40.76130282,-0.4510470629,-5.242076397,-5.024329185,7.275073345
40.76360839,0.2470589429,-6.13220644,-7.101299286,9.38581086
40.7659398,0.7357929349,-6.945167542,-8.917451859,11.32685707
40.76825829,1.202991605,-7.815557003,-10.22871876,12.92891362
40.77056381,1.648654819,-8.570492744,-11.05842972,14.087593
40.77289522,1.928016901,-9.236893654,-11.53819084,14.90527764
40.77521371,2.240280151,-9.984650612,-11.85404301,15.6598352
40.77751928,2.580659151,-10.82632637,-11.66860008,16.12530224
40.77985063,2.882753134,-11.65304661,-11.02971554,16.30209759
40.78216912,3.071786165,-12.53121185,-10.26401234,16.4868763
40.7844747,3.253640652,-13.40399456,-9.273384094,16.62073705
40.7868061,3.376272678,-14.25404453,-8.111668587,16.74443699
40.78912454,3.424129248,-14.99462318,-6.86082077,16.84144433
40.79143011,3.435495138,-15.6119709,-5.648856163,16.95422774
40.79376152,3.430709362,-16.18086433,-4.366302967,17.10715461
40.79608001,3.380460262,-16.68455315,-2.970689297,17.28082232
40.79838558,3.353540897,-17.02313805,-1.489532113,17.41413711
40.80071694,3.333800077,-17.1936264,-0.1962114573,17.51495106
40.80303543,3.426522017,-17.42094612,0.8847461939,17.7767599
40.805341,3.525225878,-17.52323914,1.387238979,17.92806624
40.80767241,3.741776466,-17.47956848,1.57028985,17.94441461
40.80999084,4.03788805,-17.27498245,1.456630826,17.80031831
40.81229642,4.327419758,-16.9914341,0.7369893789,17.54931759
40.81462782,4.536193371,-16.50329781,-0.1381855011,17.11592779
40.81694631,4.700700283,-15.80878067,-0.8709874153,16.51583327
40.8192648,4.709074974,-15.16690636,-1.70548439,15.97244855
40.82158324,4.620540619,-14.4879427,-2.360519648,15.38901986
40.82390173,4.458426952,-13.80060482,-2.834298372,14.77726333
40.8262073,4.177269936,-13.15035534,-3.170490026,14.15745163
40.82853871,3.914657831,-12.46002579,-3.07298255,13.41715358
40.8308572,3.643670797,-11.72542953,-2.575275421,12.54567966
40.83316272,3.299104214,-11.24806118,-2.194816589,11.92561063
40.83549412,2.849851847,-11.03809071,-2.161915302,11.60323144
40.83781261,2.451446772,-10.68156052,-1.825125456,11.11019393
40.84011819,2.039881229,-10.43150997,-1.859223247,10.79046926
40.84244954,1.624726534,-10.28734303,-1.739582062,10.55913389
40.84476803,1.293918848,-10.17428207,-1.295713425,10.33775193
40.8470736,0.965503931,-9.927223206,-0.9373882413,10.01801653
40.84940501,0.6514459848,-9.70827961,-0.6077769399,9.749075221
40.8517235,0.27577281,-9.442676544,-0.3984049559,9.455100077
40.85402902,-0.08733802289,-9.239884377,-0.3984049559,9.248881972
40.85636043,-0.3565305769,-9.164510727,-0.3200400174,9.177025473
40.85867892,-0.5958128572,-9.198608398,-0.1980060786,9.22001062
40.86098449,-0.8937192559,-9.301499367,-0.1573280841,9.345660849
40.86331584,-1.219741344,-9.223134995,-0.1842473447,9.305263841
40.86563433,-1.484148264,-8.960522652,-0.1555334777,9.08393378
40.8679399,-1.596012712,-8.751749039,-0.06161518395,8.896300593
40.87027131,-1.65164578,-8.541180611,0.2123630047,8.701999658
40.87258975,-1.619342685,-8.236693382,0.5970092416,8.415569419
40.87489532,-1.570888042,-8.139185905,0.7633104324,8.324462701
40.87722673,-1.475175142,-8.122436523,0.7453642488,8.288889228
40.87954522,-1.324427366,-8.181658745,0.589232564,8.30908194
40.88186371,-1.1395818,-8.292924881,0.4869394004,8.385008035
40.88418214,-0.9056833982,-8.422736168,0.2709871531,8.475622751
40.88650063,-0.6305087805,-8.469395638,-0.03649054468,8.492910888
40.88881912,-0.3296113312,-8.535198212,-0.3816552162,8.550082622
40.89113761,0.02811566554,-8.609375954,-0.7740781307,8.644150725
40.8934561,0.5294120312,-8.824131966,-1.374078393,8.946154116
40.89576162,1.017547846,-9.053842545,-1.97826612,9.32314353
40.89809303,1.449452281,-9.174081802,-2.541775942,9.629398412
40.90041152,1.729412556,-9.249456406,-2.691327333,9.78706056
40.90271709,2.428116798,-9.506684303,-2.735594511,10.18608241
40.90504845,3.055036306,-9.622138023,-2.605185747,10.42620639
40.90736694,3.614956856,-9.675976753,-2.633301258,10.65958323
40.90967251,4.228117466,-9.791430473,-2.612364054,10.98059807
40.91200392,4.480560303,-9.69811058,-2.209771633,10.90925571
40.91432235,4.540380955,-9.556933403,-1.862214208,10.74327124
40.91662792,4.706682205,-9.384052277,-1.690529227,10.63349348
40.91895933,4.766502857,-9.190233231,-1.476969719,10.45759895
40.92127782,4.842474937,-9.058628082,-1.310070395,10.35493074
40.92358339,4.82333231,-8.929415703,-1.10608232,10.20893812
40.92591475,4.672584534,-8.68774128,-0.9182456732,9.907223117
40.92823324,4.476971149,-8.485547066,-0.9355936646,9.639663645
40.93055173,4.198805332,-8.242077827,-0.9732806087,9.301026195
40.93287022,3.957130432,-8.041080475,-0.6478567123,8.985408993
40.93518871,3.779463291,-7.876574039,-0.4073780477,8.745897223
40.93750714,3.454637766,-7.749155998,-0.1680957973,8.486000057
40.93982563,3.127419233,-7.694121361,0.0005982056609,8.305435265
40.94214412,2.758924484,-7.692924976,0.1262213886,8.173658351
40.94446261,2.357528448,-7.702496052,0.2656033039,8.059586275
40.94678105,2.043470621,-7.771887779,0.4396811724,8.048063827
40.94909954,1.736590981,-7.81196785,0.7136593461,8.034419679
40.95140511,1.405185103,-7.795217991,0.9493523836,7.977545904
40.95373652,1.040279627,-7.770093441,1.194616675,7.92992073
40.95605496,0.7148557901,-7.77248621,1.382453322,7.926773484
40.95836053,0.4283152521,-7.850851059,1.570888042,8.017917781
40.96069194,0.2099701911,-7.946564198,1.784447432,8.147160405
40.96301042,0.02991028316,-8.032107353,1.959721804,8.267777979
40.96531595,-0.1651047617,-8.070392609,2.024926186,8.322188564
40.96764735,-0.3469592929,-8.088936806,2.152343988,8.377581038
40.96996584,-0.4887340367,-8.173283577,2.223530531,8.484427701
40.97227142,-0.5712863803,-8.319246292,2.271985054,8.64280875
40.97460282,-0.6765705943,-8.499904633,2.329412937,8.839247206
40.97692126,-0.7531409264,-8.684151649,2.358724833,9.030243295
40.97923975,-0.8117650747,-8.829515457,2.359323025,9.175277155
40.98155824,-0.8129615188,-8.964112282,2.379063845,9.310003234
40.98387673,-0.8356932998,-8.983852386,2.317448616,9.315500796
40.98619522,-0.8584251404,-9.008378983,2.255235434,9.325978366
40.98851366,-0.8883354068,-8.937192917,2.21156621,9.24951794
40.99083214,-0.9002995491,-8.841479301,2.187039852,9.152346083
40.99315063,-0.9080761671,-8.71705246,2.132603168,9.019955775
40.99546912,-0.8117650747,-8.541778564,2.06560421,8.82539882
40.99778756,-0.7004988194,-8.404789925,1.980060697,8.66324608
41.00010605,-0.5659025311,-8.238488197,1.874776483,8.468041114
41.00242454,-0.3409772217,-8.14696312,1.604387641,8.310435202
41.00474303,-0.02572284266,-8.097311974,1.316052437,8.203603896
41.00706152,0.3194418252,-8.070392609,1.042074203,8.143660024
41.00937996,0.6963114142,-8.004590034,0.7345965505,8.068329647
41.01169845,0.9960124493,-7.825128078,0.3595215976,7.896450217
41.01400402,1.271785259,-7.666005611,-0.06819544733,7.771082962
41.01633542,1.549352646,-7.583453178,-0.4773681164,7.754813734
41.01865386,1.799402595,-7.568498135,-0.8231309652,7.822886826
41.02095944,2.001596212,-7.530810833,-1.135992527,7.874641466
41.02329084,2.146361828,-7.532605648,-1.354935765,7.948765179
41.02560933,2.311466694,-7.591229916,-1.49132669,8.074261898
41.02791485,2.447857618,-7.698906898,-1.541576028,8.224453234
41.03024626,2.525026083,-7.749754429,-1.512263894,8.2898367
41.03256475,2.643470764,-7.919644833,-1.39022994,8.464127317
41.03488324,2.699103832,-8.105088234,-1.183250785,8.624250646
41.03720173,2.69312191,-8.334799767,-0.9385846853,8.809241397
41.03952017,2.644667149,-8.581260681,-0.6221339107,9.001074925
41.04183866,2.558525562,-8.855836868,-0.2823530734,9.22234368
41.04415714,2.400599241,-9.113663673,0.06640082598,9.424762667
41.04647563,2.25703001,-9.404391289,0.4630111754,9.6825172
41.04879407,2.00638175,-9.630513191,0.9439685345,9.882480895
41.05111256,1.708475351,-9.704092026,1.424327731,9.955752084
41.05343105,1.341775298,-9.687342644,1.926222205,9.967712899
41.05573662,1.003190875,-9.66580677,2.467000246,10.02598138
41.05806798,0.5647061467,-9.646066666,2.911466837,10.09168639
41.06038647,0.2129612118,-9.615557671,3.314059258,10.17287032
41.06269204,-0.1597209126,-9.503094673,3.605385542,10.16529016
41.06502345,-0.4067798555,-9.412167549,3.859622955,10.18091632
41.06734188,-0.5389832854,-9.34815979,4.00139761,10.18281775
41.06964746,-0.6305087805,-9.316454887,3.966701746,10.14537312
41.07197886,-0.5874379873,-9.263215065,3.823730469,10.03858314
41.07429735,-0.4899304509,-9.270991325,3.586242914,9.952509746
41.07661584,-0.3110669553,-9.253045082,3.229712248,9.805439671
41.07893433,-0.08434699476,-9.219545364,2.773879766,9.628163901
41.08125277,0.2165504545,-9.237491608,2.209173441,9.500452231
41.08357126,0.6137589812,-9.306285858,1.593021631,9.461573573
41.08588975,1.131805062,-9.37687397,0.9678967595,9.494396889
41.08820824,1.774876237,-9.545567513,0.3595215976,9.715827323
41.09051376,2.525026083,-9.788438797,-0.214157626,10.11114011
41.09284516,3.308077335,-9.987043381,-0.8063812256,10.55152415
41.09516366,4.066003799,-10.20538902,-1.308874011,11.06325012
41.09746918,4.850251675,-10.49970531,-1.709671736,11.69152387
41.09980058,5.525625706,-11.06142044,-2.014158487,12.52774505
41.10211907,5.989833355,-10.70967579,-2.189432621,12.46470514
41.10442464,6.453442574,-10.50628567,-2.301297188,12.54292344
41.10675605,6.712465763,-10.58225822,-2.283949137,12.73804575
41.10907449,6.742375851,-10.70608711,-2.035095692,12.81489555
41.11138006,6.614359856,-10.46800041,-1.670788407,12.49481184
41.11371147,6.440880299,-10.35613632,-1.225125194,12.25705635
41.11602996,6.142375946,-10.4291172,-0.7064808607,12.12412401
41.11834845,5.7571311,-10.45663452,-0.1136590764,11.9372812
41.12066688,5.2707901,-10.44287586,0.4354937077,11.70574813
41.12298537,4.750949383,-10.4159565,0.9218349457,11.48535805
41.12529095,4.191029072,-10.46142101,1.360917926,11.35157046
41.12762235,3.678964853,-10.54038334,1.757528186,11.30147639
41.12994079,3.126821041,-10.67318535,2.054238319,11.30989789
41.13224636,2.650649309,-11.13500023,2.234896421,11.66228682
41.13457777,2.079961061,-11.19182968,2.277967215,11.60915261
41.13689626,1.541576028,-10.99860954,2.066202402,11.29668362
41.13920178,1.049252748,-11.02014446,1.733001828,11.20481194
41.14153319,0.6245267391,-11.26600742,1.325623751,11.3609082
41.14385168,0.2452643216,-11.61655617,0.94277215,11.65733036
41.14615725,-0.05862415582,-11.91266727,0.59940207,11.92788167
41.14848866,-0.2273181528,-12.52702427,0.3972085714,12.53538134
41.15080709,-0.4462614357,-12.88235855,0.2835494876,12.89320408
41.15311266,-0.5862415433,-12.21416283,0.05324030295,12.22833951
41.15544407,-0.6011967063,-11.93181038,-0.1495514214,11.94788274
41.15776256,-0.5647061467,-11.83011532,-0.2979064286,11.84733176
41.16006808,-0.5162515044,-11.67039394,-0.3367897868,11.68666068
41.16239949,-0.3708875179,-11.54237843,-0.3840480447,11.55471982
41.16471798,-0.1561316848,-11.54656601,-0.3535395563,11.55303224
41.16703647,0.02931207791,-11.53759289,-0.290129751,11.5412774
41.16935496,0.2165504545,-11.44187927,-0.1890329868,11.44548945
41.17167339,0.3780659735,-11.26002502,-0.0933200866,11.26675668
41.17399188,0.522831738,-11.18465137,0.03649054468,11.19692417
41.17631037,0.5946164131,-11.249856,0.199800685,11.26733105
41.17862886,0.6604190469,-11.27617645,0.4247260094,11.3034818
41.1809473,0.7046862841,-11.3760767,0.5880361795,11.41304036
41.18326579,0.7507480979,-11.52323532,0.70348984,11.56907399
41.18558428,0.769890666,-11.73380375,0.7722834945,11.78436693
41.18790277,0.8255237937,-12.0598259,0.851246655,12.11798296
41.19022121,0.8093722463,-12.90509033,0.8428717852,12.95788844
41.1925397,0.7345965505,-12.78186035,0.860219717,12.83181843
41.19485819,0.7824530005,-12.78544998,0.8368897438,12.8366798
41.19717668,0.7465606928,-13.04148197,0.8051848412,13.08762498
41.19949516,0.6723831892,-13.51825142,0.8416753411,13.56110755
41.20180069,0.6053841114,-14.04826164,0.8207381964,14.08523185
41.20413209,0.604187727,-14.56690598,0.8769695163,14.60578201
41.20645058,0.6502495408,-15.07418442,0.9385846853,15.11736755
41.20875616,0.6909275651,-15.52523136,0.9182456732,15.56770262
41.21108751,0.7555337548,-15.95115376,0.8075776696,15.98944399
41.213406,0.7752745152,-16.29691696,0.7004988194,16.33037818
41.21571157,0.8165507317,-16.56969833,0.5647061467,16.59941418
41.21804298,0.9756734371,-16.76351738,0.4007977843,16.79666909
41.22036147,1.15393877,-16.78804398,0.2165504545,16.82904897
41.22266699,1.375274777,-16.64387703,0.08853443712,16.70083416
41.22499839,1.594816327,-16.2640152,0.05443671346,16.34211103
41.22731688,1.746162295,-15.67478275,0.06101697683,15.77186166
41.22963537,1.895115495,-14.99402523,0.1860419661,15.11445887
41.23195381,2.052443504,-14.34138298,0.4211367965,14.49362433
41.2342723,2.167897224,-13.70907879,0.6460621357,13.8944599
41.23657787,2.27078867,-13.14975643,0.8243274093,13.36982016
41.23890928,2.368296146,-12.7190485,0.955334425,12.97288269
41.24122777,2.413161755,-12.43968678,0.9918249846,12.71034514
41.24353329,2.467598438,-12.31346512,0.9535398483,12.59443145
41.2458647,2.519642353,-12.11545944,0.94277215,12.41055093
41.24818319,2.657827854,-12.11725426,0.9631111026,12.44264773
41.25050168,2.825923443,-12.34397411,0.9284151793,12.69730266
41.25282011,3.020938635,-12.62752342,0.7651050687,13.00637551
41.2551386,3.25005126,-12.93978691,0.6023930907,13.35529093
41.25745709,3.44985199,-13.22333622,0.3391826153,13.67015524
41.25977558,3.61615324,-13.46979713,0.06640082598,13.94691393
41.26209402,3.690928936,-13.56431293,-0.08554340899,14.05776865
41.26441251,3.780659676,-13.53320694,-0.04187439755,14.0514352
41.266731,3.86620307,-13.55533981,0.06879365444,14.09608088
41.26904949,3.8668015,-13.46321678,0.2925225794,14.01056492
41.27136792,3.806980848,-13.26760292,0.6047859192,13.81622801
41.27368642,3.717848301,-13.08634663,1.02711916,13.64294095
41.2760049,3.536591768,-12.86859989,1.51106751,13.43099659
41.27831048,3.305684566,-12.60419369,2.088934183,13.19685171
41.28064188,3.049054146,-12.45524025,2.724826813,13.10932577
41.28296032,2.764308453,-12.35055447,3.342175007,13.08998589
41.28526589,2.474776745,-12.38465214,3.921238184,13.22422918
41.2875973,2.193022013,-12.53001595,4.406383038,13.46205247
41.28991579,1.8628124,-12.75793171,4.724628448,13.73160608
41.29222131,1.528415442,-13.00080395,4.942973614,13.99249603
41.29455272,1.158126116,-13.25444317,4.979464054,14.20621632
41.29687121,0.8608179688,-13.50150204,4.831109047,14.36562492
41.29917678,0.5635097623,-13.74437332,4.543970108,14.48699436
41.30150819,0.3266202807,-13.83709526,4.065405846,14.42565114
41.30382662,0.1130608693,-14.07458305,3.492922783,14.50197161
41.3061322,0.01674975827,-14.70688629,2.700300455,14.95273913
41.3084636,0.01375873014,-15.07298851,1.872383714,15.18884435
41.31078209,0.0197407864,-15.21954823,0.9672985673,15.25026899
41.31308761,0.09092725813,-15.28654766,-0.02333002165,15.28683589
41.31541902,0.1668993831,-15.30628872,-1.100698471,15.3467217
41.31773751,0.2667997181,-15.35354614,-2.158325911,15.50680276
41.32004308,0.3906283081,-15.4103756,-3.158525944,15.73558237
41.32237449,0.5491527915,-15.54736519,-4.053441525,16.07645861
41.32469292,0.6669993401,-15.64188194,-4.743172646,16.35882164
41.3269985,0.7597211599,-15.71247005,-5.342574596,16.61330776
41.3293299,0.8207381964,-15.91825294,-5.775077343,16.95334499
41.33164839,0.7429714203,-16.11266899,-6.122634888,17.25273215
41.33395392,0.6628118753,-16.326828,-6.188437462,17.47287585
41.33628532,0.5300102234,-16.4016037,-6.046064377,17.48852221
41.33860381,0.3547359705,-16.53021622,-5.803193092,17.52286894
41.34090938,0.1226321608,-16.664814,-5.522634506,17.55649612
41.34324079,-0.09272187948,-16.75992775,-5.085346222,17.51469445
41.34555923,-0.2578266263,-16.84427452,-4.475176334,17.43052673
41.34787772,-0.3960121572,-16.86102486,-3.818346739,17.29250579
41.35019621,-0.5647061467,-16.82513237,-3.142374277,17.12537557
41.3525147,-0.7663014531,-16.80479431,-2.414956331,16.99471517
41.35482022,-0.9493523836,-16.8167572,-1.572084427,16.91673852
41.35715162,-1.120439172,-16.7282238,-0.7106683254,16.78075996
41.35947011,-1.330409408,-16.58285904,0.0783649385,16.63632604
41.36177569,-1.45782721,-16.53619957,0.9397810698,16.62691628
41.36410709,-1.552343726,-16.43151283,1.630110383,16.58498251
41.36642553,-1.623530149,-16.45603943,2.292922258,16.69414797
41.3687311,-1.725823283,-16.56311798,2.883949518,16.90066591
41.37106251,-1.805982947,-16.5780735,3.432504177,17.02575051
41.373381,-1.911267042,-16.53679657,3.979264021,17.11587347
41.37568652,-1.96151638,-16.31067467,4.78385067,17.11054885
41.37801792,-1.855633974,-16.04208183,5.521438122,17.06686983
41.38033642,-1.698305845,-15.9373951,5.809175014,17.04791247
41.38264199,-1.538584948,-16.02473259,5.839683533,17.12487086
41.38497339,-1.46321106,-16.18086433,5.927021503,17.2942459
41.38729183,-1.37587297,-16.29452324,6.124429703,17.4617626
41.3895974,-1.198205948,-16.28614998,5.877968788,17.35583175
41.39192881,-0.955334425,-16.34417534,4.887938499,17.08615446
41.3942473,-0.7292127013,-16.43211174,3.774677753,16.87584782
41.39655282,-0.5934200287,-16.46082497,2.302493572,16.63166806
41.39888423,-0.6843472719,-16.35494232,0.8309076428,16.39032877
41.40120272,-0.9349954724,-16.12463379,-1.45782721,16.21737622
41.40350829,-1.338186026,-15.84527111,-3.805186272,16.35062081
41.4058397,-1.819741607,-15.44746494,-5.854040623,16.61942912
41.40815813,-2.21216464,-14.94556999,-7.259225845,16.7618643
41.41046371,-2.364706993,-14.39940834,-8.50469017,16.88977663
41.41279511,-2.306680918,-13.87538052,-9.099306107,16.7524426
41.4151136,-2.047059774,-13.42253876,-9.119645119,16.35612813
41.41741912,-1.7670995,-13.01635742,-8.466404915,15.62780258
41.41975053,-1.420140266,-12.68913841,-7.463811874,14.78984516
41.42206902,-1.078564763,-12.59761333,-6.335596085,14.14223962
41.42437459,-0.8404789567,-12.48455238,-5.504090309,13.66987429
41.426706,-0.5958128572,-12.35773277,-4.902295589,13.30793201
41.42902444,-0.4606183469,-12.04666519,-4.335196495,12.81125443
41.43133001,-0.1842473447,-11.91446209,-4.043272018,12.58317935
41.43366142,-0.03110669367,-11.70449162,-4.234099865,12.44683467
41.4359799,0.06640082598,-11.20798111,-4.336990833,12.01801727
41.43828543,0.2075773627,-10.54995537,-3.80159688,11.21591661
41.44061683,0.2931207716,-9.961918831,-3.337389469,10.51018149
41.44293532,0.4247260094,-9.482157707,-2.877369165,9.918213563
41.44524089,0.4450650215,-9.039485931,-2.646461725,9.429429911
41.4475723,0.4462614357,-8.838488579,-2.858226538,9.299864976
41.44989074,0.4971089065,-8.535198212,-3.074178934,9.085554573
41.45219631,0.5222335458,-8.197810173,-3.128615618,8.790054334
41.45452772,0.6652047038,-7.887341499,-2.97726965,8.456759887
41.45684621,0.8315058947,-7.686344624,-2.839084148,8.235999911
41.45915173,1.022931695,-7.604390144,-2.64227438,8.115094123
41.46148313,1.081555843,-7.670193195,-2.579462767,8.164266952
41.46380162,1.180259824,-7.716254711,-2.821736097,8.300349066
41.4661072,1.317248821,-7.752147198,-3.144168854,8.468572986
41.4684386,1.35074842,-7.795815945,-3.678366661,8.725230589
41.47075704,1.301695466,-7.735397339,-4.298706055,8.944811726
41.47307553,1.24366951,-7.435098171,-4.5930233,8.827415347
41.47539402,1.03549397,-6.998407841,-4.993820667,8.659573022
41.47771251,0.9248259664,-6.448657036,-4.841278553,8.116554605
41.48001803,0.9631111026,-5.985047817,-4.028316975,7.278442005
41.48234944,0.8596215248,-5.626124382,-3.526422262,6.695362477
41.48466793,0.8057830334,-5.391627789,-2.961117983,6.203801755
41.4869735,0.70348984,-5.287539959,-2.499901533,5.890881466
41.48930491,0.6215356588,-5.225924492,-1.99501586,5.628204123
41.49162334,0.5234299302,-5.242076397,-1.552941918,5.492264783
41.49392892,0.4151547253,-5.248058319,-1.071386337,5.37236803
41.49626032,0.3122633696,-5.23130846,-0.8434699774,5.308063509
41.49857881,0.1860419661,-5.181059361,-0.7262216806,5.235015343
41.50088433,0.07896314561,-5.082953453,-0.70348984,5.132012173
41.50321574,0.01256231871,-4.953741074,-0.5910272002,4.988889815
41.50553423,-0.02632104978,-4.734199524,-0.6454638839,4.778070903
41.5078398,-0.01016949583,-4.42672205,-0.6711867452,4.477327682
41.51017121,0.1100698411,-4.140181541,-0.5479564071,4.177735606
41.51248964,0.17587246,-3.893720627,-0.6305087805,3.948358237
41.51479522,0.2392822653,-3.705285788,-0.8123632669,3.800833178
41.51712662,0.2745763958,-3.527020693,-1.023529887,3.682781638
41.51944511,0.3158525825,-3.392424345,-1.296311617,3.645370982
41.52175063,0.2877369225,-3.283550978,-1.726421595,3.720891168
41.52408204,0.1896311939,-3.06999135,-2.096112728,3.722162738
41.52640053,0.1178465188,-2.827120066,-2.203191519,3.586160696
41.5287061,0.002392822644,-2.613560438,-2.219941139,3.429116876
41.53103751,-0.17587246,-2.367697954,-2.156531334,3.207421413
41.53335595,-0.2871387303,-2.158924341,-2.02073884,2.970991151
41.53566152,-0.4438686073,-1.92203474,-1.752144337,2.638417454
41.53799293,-0.6227321029,-1.734198213,-1.464407444,2.353662651
41.54031142,-0.7800601721,-1.635494232,-1.194616675,2.17035579
41.54261694,-0.9182456732,-1.509272933,-1.000798106,2.030437576
41.54494834,-1.194616675,-1.342971683,-1.009172916,2.06133741
41.54726683,-1.304686546,-1.089930773,-0.5736792088,1.794230729
41.5495724,-1.214955688,-0.9816554785,-0.2207378894,1.577494855
41.55190381,-1.200598717,-0.9577272534,-0.3302095234,1.570896909
41.55422225,-1.234696507,-1.059422255,-0.4725824594,1.694162082
41.55654074,-1.284945726,-1.133001566,-0.4869394004,1.780979519
41.55885923,-1.312463164,-1.181456208,-0.4630111754,1.82558968
41.56117772,-1.339382529,-1.225125194,-0.5204389095,1.888315111
41.56349621,-1.374676585,-1.312463164,-0.6011967063,1.993422372
41.56581464,-1.470987678,-1.396810174,-0.8398807645,2.195514315
41.56813313,-1.521835208,-1.427318692,-0.9068797827,2.275005932
41.57045162,-1.456630826,-1.536192179,-0.9816554785,2.333518213
41.57277011,-1.533799291,-1.658226132,-1.105484009,2.514825852
41.5750886,-1.768295884,-1.644467354,-1.064806104,2.639120166
41.57740704,-1.919043779,-1.537388563,-1.080957651,2.686030913
41.57972553,-1.977069736,-1.500299811,-1.115055323,2.720855129
41.58204402,-2.012962103,-1.55892396,-1.158126116,2.797054958
41.58436251,-2.059622049,-1.617548108,-1.143769264,2.85774614
41.58668095,-2.066800594,-1.700100541,-1.133599758,2.906381764
41.58899944,-2.041077614,-1.785643935,-1.066002488,2.913912043
41.59131793,-2.009970903,-1.890329838,-1.036092162,2.947340648
41.59363642,-1.907079697,-2.003390789,-1.019940615,2.948017381
41.59595485,-1.858026743,-2.078764677,-1.004985452,2.96370068
41.59827334,-1.783251047,-2.206780672,-0.9559326172,2.993939278
41.60059183,-1.69950223,-2.338984251,-0.8727820516,3.020083387
41.60291032,-1.59840548,-2.427518606,-0.709471941,2.991838414
41.60522881,-1.448854089,-2.543570518,-0.4923232496,2.968385308
41.60754725,-1.265803218,-2.687737942,-0.2087737769,2.978217507
41.60986574,-1.064806104,-2.821736097,0.162113741,3.020312485
41.61218423,-0.9667003751,-2.895913601,0.5970092416,3.110827098
41.61450272,-0.8913264275,-2.99401927,1.066002488,3.300753777
41.61682116,-0.7776673436,-3.114856958,1.545165181,3.562953242
41.61912673,-0.6311069727,-3.245265722,2.152942181,3.945276372
41.62145813,-0.5018945336,-3.423531055,2.670390129,4.370748958
41.62377662,-0.4097708762,-3.626322746,3.259024382,4.892787421
41.6260822,-0.394217521,-3.711267948,3.975674868,5.45297239
41.62841355,-0.3529413342,-3.862613916,4.659423828,6.062555918
41.63073204,-0.3702892959,-4.097708702,5.233103275,6.656853661
41.63303761,-0.4618147612,-4.314857483,6.007181168,7.410633816
41.63536902,-0.4725824594,-4.55294323,6.910471916,8.288983553
41.63768751,-0.5060819983,-4.835296154,7.890332699,9.26787775
41.63999303,-0.6215356588,-5.24506712,8.793025017,10.2574034
41.64232444,-0.8440681696,-5.78584528,9.772886276,11.38849256
41.64464292,-1.24666059,-6.341578007,10.66540909,12.47079489
41.6469485,-1.792224169,-6.967301369,11.65783215,13.69891989
41.64927985,-2.396411896,-7.73300457,12.88834095,15.22010125
41.65159834,-3.107678413,-8.631509781,14.0620203,16.78990891
41.65390392,-4.070191383,-9.506684303,14.94736481,18.17600669
41.65623532,-5.179862976,-10.21914768,15.28594971,19.10293742
41.65855381,-6.218348026,-10.80120182,15.20997715,19.66410989
41.66085933,-6.893123627,-11.34078312,14.88814259,19.94455577
41.66319074,-7.098906517,-12.11486149,14.53460312,20.20937976
41.66550923,-7.062416077,-12.91286755,13.76291752,20.15037885
41.6678148,-6.79561615,-13.60439301,12.99721432,20.00468665
41.67014616,-6.305087566,-14.0362978,12.08435249,19.56536124
41.67246464,-5.575276852,-14.48674679,11.19242764,19.1368749
41.67477022,-4.601397991,-14.95035553,10.25503922,18.70432632
41.67710162,-3.419941664,-15.55334759,9.392427444,18.48838326
41.67942011,-2.361716032,-16.18744469,8.590232849,18.47709849
41.68172563,-1.439880967,-16.63789368,8.053643227,18.54060227
41.68405704,-0.8057830334,-16.94477272,7.894520283,18.7109075
41.68637553,-0.485144794,-16.88914108,8.163712502,18.76498478
41.6886811,-0.522831738,-16.59661865,8.342576027,18.58277908
41.69101246,-0.7734799385,-16.16949844,8.528019905,18.29694167
41.69333095,-1.204187989,-15.58445358,8.548358917,17.81571504
41.69564944,-1.597807288,-14.91207027,8.420941353,17.19985701
41.69796792,-1.895713687,-14.1990099,8.193622589,16.50275927
41.70028642,-2.136192322,-13.44168091,7.728219032,15.65143676
41.70259194,-2.352144718,-12.65085316,7.157530785,14.72436475
41.70492334,-2.376072884,-11.87976646,6.445665836,13.72301649
41.70724183,-2.375474691,-11.16012478,5.791827202,12.79595746
41.7095474,-2.435295343,-10.50449181,5.166104317,11.95674058
41.71187876,-2.466402054,-9.901499748,4.666004181,11.22026877
41.71419725,-2.543570518,-9.370891571,4.265206337,10.6054394
41.71650282,-2.6087749,-8.830113411,4.050450325,10.05896402
41.71883423,-2.749951363,-8.314460754,3.921836376,9.595482828
41.72115272,-2.838485956,-7.841877937,3.855435371,9.18784164
41.72345824,-2.829512835,-7.442874908,3.838685751,8.839572279
41.72578964,-2.789433002,-7.106084824,3.71724987,8.490896572
41.72810813,-2.773879766,-6.717251301,3.437887907,8.039586262
41.73041371,-2.685943365,-6.336194515,3.125624657,7.558517195
41.73274506,-2.611765862,-5.965306759,2.832503796,7.101357856
41.73506355,-2.568695068,-5.556134224,2.66799736,6.677352154
41.73736912,-2.621337175,-5.159523964,2.593221426,6.341679075
41.73970053,-2.638087034,-4.847260475,2.533401012,6.072360168
41.74201902,-2.663809776,-4.598406792,2.426322222,5.841940351
41.74432454,-2.697907448,-4.368695736,2.371885538,5.655974543
41.74665595,-2.800798893,-4.059423447,2.306680918,5.444645995
41.74897444,-2.921636343,-3.8213377,2.318645239,5.3399154
41.75128001,-3.16032052,-3.620938778,2.362314224,5.355310628
41.75361136,-3.448057413,-3.262613773,2.562114954,5.394273037
41.75592985,-3.800998688,-2.804388046,2.813361168,5.497925463
41.75823542,-4.24367094,-2.291127682,2.824727058,5.589015303
41.76056683,-4.771886349,-1.737189293,2.659024239,5.732288885
41.76288527,-5.30728054,-1.269990563,2.488535643,5.997742276
41.76519084,-5.804389477,-0.97926265,2.281556368,6.313112703
41.76752225,-6.274579048,-0.8656035662,2.205584288,6.707027197
41.76984074,-6.582654953,-0.9212366939,2.121237278,6.97708183
41.77214631,-6.628118515,-1.186241865,2.118246317,7.058759967
41.77447766,-6.600601196,-1.689931035,2.102692842,7.130576432
41.77679616,-6.540780544,-2.230708838,2.327618122,7.292165534
41.77911464,-6.200401783,-3.096312523,2.536990166,7.380274562
41.78143313,-5.971887112,-4.008575916,2.655434847,7.667036636
41.78375162,-5.819344521,-4.839483738,2.986840963,8.136743356
41.78605714,-5.955137253,-5.989833355,3.471387386,9.131938113
41.78838855,-6.037689686,-7.252047062,4.772484779,10.57461556
41.79070704,-6.456433773,-8.604590416,6.109474182,12.37134544
41.79301261,-6.952346325,-10.03011417,7.765307903,14.4650723
41.79534402,-7.706683636,-11.66261768,9.626325607,16.97279496
41.79766246,-8.540582657,-13.48953724,11.29771233,19.55882079
41.79996803,-9.347561836,-15.39841175,12.89731407,22.1546543
41.80229944,-9.786644936,-17.17747498,14.52383518,24.53132394
41.80461792,-9.762716293,-19.09651947,15.43908978,26.42637278
41.80692345,-9.156734467,-21.11366844,15.42114353,27.70278775
41.80925485,-8.18345356,-23.0039978,14.41256905,28.352689
41.81157334,-6.78484869,-24.51626205,12.63350582,28.40223136
41.81387892,-5.070391178,-25.81975365,10.59242725,28.36490896
41.81621027,-3.40498662,-26.84447861,9.064610481,28.53746886
41.81852876,-1.849053741,-27.65504837,8.048856735,28.86182244
41.82083433,-0.5958128572,-27.90569496,7.212565422,28.82887275
41.82316574,0.3684946895,-27.50071144,6.354738712,28.22778104
41.82548423,1.016949654,-26.23849678,5.306682587,26.78906083
41.82778975,1.37048912,-24.52822685,3.818944931,24.86154648
41.83012116,1.330409408,-22.44826508,1.966302037,22.57345649
41.83243964,0.9822536707,-19.98186302,-0.08195417374,20.00615877
41.83474522,0.2739782035,-17.35155296,-2.50169611,17.53310976
41.83707657,-0.614357233,-14.67817211,-5.157131195,15.56991244
41.83939506,-1.351346612,-12.06820107,-7.4010005,14.22119626
41.84170063,-1.951346874,-9.73699379,-9.202795982,13.53913796
41.84403204,-2.475973129,-7.701299667,-10.50030422,13.25506878
41.84635053,-2.900100946,-6.007181168,-11.32762241,13.14579175
41.84865605,-3.337987661,-4.649852753,-11.67996597,13.00710949
41.85098746,-3.949353695,-3.481556892,-11.26421261,12.43386982
41.85330595,-4.180859566,-2.784049034,-10.19880867,11.36865049
41.85561152,-4.687539577,-2.231905222,-8.823533058,10.23763468
41.85794287,-5.4622159,-1.415354609,-7.052246571,9.03178902
41.86026136,-6.069394588,-0.5952146053,-4.779065132,7.747986489
41.86256694,-6.45284462,-0.1680957973,-2.919841766,7.084697299
41.86489834,-6.809374809,0.03290131316,-1.274178028,6.927640106
41.86721678,-6.934998035,-0.04905286431,0.3708875179,6.94508182
41.86952235,-6.899106026,-0.3086741269,2.133201361,7.227965946
41.87185376,-6.931408882,-0.614357233,3.623929977,7.845682404
41.87417225,-6.946962357,-1.088136077,4.752744198,8.487220011
41.87647782,-6.737590313,-1.753939033,5.799603939,9.061281985
41.87880918,-6.1399827,-2.751147747,6.47497797,9.337748187
41.88112766,-5.730810165,-3.688536167,6.089733601,9.139602811
41.88343324,-5.170889854,-4.604987144,4.631906509,8.330580196
41.88576464,-4.10608387,-5.626722336,2.430509567,7.377486411
41.88808313,-2.656033039,-6.607181549,-0.8835497499,7.175654652
41.89038866,-1.104885817,-7.384250641,-4.51346159,8.724635564
41.89272006,0.3349951804,-7.990232944,-7.925626755,11.25928966
41.89503855,1.713261008,-8.578269005,-10.76710415,13.87272483
41.89734412,2.947957516,-9.19621563,-12.89372444,16.10928196
41.89967548,4.009174347,-9.774680138,-14.24387455,17.73431174
41.90199397,4.853840828,-10.37468052,-14.75713539,18.6806534
41.90429954,5.508875847,-11.15174961,-14.70269871,19.25820817
41.90663095,5.873781204,-11.77149105,-14.24626827,19.3913761
41.90894944,6.057430744,-12.33200932,-13.30110264,19.12302937
41.91125496,6.148357868,-12.92842102,-11.98863983,18.6728107
41.91358636,6.093322754,-13.45962715,-10.44945621,18.09644386
41.91590485,5.888138294,-13.96511078,-8.773283958,17.51185322
41.91821043,5.61655283,-14.44008636,-7.250850677,17.10662432
41.92054178,5.276174068,-14.81516171,-5.772684574,16.75263909
41.92286027,4.870590687,-15.03769398,-4.418945312,16.41285994
41.92516584,4.445266247,-15.35833168,-3.294916868,16.32468135
41.92749725,4.107878208,-15.70529175,-2.23130703,16.38626203
41.92981569,3.932005882,-16.07199097,-1.161715388,16.58671597
41.93212126,3.739383698,-16.28196144,-0.2225325108,16.70732712
41.93445266,3.622733593,-16.39382553,0.4211367965,16.79461433
41.93677116,3.558127165,-16.40459442,0.7926225066,16.80473854
41.93907673,3.550948858,-16.29452324,0.7489534616,16.69376101
41.94140808,3.647858143,-15.96491241,0.6329016089,16.38858938
41.94372657,3.734597921,-15.55574036,0.4019941986,16.00280847
41.94603214,3.861417532,-14.98624802,-0.04007977992,15.47578048
41.94836355,3.889533281,-14.24746418,-0.650847733,14.7831765
41.95068199,3.934996843,-13.60379505,-1.247258782,14.21629679
41.95298756,3.987040758,-13.08036518,-1.698904037,13.77964884
41.95531897,3.972683907,-12.59581852,-2.112264156,13.37529519
41.95763746,3.877569199,-12.15254784,-2.402992249,12.98053672
41.95994303,3.762713671,-11.7272234,-2.559721947,12.57926704
41.96227438,3.631706476,-11.26002502,-2.592623234,12.11194248
41.96459287,3.506681681,-10.89332485,-2.472982168,11.70798802
41.96689845,3.340978622,-10.65583706,-2.189432621,11.37992165
41.96922985,3.074178934,-10.47517967,-2.154736757,11.12757187
41.97154829,2.766701221,-10.27537823,-1.987239242,10.82530153
41.97385386,2.54117775,-10.15095139,-1.642074585,10.59225223
41.97618527,2.325823545,-10.03968525,-1.301695466,10.38745138
41.97850376,2.173879385,-9.966106415,-1.012163997,10.2505368
41.98080933,2.011765718,-9.873384476,-0.694516778,10.10016217
41.98314069,1.87417829,-9.803992271,-0.4199403822,9.990353279
41.98545918,1.66600275,-9.732208252,-0.3649054468,9.88051611
41.98776475,1.495514154,-9.629914284,-0.2051845491,9.74750801
41.99009616,1.324427366,-9.503693581,-0.1220339537,9.596311365
41.99241459,1.166501045,-9.502496719,-0.02273181453,9.573854257
41.99473308,0.9182456732,-9.489336014,-0.0580259487,9.533836589
41.99705157,0.7363911867,-9.464810371,-0.002991028363,9.493414364
41.99937006,0.5862415433,-9.415159225,0.0239282269,9.433423289
42.00168855,0.5186443329,-9.397810936,0.05204389244,9.412255357
42.00400699,0.4546363056,-9.379864693,0.2566302419,9.394382093
42.00632548,0.3535395563,-9.367302895,0.3984049559,9.382434665
42.00864397,0.2685943544,-9.379266739,0.2883351147,9.387540925
42.01096246,0.342771858,-9.468399048,0.2129612118,9.476994542
42.01328089,0.3990031779,-9.554540634,0.04247260094,9.562962626
42.01559938,0.313459754,-9.65803051,-0.2488535494,9.666319798
42.01791787,0.2943171859,-9.812367439,-0.3481557071,9.822952192
42.02023636,0.2937189937,-9.903892517,-0.5952146053,9.926108919
42.02255485,0.1274178028,-9.754940033,-1.146162033,9.822870138
42.02487329,0.04486542568,-9.724431038,-1.610369682,9.856970246
42.02719178,0.1202393398,-9.775876999,-1.938186288,9.966884904
42.02949735,0.2033899277,-9.832108498,-2.032104731,10.04197065
42.03182876,0.3116651475,-9.814760208,-1.959721804,10.01334922
42.0341472,0.3439682424,-9.631111145,-1.779661894,9.800194513
42.03646569,0.4384847581,-9.387641907,-1.299302697,9.487269204
42.03878418,0.5982056856,-9.113663673,-0.6939185858,9.159598168
42.04110267,0.865005374,-8.809774399,-0.3834498227,8.860439776
42.0434211,1.151545882,-8.509475708,-0.2165504545,8.589768847
42.04573959,1.541576028,-8.336593628,-0.06580262631,8.478182585
42.04805808,1.845464468,-8.165507317,0.2452643216,8.375046473
42.05037657,2.052443504,-8.155337334,0.5808576941,8.429676567
42.05269506,2.381456852,-8.200202942,0.7226324677,8.569531067
42.0550135,2.709871531,-8.125427246,0.4815555513,8.578919943
42.05731907,2.953939438,-8.053044319,0.1399801224,8.57886213
42.05965048,3.153141975,-7.962715626,0.04127619043,8.56439421
42.06196897,3.309871912,-7.954938889,-0.4683950245,8.628771563
42.06427449,3.407977581,-7.929215908,-0.9589236975,8.683680715
42.06660589,3.491726398,-7.89930582,-1.368694544,8.744398804
42.06892438,3.459423304,-7.694121361,-1.570888042,8.581072331
42.07124287,3.212364435,-7.349554539,-1.609173179,8.180750302
42.07356136,2.995813847,-7.147361279,-1.440479279,7.882553799
42.0758798,2.722434044,-7.033103943,-1.090528965,7.620069003
42.07819829,2.484348059,-6.985247612,-0.6640082598,7.443559394
42.08051678,2.382055044,-7.145566463,-0.4917250574,7.548185202
42.08283527,2.268395901,-7.191628456,-0.3684946895,7.549895903
42.08515371,1.959721804,-7.194021225,-0.5335994363,7.475237741
42.0874722,1.60977149,-7.284350395,-0.6789634228,7.490935606
42.08979069,1.241874933,-7.42313385,-0.7100701332,7.559720173
42.09210918,0.9954141974,-7.548159122,-0.4725824594,7.628164245
42.09442761,0.8231309652,-7.638488293,-0.1495514214,7.684166423
42.0967461,0.6149554253,-7.777271748,0.05563312769,7.801744744
42.09905168,0.4145565331,-7.858029366,0.3020938635,7.874753541
42.10138308,0.1848455518,-7.906484127,0.6053841114,7.931780951
42.10370157,0.01914258115,-8.020143509,0.8291130662,8.062908707
42.10600709,-0.1794617027,-8.139784813,1.033101201,8.207045838
42.1083385,-0.3774677813,-8.292924881,1.262213945,8.396920212
42.11065699,-0.590429008,-8.437092781,1.437488198,8.579015872
42.11296256,-0.7262216806,-8.565108299,1.527817249,8.730561474
42.11529397,-0.9002995491,-8.674580574,1.607976794,8.868172122
42.1176124,-1.019342422,-8.700901031,1.673779488,8.918871874
42.11993089,-1.0863415,-8.870791435,1.679163337,9.093440936
42.12224938,-1.208973646,-9.132805824,1.737787485,9.374948792
42.12456787,-1.353739381,-9.452845573,1.810170293,9.719342377
42.12688631,-1.523031592,-9.726225853,1.829911113,10.01337452
42.1292048,-1.700698733,-9.893125534,1.881955028,10.21313193
42.13152329,-1.855633974,-9.815358162,1.89391911,10.16718068
42.13384178,-1.972882271,-9.678967476,1.810768485,10.04258723
42.13616022,-2.051845312,-9.512666702,1.646860242,9.869804741
42.13847871,-2.067398787,-9.431908607,1.484148264,9.769223807
42.1407972,-2.053041935,-9.388239861,1.322034478,9.700608436
42.14311569,-1.890928149,-9.317651749,1.103689432,9.571435302
42.14543418,-1.679761529,-9.279964447,0.8039883971,9.464974182
42.14775261,-1.382453322,-9.239884377,0.5730810165,9.360291787
42.1500711,-1.159920812,-9.119645119,0.3260220885,9.198893074
42.15238959,-0.9188438654,-8.985049248,0.1220339537,9.032733602
42.15470808,-0.6376872063,-8.921041489,-0.06161518395,8.944016024
42.15702652,-0.409172684,-8.819944382,-0.2805584669,8.8338867
42.15934501,-0.1776670814,-8.714061737,-0.3457628787,8.72272833
42.1616635,0.0484546572,-8.578866959,-0.4019941986,8.588416937
42.16398199,0.2464607358,-8.502297401,-0.3720839322,8.514003198
42.16630042,0.3672982752,-8.398209572,-0.3720839322,8.414468402
42.16861892,0.513858676,-8.404191017,-0.2087737769,8.422473739
42.17093741,0.6969096065,-8.544171333,0.0185443759,8.572566166
42.17325589,0.7932206988,-8.618349075,0.2249253243,8.657697804
42.17557438,0.7980063558,-8.684749603,0.5024927258,8.735799263
42.17789282,0.8039883971,-8.822935104,0.7896314859,8.894610676
42.18021131,0.8003991842,-8.961718559,1.081555843,9.062163176
42.1825298,0.7453642488,-9.135796547,1.397408366,9.272059995
42.18484829,0.6137589812,-9.325428009,1.707278967,9.500268897
42.18716678,0.471386075,-9.05922699,1.918445587,9.272121222
42.18948522,0.4001995921,-8.935996056,2.122433662,9.193307885
42.19180371,0.2907279432,-8.971888542,2.188834429,9.239605127
42.1941222,0.1465603858,-8.931808472,2.230110645,9.207175246
42.19644069,0.09571290761,-8.621339798,2.184647083,8.894343357
42.19875912,0.109471634,-8.408976555,2.154138565,8.681197135
42.20107761,0.1405783296,-8.283951759,2.000399828,8.52321644
42.2033961,0.228514567,-8.286943436,1.782054663,8.479467509
42.20571459,0.3828516304,-8.312665939,1.607378602,8.47529683
42.20803303,0.5862415433,-8.346763611,1.356730461,8.476606601
42.21035152,0.8231309652,-8.351549149,1.034297585,8.45551236
42.21267001,1.109671474,-8.273183823,0.6831508875,8.375179788
42.2149885,1.433898926,-8.160721779,0.3565305769,8.293404617
42.21730699,1.805384636,-8.032705307,-0.01316052489,8.233100354
42.21962543,2.172084808,-7.895118237,-0.3738785386,8.196989054
42.22194392,2.571686029,-7.756932735,-0.7244270444,8.204167785
42.22424949,2.990430117,-7.627122402,-0.9649057388,8.249043066
42.22658089,3.381058455,-7.546364307,-1.190429211,8.354417528
42.22889933,3.710669756,-7.515257835,-1.379462242,8.494179563
42.23120491,4.013959885,-7.570890903,-1.566700578,8.711188996
42.23353631,4.307679176,-7.597810268,-1.731207132,8.903926038
42.2358548,4.555934429,-7.770093441,-1.861017823,9.19751477
42.23816032,4.777270317,-8.023732185,-1.876571178,9.524920433
42.24049173,5.033900738,-8.729017258,-1.849651933,10.24485779
42.24281022,5.094917774,-9.0921278,-1.751546144,10.56848565
42.24511579,5.188836098,-8.854640007,-1.728216171,10.40746851
42.24744714,5.289932728,-9.039485931,-1.802393675,10.62752639
42.24976563,5.306084156,-9.504291534,-1.713261008,11.01913563
42.25207121,5.221737385,-10.00080204,-1.447657704,11.37445804
42.25440261,5.019543648,-10.41296577,-1.107876897,11.61262528
42.2567211,4.730610371,-10.77966595,-0.7830511928,11.79801007
42.25902662,4.355535507,-11.11466122,-0.4648058116,11.94664924
42.26135803,3.879961967,-11.4514513,-0.185443759,12.09232117
42.26367652,3.403790236,-11.75055408,0.09930214286,12.23401693
42.26598209,2.990430117,-12.05803108,0.3266202807,12.42760905
42.26831345,2.635095835,-12.40140152,0.5742774606,12.69126803
42.27063194,2.424527645,-13.36211967,0.7890332937,13.60320367
42.27293751,2.069791555,-13.73958778,1.051047325,13.93431053
42.27526892,1.740778446,-12.90150166,1.219143152,13.07537245
42.27758741,1.487139225,-12.68674564,1.258026481,12.83540918
42.27989293,1.298704505,-12.98883915,1.406381488,13.12914638
42.28222433,1.159322619,-13.35673618,1.540977836,13.49522297
42.28454282,1.023529887,-13.51286793,1.750947952,13.66422452
42.28684839,0.8817551732,-13.59302711,1.859821439,13.74797491
42.28917975,0.7962117195,-13.62832165,1.907079697,13.78412337
42.29149824,0.7447660565,-13.66840076,1.921436548,13.82287142
42.29381673,0.7357929349,-13.68275833,1.921436548,13.83658864
42.29613522,0.8039883971,-13.76291752,1.955534339,13.92438187
42.29845366,0.8733802438,-13.83769321,1.909472466,13.99609344
42.30077214,0.9463613629,-13.89392471,1.867598057,14.05078881
42.30309063,0.9870393276,-13.9555397,1.744367719,14.0987288
42.30540912,1.067198873,-14.05065441,1.607378602,14.18250573
42.30772756,1.159920812,-14.13500118,1.594816327,14.27189945
42.31004605,1.293320656,-14.16491222,1.681556106,14.32288545
42.31236454,1.50269258,-14.16969776,1.774278045,14.35919504
42.31468303,1.675574064,-14.24208069,1.833500385,14.45704446
42.31700152,1.805982947,-14.27318668,1.758724689,14.49408655
42.31931996,1.926222205,-14.43829155,1.636690736,14.65787677
42.32163845,2.031506538,-14.58963776,1.49132669,14.80569498
42.32395694,2.203789711,-14.79242992,1.44646132,15.02547578
42.32627543,2.337787628,-14.95215034,1.348953724,15.19380555
42.32859386,2.500499725,-15.13579941,1.208375454,15.38847276
42.33091235,2.64825654,-15.26321697,1.053440213,15.52703421
42.33323084,2.804388046,-15.37448406,0.993021369,15.65967573
42.33554933,3.017349243,-15.49472332,1.024128079,15.81896601
42.33786782,3.169891834,-15.51924992,1.169492126,15.88279081
42.34018626,3.296711445,-15.45883083,1.213161111,15.85293402
42.34250475,3.397808075,-15.34576988,1.275374413,15.76909423
42.34482324,3.525225878,-15.15554047,1.389033556,15.62200495
42.34714173,3.595216036,-14.93719578,1.483550072,15.43522973
42.34946016,3.559323788,-14.67398453,1.529013634,15.17670881
42.35177866,3.522234917,-14.51127338,1.508674622,15.00864062
42.35409714,3.503690481,-14.70389557,1.457229018,15.1856481
42.35641563,3.270988464,-14.0805645,1.712662816,14.55660936
42.35873407,3.123231649,-13.58824158,1.865205288,14.06676494
42.36105256,3.035295486,-13.51346588,1.907079697,13.98083445
42.36337105,2.994617462,-13.61516094,1.969292998,14.07900764
42.36568954,2.925225735,-13.71266842,1.954936147,14.15683567
42.36800803,2.933002472,-13.82812214,1.917847395,14.26525864
42.37032647,2.915056229,-13.81914902,1.784447432,14.23554302
42.37264496,2.964707375,-13.83769321,1.631905079,14.24550306
42.37496345,3.011367321,-13.7599268,1.517647743,14.16711591
42.37728194,3.008974552,-13.61635685,1.354337573,14.01047223
42.37960042,2.972483873,-13.43988705,1.128814101,13.81088142
42.38191886,2.964707375,-13.22931862,0.8835497499,13.58620702
42.38423735,2.931805849,-13.00020504,0.5288137794,13.33718338
42.38655584,2.903690338,-12.83330631,-0.02572284266,13.15772891
42.38887433,2.900699139,-12.75254822,-0.5706881881,13.09073056
42.39117985,2.851048231,-12.78784275,-0.7902296782,13.12561851
42.39351126,2.797807932,-12.9194479,-0.8560323119,13.24660917
42.39582975,2.654836655,-13.06720448,-0.9708877802,13.36946572
42.39813532,2.47358036,-13.21077347,-1.109671474,13.48608565
42.40046668,2.222334146,-13.22632694,-1.222134113,13.46729762
42.40278517,1.936391711,-13.13659668,-0.9625129104,13.31338485
42.40510366,1.638485312,-13.02772331,-0.484546572,13.139292
42.40742214,1.336989641,-12.97089291,0.1136590764,13.04011206
42.40974063,1.040877819,-12.95294762,0.6831508875,13.01264668
42.41204616,0.7932206988,-12.91466236,1.143769264,12.98945384
42.41437756,0.5162515044,-12.86261845,1.517647743,12.96212651
42.41669605,0.3176472187,-12.82792187,1.844866276,12.96379616
42.41900162,0.1088734269,-13.11625767,2.040479422,13.27447268
42.42133298,-0.008973085321,-13.39262867,2.194218397,13.57118925
42.42365147,-0.142971158,-13.62114334,2.376072884,13.82757061
42.42595704,-0.2644068897,-13.92622757,2.510669231,14.15320407
42.42828845,-0.3451646566,-14.29831123,2.474776745,14.51500474
42.43060694,-0.3972085714,-14.60220051,2.228316069,14.77658373
42.43291246,-0.4624129832,-14.90668678,1.771885157,15.01874541
42.43524386,-0.509073019,-15.13938904,1.16769743,15.19288561
42.43756235,-0.5916253924,-15.354743,0.24765715,15.3681322
42.43986792,-0.6436693072,-15.56949902,-0.9008977413,15.60881887
42.44219928,-0.6789634228,-15.68794346,-2.092523336,15.84143981
42.44451777,-0.6861419082,-15.82911968,-3.16032052,16.15609626
42.44682334,-0.7028916478,-15.94636822,-4.208974838,16.50745847
42.44915475,-0.7483552694,-16.1509552,-5.038087845,16.9350441
42.45147319,-0.7956135273,-16.33101463,-5.700301647,17.31555597
42.45377876,-0.9864411354,-16.5146637,-6.330212116,17.71380164
42.45611017,-1.158126116,-16.74497223,-6.7734828,18.10014973
42.45842866,-1.336989641,-16.91306877,-7.089335442,18.38744445
42.46073423,-1.543370605,-17.02373695,-7.266404152,18.57391294
42.46306558,-1.790429592,-17.10569,-7.096513748,18.60566516
42.46538407,-2.054238319,-17.28933907,-6.902096748,18.72912384
42.46768964,-2.342573404,-17.47358704,-6.578467846,18.81728283
42.47002105,-2.66799736,-17.59083557,-6.146563053,18.8238132
42.47233954,-3.051447153,-17.66142464,-5.609972477,18.78054954
42.47464506,-3.458825111,-17.56451416,-5.056632519,18.60228914
42.47697647,-3.906881094,-17.42991829,-4.402793884,18.39702056
42.47929496,-4.342374802,-17.20738602,-3.683750391,18.12513088
42.48160053,-4.745565414,-16.99502373,-2.863610506,17.87600313
42.48393188,-5.10149765,-16.84307861,-1.86580348,17.69733873
42.48625037,-5.496912003,-16.62473297,-0.7932206988,17.52789169
42.48855595,-5.860620975,-16.53500175,0.3433700502,17.54625499
42.49088735,-6.173482418,-16.59781456,1.447657704,17.76780927
42.49320584,-6.452246189,-16.63609886,2.45683074,18.01186508
42.49551136,-6.622735023,-16.61935043,3.442673683,18.21854632
42.49784277,-6.779464722,-16.50628853,4.184448719,18.32834728
42.50016126,-6.896713257,-16.3645134,4.66899538,18.36195715
42.50246683,-6.979863644,-16.20658684,5.020142078,18.34594723
42.50479819,-6.887141705,-16.01157188,5.358128071,18.23493053
42.50711668,-6.797410965,-15.61137295,5.36052084,17.8509088
42.50942225,-6.777669907,-15.34277916,5.010570526,17.50552766
42.51175366,-6.700501442,-15.15494251,4.23230505,17.10208783
42.51407214,-6.586244106,-14.87498188,3.334996462,16.60620061
42.51637766,-6.342774391,-14.60220051,2.376072884,16.09660738
42.51870907,-6.098108292,-14.31087399,1.217348576,15.60352449
42.52102756,-5.7571311,-14.15175152,-0.1507478207,15.27872228
42.52333313,-5.426323414,-14.03569984,-1.37886405,15.11115886
42.52566449,-5.054837704,-13.79342651,-2.679961443,14.93292311
42.52798298,-4.667200565,-13.48415375,-3.823132277,14.77232222
42.53028855,-4.29392004,-13.2705946,-4.694717884,14.71688847
42.53261996,-3.793820381,-13.17847061,-5.553741455,14.79558059
42.53493845,-3.269193888,-13.01037502,-6.719046116,15.00343519
42.53724397,-2.712264538,-12.89252853,-7.578667641,15.19900899
42.53957537,-2.16131711,-12.80399418,-8.137392044,15.32418702
42.54189386,-1.586441398,-12.76690483,-8.562117577,15.45381871
42.54419944,-0.9475577474,-12.57428265,-8.5148592,15.21556036
42.54653079,-0.3463610709,-12.26620674,-7.747959614,14.51243164
42.54884928,0.1728814393,-11.85823059,-6.620940208,13.58250235
42.55115485,0.6125625968,-11.34616661,-5.437689304,12.59679303
42.55348626,0.9954141974,-10.84965611,-4.140779495,11.65555412
42.55580475,1.247258782,-10.4093771,-3.015554667,10.90891177
42.55811027,1.544566989,-9.934401512,-1.800599098,10.21372497
42.56044168,1.831705689,-9.661021233,-0.4498506486,9.843416206
42.56276016,2.054836512,-9.582057953,0.7058826685,9.825296843
42.56506574,2.127817631,-9.467801094,1.383051515,9.802025144
42.56739709,2.197209358,-9.422935486,1.507478237,9.792442636
42.56971558,2.381456852,-9.500103951,1.385444283,9.891550317
42.57202116,2.447259426,-9.619745255,1.286740422,10.00920968
42.57435256,2.548356056,-9.669994354,1.298106313,10.08404628
42.57667105,2.704487801,-9.83509922,0.760917604,10.22851047
42.57897657,2.939582586,-9.999606133,-0.09930214286,10.4232015
42.58130798,3.147758245,-9.967302322,-1.098903775,10.5101421
42.58362647,3.256033421,-9.808179855,-2.081755638,10.54209904
42.58593204,3.278167009,-9.443872452,-3.019144058,10.44262116
42.58826339,3.329612732,-9.050253868,-3.637090445,10.30639815
42.59058188,3.463012457,-8.702695847,-4.15334177,10.24595618
42.59288746,3.570091486,-8.398209572,-4.861019135,10.33948665
42.59521886,3.46420908,-7.692326546,-5.79721117,10.23622438
42.59753735,3.223730326,-6.777669907,-6.74536705,10.09104669
42.59984287,3.145963669,-6.014359951,-6.098706722,9.124902011
42.60217428,3.032902718,-5.626124382,-5.124229908,8.192039221
42.60449277,2.842075109,-5.471189022,-4.473381996,7.617246663
42.60679834,2.6620152,-5.4652071,-4.007977962,7.28139416
42.6091297,2.452643156,-5.575276852,-3.75134778,7.153445365
42.61144819,2.201995134,-5.65304327,-3.719642878,7.116278797
42.61375376,1.923829436,-5.639883041,-3.593421459,6.958597431
42.61608516,1.66600275,-5.544768333,-3.32901454,6.678499745
42.61840366,1.493121386,-5.389832973,-3.016751051,6.354565119
42.62070918,1.317847013,-5.148756027,-2.781656265,5.998668265
42.62304058,1.138983607,-4.907081127,-2.623131752,5.679572962
42.62535907,0.9690931439,-4.637290478,-2.550150633,5.380229804
42.62766464,0.8159525394,-4.434498787,-2.533999205,5.172205526
42.629996,0.6825526357,-4.260420799,-2.593819857,5.034378307
42.63231449,0.5300102234,-4.033700943,-2.76371026,4.918307487
42.63462006,0.4438686073,-3.795614958,-2.885145903,4.788296057
42.63695147,0.3816552162,-3.580859184,-2.982653379,4.675942085
42.63926996,0.2321037948,-3.306282759,-3.057429075,4.509240557
42.64157548,0.03409772366,-3.017947674,-3.094517946,4.322639487
42.64390688,-0.2775674164,-2.722434044,-3.209373474,4.217673398
42.64622537,-0.5940182209,-2.485544443,-3.237488985,4.124575585
42.64853095,-0.7890332937,-2.307877541,-3.283550978,4.090303082
42.65086235,-1.080957651,-2.084148407,-3.326023579,4.071188631
42.65318079,-1.306481123,-1.810170293,-2.828914642,3.603660287
42.65548636,-1.38185513,-1.607976794,-1.75334084,2.751239189
42.65781777,-1.170090318,-1.741376638,-0.9822536707,2.316533234
42.66013626,-1.158126116,-1.960918188,-0.5563312769,2.344346547
42.66244178,-1.265803218,-1.919641972,-0.3714857101,2.329224059
42.66477319,-1.209571838,-1.837089539,-0.5192425251,2.259994426
42.66709168,-1.17068851,-1.783849239,-0.7674978375,2.267527867
42.66941016,-1.158724308,-1.789233088,-1.024726272,2.365176737
42.67172866,-1.126421213,-1.759322882,-1.015154958,2.322623805
42.67404709,-1.151545882,-1.505085468,-1.093519926,2.187950186
42.67636558,-1.227517962,-1.463809252,-1.243071318,2.27920253
42.67868407,-1.274178028,-1.503290772,-1.257428288,2.337635278
42.68100256,-1.312463164,-1.518844128,-1.185643673,2.331351102
42.68332105,-1.336391449,-1.557129383,-1.061216831,2.310146139
42.68563949,-1.450050473,-1.627119422,-0.9092726111,2.361554714
42.68795798,-1.622931957,-1.645065546,-0.7674978375,2.43499522
42.69027647,-1.764108539,-1.735394597,-0.7250252366,2.578630438
42.69259496,-1.860419631,-1.8628124,-0.7824530005,2.746536717
42.69491339,-1.999203324,-2.029113531,-0.7489534616,2.945343264
42.69723188,-2.138585329,-2.185843468,-0.6873382926,3.134308983
42.69955037,-2.284547329,-2.280359983,-0.6305087805,3.288881189
42.70186886,-2.392822742,-2.344966173,-0.5593222976,3.39666137
42.70418735,-2.544766903,-2.386840582,-0.5174478889,3.527123314
42.70650579,-2.557329178,-2.497508526,-0.4169493318,3.598795369
42.70882428,-2.565105915,-2.545963287,-0.4402793646,3.640816301
42.71114277,-2.543570518,-2.645863533,-0.4396811724,3.696439415
42.71346126,-2.471785784,-2.70149684,-0.2811566591,3.672445943
42.71577975,-2.401795626,-2.858824968,-0.1507478207,3.736874005
42.71809819,-2.3216362,-3.034099102,-0.06699903309,3.821026155
42.72041668,-2.171486616,-3.184248686,0.09272187948,3.855306883
42.72273516,-2.059023857,-3.339782238,0.285344094,3.933846196
42.72505366,-1.917249203,-3.522833109,0.4313062727,4.033884322
42.72737209,-1.810768485,-3.664009571,0.685543716,4.144130648
42.72969058,-1.672582984,-3.77049017,1.031306505,4.251790572
42.73199616,-1.47158587,-3.899702787,1.435095429,4.408258805
42.73432756,-1.270588875,-4.067200184,1.947757602,4.685111856
42.73664605,-1.089332461,-4.210769653,2.418545485,4.976604118
42.73895157,-0.8464609981,-4.362713814,2.917448997,5.316133623
42.74128298,-0.59940207,-4.504488468,3.522234917,5.749420667
42.74360147,-0.3810569942,-4.633102894,4.111467361,6.206046304
42.74590704,-0.2189432681,-4.805386066,4.734199524,6.749245627
42.74823845,-0.08853443712,-4.907081127,5.408377171,7.303275098
42.75055688,-0.03409772366,-5.00040102,6.096911907,7.885271576
42.75286246,0.01196411345,-5.142774105,6.771090031,8.502701267
42.75519386,-0.04067798331,-5.306084156,7.315456867,9.037261363
42.75751235,-0.1968096644,-5.491528034,7.782655716,9.527084769
42.75981787,-0.4384847581,-5.717051506,8.288139343,10.07820423
42.76214928,-0.7579265833,-6.035296917,8.749954224,10.65649851
42.76446777,-1.272383451,-6.37388134,9.192028046,11.2578285
42.76677334,-1.948953986,-6.753741741,9.703494072,11.98203849
42.7691047,-2.757129908,-7.107281685,10.472188,12.95306681
42.77142319,-3.709473372,-7.445267677,11.44845963,14.15130493
42.77372876,-4.92502737,-7.923233986,12.2614212,15.40701078
42.77606017,-6.29790926,-8.35274601,12.96850014,16.66175329
42.77837866,-7.777870178,-8.795417786,13.38245869,17.80294467
42.78068418,-8.919844627,-9.339784622,13.6157589,18.76656855
42.78301558,-9.76211834,-9.984052658,13.63669586,19.51767753
42.78533407,-10.24187946,-10.62532902,13.09292698,19.72862004
42.78763964,-10.23769188,-11.12662506,12.42473125,19.57002982
42.78997105,-9.838089943,-11.69492054,11.3635149,19.04438634
42.79228949,-9.029315948,-12.00000572,10.30469036,18.21305376
42.79459506,-8.027919769,-12.15194988,9.021539688,17.13200397
42.79692647,-6.942176819,-12.13280678,7.972286701,16.09211529
42.79924496,-5.682355404,-11.99880886,7.438089371,15.21794173
42.80155048,-4.362713814,-11.90548897,7.353742123,14.65781234
42.80388188,-3.046063185,-11.84506989,7.732406139,14.46977146
42.80620037,-1.9812572,-11.9348011,7.919046402,14.45946587
42.80850595,-1.340578914,-12.0155592,8.049455643,14.52461878
42.81083735,-1.024726272,-11.96949673,8.342576027,14.62591845
42.81315579,-1.036690354,-11.79123211,8.679964066,14.67820349
42.81546136,-1.177268744,-11.56810093,8.815158844,14.59157107
42.81779277,-1.315454245,-11.3892374,8.817551613,14.46355299
42.82011126,-1.57866478,-11.10748291,8.574680328,14.12067639
42.82241678,-1.80658114,-10.67677498,8.235497475,13.60443597
42.82474819,-2.127219439,-10.28674412,7.662416458,13.00210725
42.82706668,-2.410768747,-9.804591179,7.012764931,12.29311539
42.82937225,-2.550748825,-9.227322578,6.520441532,11.58300304
42.83170366,-2.498106956,-8.69910717,5.935396671,10.8233053
42.83402209,-2.507678032,-8.133802414,5.324628353,10.03986344
42.83632767,-2.470589399,-7.619943619,4.916054249,9.398667039
42.83865907,-2.383251429,-7.186244488,4.503890514,8.809485057
42.84097756,-2.347957134,-6.777669907,4.128815651,8.276281215
42.84328313,-2.276172638,-6.368497372,3.940380573,7.827216601
42.84561449,-2.224726915,-6.078966141,3.729214191,7.470627663
42.84793298,-2.496910334,-5.860022545,3.701098442,7.366990913
42.85023855,-2.843869686,-5.580062389,3.762713671,7.306346914
42.85256996,-3.133401155,-5.298307419,3.858426571,7.26482759
42.85488839,-3.320041418,-5.10149765,3.883551121,7.220105442
42.85719397,-3.376870871,-4.957928658,3.991826296,7.205483372
42.85952537,-3.404388428,-4.838287354,4.019343853,7.152203163
42.86184386,-3.271586657,-4.777868748,3.977469444,7.025067416
42.86414938,-3.237488985,-4.685744762,4.124628067,7.032076194
42.86648079,-3.394817114,-4.443471432,4.555934429,7.212888473
42.86879928,-3.422932863,-4.227519512,5.006981373,7.393122012
42.87110485,-3.327818155,-3.965505362,5.39701128,7.47845821
42.87343626,-3.229114056,-3.659224033,5.720640659,7.519496503
42.8757547,-3.139981508,-3.32063961,6.05264473,7.584236251
42.87806027,-3.028715372,-2.914458036,6.298507214,7.572210745
42.88039168,-2.992822886,-2.514258385,6.471987247,7.560760741
42.88271017,-3.075375319,-2.093719721,6.46361208,7.457873473
42.88501574,-3.318845034,-1.667199135,6.353542328,7.359469099
42.88734709,-3.671786308,-1.359721422,5.914459229,7.09307303
42.88966558,-4.170091629,-1.262213945,5.250451088,6.822762261
42.89197116,-4.722833633,-1.420140266,4.512863636,6.684900456
42.89430256,-5.238486767,-1.760519266,3.842274904,6.730843048
42.89662105,-5.763711452,-2.239681959,3.120838881,6.926483978
42.89892657,-6.257829189,-2.872583628,2.439482689,7.305014624
42.90125798,-6.714260101,-3.614358664,1.744367719,7.822256452
42.90357647,-6.976872444,-4.453042984,0.9080761671,8.326520476
42.90588204,-6.563512325,-5.414957523,0.01794617064,8.508923615
42.90821339,-6.354140759,-6.433103561,-0.1878365725,9.044070366
42.91053188,-6.475576401,-7.300501823,-0.02033899166,9.758628504
42.91283746,-6.366104603,-8.300702095,0.2267199457,10.46328557
42.91516886,-6.101099491,-9.489336014,0.8189435601,11.31112645
42.9174873,-5.950351715,-10.76231766,1.721635938,12.41765667
42.91979287,-5.935396671,-12.23390388,2.867797852,13.89681987
42.92212428,-6.088537216,-13.87717533,4.070789337,15.69132265
42.92444277,-6.497111797,-15.67119408,5.55493784,17.85094171
42.92674834,-7.049255371,-17.36590958,7.422535896,20.15839418
42.9290797,-7.654639721,-19.04866219,9.242277145,22.51365646
42.93139819,-8.356334686,-20.9066906,10.58524895,24.879018
42.93370376,-8.953942299,-22.63789749,11.67517948,26.99920927
42.93603516,-9.285946846,-24.33081818,12.19920826,28.75827193
42.93835366,-9.140582085,-26.04647255,12.17049408,30.16769629
42.94065918,-8.23370266,-27.65863609,11.95155048,31.23513357
42.94299058,-6.99063158,-29.00460052,11.2378912,31.88143629
42.94530907,-5.573482037,-29.86601639,10.36510944,32.10106121
42.94761464,-4.083351612,-30.07239723,9.606584549,31.83251957
42.94994605,-2.507678032,-29.64767075,8.663214684,30.98909677
42.95226449,-1.092323542,-28.53620529,7.508677483,29.52775678
42.95457006,0.0568295382,-26.94198608,5.995217323,27.60102307
42.95690147,0.7621139884,-24.91586304,4.250251293,25.28726329
42.95921996,1.024726272,-22.32982063,2.306680918,22.47202105
42.96152548,0.7692924738,-19.16531372,0.03948157281,19.18078778
42.96385688,0.2135594189,-15.68136311,-2.170888424,15.83235652
42.96617537,-0.3080759048,-12.5994072,-4.205984116,13.28646962
42.96848095,-0.813559711,-9.925428391,-5.866602898,11.55824544
42.97081235,-1.325025558,-7.572087288,-7.418946743,10.6833033
42.97313079,-1.747956991,-5.644070625,-8.62014389,10.45073048
42.97543636,-2.227119684,-4.220939159,-9.402596474,10.54443976
42.97776777,-2.740978241,-2.696711063,-9.775876999,10.50490283
42.98008626,-2.973082066,-0.9732806087,-9.623334885,10.11904474
42.98239178,-3.105285645,0.2925225794,-9.12861824,9.646763155
42.98472319,-3.032304525,1.228116274,-8.147561073,8.779857161
42.98704168,-2.919841766,1.569093466,-6.607779503,7.392582783
42.98934725,-2.980260611,1.667199135,-4.74436903,5.845557609
42.99167866,-3.256033421,1.659422517,-3.000599623,4.728534109
42.99399709,-3.597608805,1.509871125,-1.494915962,4.178190237
42.99630266,-3.945166349,1.259222865,-0.2321037948,4.147752635
42.99863407,-4.174279213,0.9104689956,0.9894321561,4.385491618
43.00095256,-4.233501434,0.4402793646,2.223530531,4.802131645
43.00325808,-4.164109707,-0.1657029688,3.286541939,5.307412273
43.00558949,-4.008575916,-0.8715856671,3.975674868,5.712646769
43.00790798,-3.778865099,-1.639083505,4.092923164,5.806757805
43.01021355,-3.408575773,-2.519642353,3.601796389,5.562366728
43.01254496,-2.742773056,-3.39960289,2.464607239,5.015415505
43.01486339,-1.631905079,-4.400400639,0.3589234054,4.706959313
43.01716897,-0.366101861,-5.432305813,-2.389233351,5.94578952
43.01950037,1.010967612,-6.538387775,-5.206781864,8.419213003
43.02181886,2.324028969,-7.602595806,-7.920841217,11.22231256
43.02412444,3.090928555,-8.511270523,-10.22632599,13.65918403
43.02645579,3.748954773,-9.271589279,-11.93659592,15.57239069
43.02877428,4.233501434,-9.805189133,-12.87278748,16.72641401
43.03107985,4.810171604,-10.45902824,-13.15872955,17.48374062
43.03341126,5.345565796,-11.23430252,-13.11984634,18.08079077
43.0357297,5.702096462,-11.87378407,-12.66401386,18.27232605
43.03803527,5.959324837,-12.42353535,-12.01795197,18.28357056
43.04036668,6.046064377,-12.95773315,-11.00698376,18.04470655
43.04268516,6.061019897,-13.60858059,-10.09531879,17.99569086
43.04499069,6.018547058,-14.27079391,-9.175876617,18.00208819
43.04732209,5.891727448,-14.83849144,-8.16610527,17.93261152
43.04964058,5.73200655,-15.43609905,-7.123433113,17.94080133
43.05194616,5.438287735,-16.13241005,-6.257231236,18.13787667
43.05427756,5.168497086,-17.05005836,-5.370092392,18.60794843
43.056596,5.006382942,-17.89233208,-4.37348175,19.08734554
43.05890157,4.825725079,-18.48455429,-3.082553864,19.35118881
43.06123298,4.673182487,-18.89432526,-1.707278967,19.53839714
43.06355147,4.539782524,-19.09233093,-0.5006981492,19.63103218
43.06585704,4.472185612,-19.00559235,0.5096712112,19.53132738
43.06818839,4.393820763,-18.74716759,1.146760225,19.28929787
43.07050688,4.283750534,-18.26381683,1.399801254,18.81161789
43.07281246,4.164109707,-17.65245056,1.27477622,18.18169065
43.07514386,4.033700943,-16.97348785,0.9870393276,17.47410312
43.0774623,3.926621914,-16.23231125,0.6562315822,16.71337572
43.07976787,3.761517286,-15.44507217,0.2584248483,15.89861787
43.08209928,3.539582968,-14.77388477,-0.4450650215,15.19849998
43.08441777,3.318845034,-14.06441307,-0.8338986635,14.47473089
43.08672334,3.034099102,-13.29811192,-1.099501967,13.68409451
43.08905475,2.791227579,-12.57428265,-1.198205948,12.93596664
43.09137319,2.502294302,-11.90429306,-1.190429211,12.22255259
43.09367876,2.190629244,-11.28694439,-1.202991605,11.56032694
43.09601016,1.752742529,-10.74975586,-1.320838094,10.97150722
43.09832866,1.372283816,-10.17308521,-1.533201098,10.37909106
43.10063418,1.011565804,-9.605986595,-1.797608018,9.824949793
43.10296558,0.7818548083,-9.17886734,-1.902892232,9.406588193
43.10528407,0.5294120312,-8.868398666,-1.864607096,9.07774926
43.10758964,0.3332005441,-8.670990944,-1.748555183,8.85181065
43.109921,0.2009970993,-8.635098457,-1.445264935,8.757517681
43.11223949,0.02153540403,-8.619544983,-1.112662554,8.691089543
43.11454506,-0.2039881349,-8.586046219,-1.057627559,8.653344838
43.11687647,-0.4223332107,-8.461619377,-1.02711916,8.534186639
43.11919496,-0.6843472719,-8.332406998,-0.9254241586,8.41152468
43.12150048,-0.9164510965,-8.222934723,-0.8279166222,8.315165903
43.12383188,-1.089930773,-8.216953278,-0.6340979934,8.31314324
43.12615037,-1.253839016,-8.215756416,-0.3828516304,8.319695976
43.12845595,-1.541576028,-8.236095428,-0.1704886109,8.380858603
43.13078735,-1.780858278,-8.246265411,-0.05742774159,8.43656609
43.13310579,-1.947757602,-8.269595146,-0.006580262445,8.495881759
43.13541136,-2.09671092,-8.402397156,0.01196411345,8.660058763
43.13774277,-2.321038008,-8.465806961,0.2111666054,8.780757158
43.14006126,-2.471785784,-8.589036942,0.4390829504,8.948411836
43.14236678,-2.607578516,-8.749954224,0.6394818425,9.152600814
43.14469819,-2.654836655,-8.9479599,0.6119644046,9.353536468
43.14701668,-2.511865616,-9.078967094,0.494716078,9.433019473
43.14933517,-2.343769789,-9.238688469,0.2165504545,9.533809079
43.15165366,-1.98963201,-9.389435768,-0.06580262631,9.598149278
43.15397209,-1.436291814,-9.46361351,-0.35174492,9.578446603
43.15629058,-0.784845829,-9.515657425,-0.5694918036,9.564938061
43.15860907,-0.1842473447,-9.487542152,-0.5688936114,9.506368556
43.16092756,0.327816695,-9.350552559,-0.6370890141,9.377962431
43.16323308,0.7668996453,-9.201001167,-0.5294120312,9.248071942
43.16556449,1.18743825,-9.113663673,-0.3547359705,9.197538407
43.16788298,1.55892396,-8.937192917,-0.233300209,9.075135819
43.17018855,2.008774519,-8.81097126,-0.1974078715,9.039212326
43.17251996,2.451446772,-8.810373306,-0.1549352705,9.146380377
43.17483839,2.709273338,-8.861818314,-0.03290131316,9.266772272
43.17714397,2.834298372,-8.897112846,-0.03589234129,9.337727375
43.17947537,3.024527788,-8.700303078,0.03589234129,9.211098211
43.18179386,3.172882795,-8.346165657,0.05324030295,8.929081752
43.18409944,3.267997503,-8.127820015,-0.01375873014,8.760220042
43.18643079,3.303291559,-8.045268059,0.04307080805,8.697121843
43.18874928,3.375674486,-7.932805061,0.1812563092,8.623075335
43.19105485,3.413959742,-7.975277901,0.2769692242,8.679682636
43.19338626,3.393022537,-8.052446365,0.2009970993,8.740417281
43.1957047,3.369692564,-8.062616348,0.1339980662,8.739483156
43.19802319,3.370290756,-8.067401886,0.1058823988,8.743743137
43.20034168,3.43609333,-8.027919769,0.08673982322,8.732797776
43.20266017,3.477967739,-7.988438606,0.08673982322,8.713147236
43.20497866,3.426522017,-8.032705307,0.06281159073,8.733232676
43.20729709,3.361317635,-8.091927528,0.0580259487,8.762483345
43.20961558,3.228515863,-8.085348129,-0.0005982056609,8.706099552
43.21193407,3.071187973,-8.079963684,-0.06879365444,8.644231676
43.21425256,2.848655462,-7.97467947,-0.04725824669,8.468328285
43.21657105,2.502892494,-7.723433495,0.05264209956,8.11903116
43.21888949,2.168495417,-7.543971539,0.1052841991,7.850156923
43.22120798,1.911267042,-7.545167923,0.1411765367,7.784756355
43.22352647,1.708475351,-7.664809227,0.1597209126,7.854533677
43.22584496,1.51944232,-7.741379261,0.2063809484,7.89178376
43.22816339,1.339980721,-7.841279984,0.2961117923,7.960458674
43.23048188,1.250249863,-7.920242786,0.4576273263,8.031363103
43.23280037,1.159322619,-7.945965767,0.6000002623,8.052477955
43.23511886,1.138983607,-7.941180229,0.7381857634,8.056335725
43.23743735,1.071386337,-7.904689789,0.72323066,8.009684883
43.23975579,0.9990034699,-7.858029366,0.6789634228,7.950322306
43.24207428,0.9541380405,-7.744370461,0.5539384484,7.822563585
43.24439277,0.9541380405,-7.557132244,0.500099957,7.633526519
43.24671126,0.9212366939,-7.399205685,0.5557330847,7.477015519
43.24902975,0.8572286963,-7.371688366,0.6837490797,7.452794322
43.25134819,0.7148557901,-7.427919865,0.7926225066,7.504216332
43.25366668,0.5988038778,-7.569694519,0.8021938205,7.635597954
43.25598517,0.380458802,-7.603792191,0.7908278704,7.654267653
43.25830366,0.1764706671,-7.646862984,0.813559711,7.692043603
43.26062209,0.02512463741,-7.70788002,0.860219717,7.755773566
43.26294058,-0.1507478207,-7.731209755,0.8967102766,7.784498603
43.26525907,-0.3218346536,-7.735397339,0.8285148144,7.786294776
43.26757756,-0.4648058116,-7.743772507,0.7226324677,7.791293523
43.26989605,-0.4767699242,-7.782655716,0.5748756528,7.818409146
43.27221449,-0.4522434771,-7.767700672,0.4462614357,7.793641457
43.27453298,-0.3750749528,-7.752147198,0.366101861,7.769845428
43.27685147,-0.2458625287,-7.725227833,0.204586342,7.731846417
43.27916996,-0.02811566554,-7.763513088,-0.04067798331,7.763670566
43.28148839,0.2153540403,-7.907082558,-0.2673979402,7.914533062
43.28380688,0.4785645306,-8.069195747,-0.4689932466,8.096968487
43.28612537,0.7064808607,-8.155337334,-0.6329016089,8.210310998
43.28844386,0.9122636318,-8.309076309,-0.7537391186,8.392919439
43.29076235,1.051047325,-8.513064384,-0.7274180651,8.608490154
43.29308079,1.05822587,-8.651848793,-0.6023930907,8.737116628
43.29539928,0.9535398483,-8.745168686,-0.3308077157,8.80321801
43.29771777,0.7651050687,-8.945567131,0.06041877344,8.978430124
43.30003626,0.4528416991,-9.18245697,0.4743770957,9.205846797
43.30235475,0.03589234129,-9.421739578,0.9397810698,9.468561316
43.30467319,-0.4510470629,-9.739984512,1.400399446,9.850475134
43.30699168,-0.9858429432,-10.00678444,1.735992789,10.20398413
43.30929725,-1.509272933,-10.2969141,2.015354872,10.60028302
43.31162866,-1.916650891,-10.28195858,2.126022816,10.67296566
43.31394709,-2.2259233,-10.27956581,2.047059774,10.71516036
43.31625266,-2.529213428,-10.28734303,1.820339799,10.7489527
43.31858407,-2.710469961,-10.36451149,1.423131227,10.80717578
43.32090256,-2.766701221,-10.46740246,1.012762189,10.87413616
43.32320808,-2.691327333,-10.46142101,0.5413761139,10.81562113
43.32553949,-2.516651154,-10.42433167,0.1136590764,10.72441803
43.32785798,-2.264208317,-10.29930687,-0.2811566591,10.54900044
43.33016355,-1.893320918,-10.17607689,-0.6173482537,10.36910429
43.33249496,-1.406381488,-10.06899738,-0.94277215,10.21035927
43.33481339,-0.7543373108,-9.93918705,-1.229312658,10.04328998
43.33711897,-0.005383851007,-9.840482712,-1.505085468,9.954918948
43.33945037,0.798604548,-9.68315506,-1.770688772,9.876061961
43.34176886,1.621735573,-9.524630547,-2.04586339,9.875938959
43.34407438,2.37248373,-9.367900848,-2.207378864,9.912556018
43.34640579,3.057429075,-9.236893654,-2.30189538,9.998339825
43.34872428,3.61615324,-9.098708153,-2.279163599,10.05274296
43.35102985,4.10309267,-8.943174362,-2.24267292,10.09184418
43.35336126,4.438685894,-8.825327873,-2.226521492,10.12648717
43.3556797,4.645665169,-8.738588333,-2.167897224,10.1313824
43.35798527,4.727021217,-8.779266357,-2.033301115,10.17617614
43.36031668,4.683950424,-8.8474617,-1.804188251,10.17212197
43.36263516,4.554738045,-8.907281876,-1.557129383,10.12472029
43.36494074,4.311866283,-9.003593445,-1.258026481,10.06178495
43.36727209,3.989433527,-9.17886734,-0.9972088337,10.05791285
43.36959058,3.607180119,-9.446265221,-0.6406782866,10.13183812
43.37190907,3.227319479,-9.805787086,-0.2602194548,10.32650791
43.37422756,2.865405083,-10.14915752,0.1734796464,10.54732383
43.376546,2.351546526,-10.43928719,0.352343142,10.70666305
43.37885157,1.835893154,-10.6480608,0.5306084156,10.81819059
43.38118298,1.395015597,-10.82213879,0.7423732281,10.93690424
43.38350147,1.043868899,-10.93519974,0.8925228715,11.02110941
43.38580704,0.745962441,-11.06201935,1.015154958,11.13352018
43.38813839,0.5318048596,-11.11525917,1.032503009,11.17577135
43.39045688,0.4139583111,-11.12303638,0.950548768,11.17125073
43.39276246,0.4163511395,-11.16132164,0.745962441,11.19396753
43.39509386,0.5204389095,-11.23669529,0.4803591371,11.25899297
43.39741235,0.7178468108,-11.3952198,0.2111666054,11.41976049
43.39973079,0.9720842242,-11.93779182,0.02213360928,11.97732488
43.40204928,1.175474167,-12.2356987,-0.03589234129,12.29208487
43.40436777,1.381256819,-11.62552929,-0.2775674164,11.71058689
43.40668626,1.65762794,-11.54297638,-0.566500783,11.67514271
43.4090047,1.916052699,-11.67637634,-0.8015955687,11.8596618
43.41132319,2.181656122,-11.73799133,-0.9990034699,11.98073754
43.41364168,2.4173491,-11.9348011,-1.220339537,12.23814866
43.41596016,2.635095835,-12.20339584,-1.335793257,12.5559127
43.4182786,2.780459881,-12.2674036,-1.390828133,12.65521834
43.42059709,2.852244616,-12.2799654,-1.414158225,12.685925
43.42291558,3.001796007,-12.33918858,-1.326820135,12.76819508
43.42523407,3.03888464,-12.34277725,-1.211964726,12.76901831
43.42755256,3.059821844,-12.27936745,-1.054038405,12.69867598
43.429871,2.974876642,-12.18066406,-0.917647481,12.57221321
43.43218949,2.904886723,-12.14297676,-0.708275497,12.50567494
43.43450798,2.758924484,-12.06939697,-0.5766702294,12.39413394
43.43682647,2.650051117,-11.98086262,-0.3589234054,12.27569411
43.43914496,2.492722988,-11.85404301,-0.1136590764,12.11383184
43.44146339,2.407179594,-11.76431274,0.1100698411,12.00856708
43.44378188,2.26540494,-11.66142082,0.2267199457,11.88159068
43.44610037,2.159522533,-11.64945698,0.3547359705,11.85323682
43.44841886,2.054238319,-11.690135,0.4731806815,11.87868054
43.45073735,2.038684845,-11.690135,0.6400800347,11.88382071
43.45305579,2.018944025,-11.71406364,0.8021938205,11.91381286
43.45537428,2.040479422,-11.84865952,0.9750752449,12.06254784
43.45769277,2.045265198,-12.08794212,1.130010486,12.31171711
43.46001126,2.095514536,-12.41755295,1.271187067,12.65712127
43.4623297,2.123031855,-12.74836063,1.349551916,12.99420076
43.46464819,2.188834429,-13.10249901,1.429113269,13.36072008
43.46696668,2.277369022,-13.43629742,1.523031592,13.71277226
43.46927225,2.339582443,-13.82812214,1.573879123,14.11267882
43.47160366,2.471187592,-14.31506157,1.660020709,14.62133457
43.47392209,2.530410051,-14.77926922,1.687538147,15.08898799
43.47622766,2.580060959,-15.20578957,1.638485312,15.50991248
43.47855907,2.651845694,-15.56890011,1.613360643,15.87532263
43.48087756,2.682952404,-15.856637,1.620539188,16.16345625
43.48318308,2.782254457,-16.03131294,1.741974831,16.36393629
43.48551449,2.868994236,-16.1013031,1.805384636,16.45425486
43.48783298,2.918645382,-16.00858116,1.910070658,16.38418541
43.49015147,3.028116941,-15.8380928,1.995614052,16.24798915
43.49246996,3.126222849,-15.59581947,2.089532375,16.0427242
43.49478839,3.236292601,-15.28056526,2.207977057,15.77480356
43.49710688,3.384049416,-14.95992756,2.355135679,15.51766371
43.49942537,3.461816072,-14.67936897,2.420340061,15.27501522
43.50174386,3.449253798,-14.22832203,2.588435888,14.8674981
43.50406235,3.454637766,-13.7856493,2.800200701,14.48515698
43.50638079,3.431905985,-13.48355579,2.916850805,14.21591623
43.50869928,3.393620729,-13.30170155,2.94377017,14.03986141
43.51101777,3.381656647,-13.19641685,2.890529871,13.92609717
43.51333626,3.366103172,-13.08694553,2.656033039,13.77146708
43.5156547,3.450450182,-13.12403393,2.385046005,13.7780375
43.51797319,3.529413462,-13.17488194,2.200200319,13.81575748
43.52029168,3.645465374,-13.22991657,2.158325911,13.89166948
43.52261016,3.768097401,-13.34716511,2.126621008,14.03096188
43.52492866,3.8213377,-13.52363491,2.004587173,14.19541097
43.52724709,3.861417532,-13.67677593,1.695913076,14.3122628
43.52956558,3.884747505,-13.73480225,1.339382529,14.33631757
43.53188407,3.877569199,-13.74497128,1.0863415,14.32270631
43.53420256,3.822534084,-13.64566898,1.04685986,14.20957298
43.53652105,3.73160696,-13.47936821,1.164108157,14.03472143
43.53883949,3.59102869,-13.26162148,1.371087432,13.80746074
43.54115798,3.425325632,-13.02532959,1.587637782,13.5614402
43.54347647,3.177070379,-12.72263813,1.845464468,13.24254644
43.54579496,2.88993144,-12.42652607,2.140978098,12.93653899
43.54811345,2.586043119,-12.20758247,2.466402054,12.7198989
43.55043188,2.2259233,-12.01854992,2.761915445,12.53109946
43.55275037,1.875374794,-11.84865952,3.120240688,12.39530818
43.55506886,1.478166223,-11.71286678,3.41635251,12.29014598
43.55738735,1.043868899,-11.93420315,3.638286829,12.52006382
43.55969287,0.6580262184,-12.3607235,3.656831264,12.90708715
43.56202428,0.3332005441,-12.73280716,3.757329702,13.27979395
43.56434277,-0.008374879137,-13.164114,3.757329702,13.68983177
43.56664834,-0.2733799815,-13.58345604,3.676572084,14.07487822
43.56897975,-0.4636093974,-13.90050507,3.396013498,14.31683912
43.57129819,-0.6173482537,-14.22712517,2.857628345,14.52440185
43.57360376,-0.6999006271,-14.68176174,2.125424623,14.85131033
43.57593517,-0.7914260626,-15.10768414,1.164706469,15.17316764
43.57825366,-0.8350951076,-15.47617912,0.1034895778,15.49903914
43.58055923,-0.8638089895,-15.69512177,-1.001994491,15.75077795
43.58289058,-0.8715856671,-15.7932272,-2.117648125,15.95838715
43.58520907,-0.7902296782,-15.85065556,-3.156133175,16.18112855
43.58751464,-0.6191428304,-15.90569019,-4.098905087,16.43701132
43.58984605,-0.4061816335,-15.97926998,-4.835894585,16.699938
43.59216454,-0.1914258152,-16.11446381,-5.586642742,17.05646988
43.59447006,-0.05204389244,-16.3148632,-6.290132523,17.48551507
43.59680147,-0.0185443759,-16.51645851,-6.856035233,17.88292383
43.59911996,-0.03469592705,-16.70010757,-7.241279602,18.20249783
43.60142553,-0.09092725813,-16.86521149,-7.378866673,18.40900051
43.60375694,-0.156729877,-17.11107445,-7.334599495,18.61745908
43.60607537,-0.2883351147,-17.38804436,-7.238288403,18.83666751
43.60838095,-0.4803591371,-17.58485413,-7.100701332,18.97044541
43.61071235,-0.693320334,-17.72363663,-6.848856449,19.01354315
43.61303084,-0.980459094,-17.81576157,-6.382854462,18.95002616
43.61534933,-1.241874933,-17.84028816,-5.817550182,18.805904
43.61766777,-1.514656782,-17.85943031,-5.042275429,18.61929047
43.61998626,-1.789233088,-17.83071709,-4.238286972,18.41463829
43.62229183,-2.016551256,-17.77687836,-3.400799274,18.21124155
43.62462324,-2.336591244,-17.62971878,-2.565704107,17.9680127
43.62694173,-2.659622431,-17.41017723,-1.721037745,17.69604005
43.62924725,-3.010170937,-17.18106461,-0.9385846853,17.46800078
43.63157866,-3.33439827,-17.02433395,-0.2512463629,17.34961911
43.63389714,-3.6299119,-16.90947914,0.5419743061,17.30319281
43.63620272,-3.954737663,-16.78624916,1.378265858,17.30080136
43.63853407,-4.214957237,-16.73300934,2.128415823,17.38647808
43.64085256,-4.411168575,-16.67438507,2.670390129,17.45349561
43.64315813,-4.584050179,-16.42313766,3.168097258,17.34271625
43.64548954,-4.642673969,-16.17787361,3.752544165,17.24411795
43.64780803,-4.664209366,-16.02413559,4.151547432,17.19776487
43.65011355,-4.570291042,-15.93440437,4.681557655,17.22526589
43.65244496,-4.332205296,-15.78844166,5.421537876,17.24633195
43.65476345,-4.061218262,-15.62333679,5.618945599,17.09253334
43.65706902,-3.856033802,-15.47558022,5.09013176,16.74132674
43.65940042,-3.756133318,-15.55274868,3.617349625,16.40371139
43.66171886,-3.750151396,-15.6179533,1.862214208,16.16947564
43.66402444,-3.677170277,-15.43669701,0.4642075896,15.87541131
43.66635584,-3.668197155,-15.34337711,-1.005583763,15.80778575
43.66867433,-3.744169235,-15.29432392,-2.390429735,15.92637127
43.67097985,-3.762713671,-15.11905003,-3.669991732,16.0066401
43.67331126,-3.832105398,-14.83011627,-4.97467804,16.1048068
43.67562975,-3.83569479,-14.40479279,-5.898906231,16.03145983
43.67793532,-3.762713671,-14.04467297,-6.625127792,15.97820926
43.68026673,-3.698107481,-13.73659706,-7.29990387,15.98933064
43.68258517,-3.524029493,-13.52662659,-7.724031448,15.97025587
43.68489074,-3.162115097,-13.28794193,-7.841877937,15.75002928
43.68722214,-2.79421854,-13.14975643,-7.782655716,15.53362422
43.68954063,-2.45683074,-13.05942822,-7.298707485,15.16099646
43.69184621,-2.152343988,-12.91167068,-6.50010252,14.61489505
43.69417756,-1.93340075,-12.62094307,-5.593821049,13.93976601
43.69649605,-1.727617979,-12.19681549,-4.674977303,13.17582577
43.69880162,-1.466202021,-11.68893814,-3.755535126,12.36467013
43.70113303,-1.222134113,-11.08654594,-2.789433002,11.4972192
43.70345152,-1.067797065,-10.49013424,-1.986042738,10.72974709
43.70575709,-0.9463613629,-10.0019989,-1.497906923,10.15772155
43.70808845,-0.8057830334,-9.608977318,-1.208375454,9.718122382
43.71040694,-0.6113662124,-9.310472488,-0.8937192559,9.37322787
43.71271251,-0.4031906128,-9.007183075,-0.3601198196,9.023391596
43.71504392,-0.3176472187,-8.659625053,-0.299701035,8.670630112
43.71736235,-0.06221338734,-8.398807526,-0.2949153781,8.404214029
43.71966792,0.3493520916,-8.423334122,-0.3864408433,8.439427773
43.72199933,0.8159525394,-8.513663292,-0.5389832854,8.569640843
43.72431782,1.31425786,-8.64526844,-0.4618147612,8.756780973
43.72662339,1.761715651,-8.933005333,-0.5988038778,9.124735196
43.72895475,2.05722928,-8.979664803,-0.9726824164,9.263513554
43.73127324,2.465205431,-9.139386177,-1.969891191,9.668820446
43.73357881,2.958725214,-9.346963882,-3.380460262,10.37050145
43.73591022,3.21356082,-9.367302895,-4.78085947,10.99681563
43.73822871,3.367897987,-9.255437851,-6.010770321,11.53842392
43.74053423,3.390629768,-9.036494255,-7.142575741,12.00712234
43.74286563,3.308675528,-8.578866959,-8.001000404,12.18853147
43.74518412,3.317648649,-7.967501163,-7.466204643,11.41192706
43.7474897,3.378067255,-7.320840836,-6.406184196,10.29782719
43.7498211,3.31465745,-6.758527756,-5.633302689,9.402060977
43.75213954,3.100499868,-6.31226635,-5.409573555,8.872502012
43.75444511,2.81695056,-6.044867992,-5.452046394,8.613968272
43.75677652,2.449054003,-5.789434433,-5.609972477,8.425390659
43.75909501,2.11585331,-5.4652071,-4.909473896,7.645146029
43.76140058,1.896910191,-5.222335339,-3.31465745,6.469776555
43.76373199,1.757528186,-5.14097929,-1.733001828,5.702794817
43.76605042,1.620539188,-5.161318302,-0.6275177598,5.446019869
43.768356,1.453639746,-5.169095039,0.01495514158,5.36962156
43.77068741,1.298106313,-5.124229908,0.2662015259,5.292794668
43.77300589,1.116850019,-4.926821709,0.1914258152,5.055449531
43.77531142,0.9607182741,-4.6432724,-0.2368894368,4.747533548
43.77764282,0.950548768,-4.264009953,-0.1872383654,4.372685907
43.77996131,0.9846464992,-3.965505362,-0.1076770201,4.087340926
43.78226688,0.9888339639,-3.748954773,-0.1525424421,3.880170575
43.78459829,1.026520967,-3.633501291,-0.4630111754,3.804005294
43.78691673,1.071386337,-3.580260992,-0.8440681696,3.831264612
43.7892223,1.085145116,-3.45583415,-1.198205948,3.815236178
43.79155371,1.106680512,-3.287738323,-1.504487276,3.781196504
43.7938722,1.112064362,-3.090928555,-1.630110383,3.667122351
43.79617777,1.079761267,-2.904886723,-1.760519266,3.564222124
43.79850912,1.049850941,-2.674577475,-1.71924305,3.348335158
43.80082761,1.001396298,-2.459821701,-1.721037745,3.164725623
43.80313319,0.9672985673,-2.258824587,-1.718046665,2.998272732
43.80546459,0.8805587292,-2.049452543,-1.682154298,2.793793565
43.80778308,0.7417750359,-1.850848317,-1.656431437,2.592225839
43.8100886,0.5539384484,-1.629512191,-1.616949916,2.361500543
43.81242001,0.4354937077,-1.45483613,-1.695314884,2.27602625
43.8147385,0.2153540403,-1.277169108,-1.569691658,2.035060244
43.81704407,-0.09571290761,-0.851246655,-1.012762189,1.326449803
43.81937548,-0.3499503136,-0.3619144261,-0.6610172391,0.8308977459
43.82169392,-0.5934200287,-0.3098705411,-0.8398807645,1.074042262
43.82399949,-0.879960537,-0.4606183469,-0.8506484628,1.307708918
43.82633089,-1.146162033,-0.5198407173,-0.7860422134,1.483841009
43.82864938,-1.330409408,-0.5916253924,-0.7680960894,1.646202114
43.83095496,-1.435693622,-0.7531409264,-0.8153542876,1.814728642
43.83328636,-1.46321106,-0.9601200819,-0.8428717852,1.942485527
43.8356048,-1.549950838,-1.125224829,-0.8709874153,2.104066917
43.83792329,-1.622333765,-1.261615753,-0.903888762,2.245140541
43.84024178,-1.772483349,-1.341775298,-0.9762716293,2.427995978
43.84256027,-1.917249203,-1.393819213,-1.13419795,2.627733147
43.84487876,-2.053041935,-1.440479279,-1.312463164,2.830639733
43.8471972,-2.209173441,-1.46321106,-1.375274777,2.985433739
43.84951569,-2.350948334,-1.490728498,-1.466800332,3.146542982
43.85183418,-2.434697151,-1.540977836,-1.553540111,3.27350726
43.85415266,-2.517249346,-1.653440475,-1.581655741,3.401770797
43.8564711,-2.601596355,-1.732403636,-1.563111424,3.494687866
43.85878959,-2.627917528,-1.829312921,-1.500299811,3.53599149
43.86110808,-2.635095835,-1.944168448,-1.423131227,3.570549468
43.86342657,-2.547159672,-2.085943222,-1.216750264,3.509937709
43.86574506,-2.447857618,-2.285145521,-1.075573802,3.517208549
43.8680635,-2.339582443,-2.455035925,-0.9110672474,3.511536833
43.87038199,-2.193022013,-2.638087034,-0.7417750359,3.509854549
43.87270048,-1.990828395,-2.820539713,-0.4426721931,3.480632219
43.87501897,-1.832303882,-2.950948477,-0.1351944804,3.476163399
43.87733746,-1.53080833,-3.120838881,0.3170489967,3.490491302
43.87964298,-1.197009563,-3.275176048,0.8458628058,3.588188112
43.88197438,-0.9296116233,-3.421736479,1.326820135,3.785882984
43.88429287,-0.6885347366,-3.534797192,1.892124534,4.068047015
43.88659845,-0.4223332107,-3.68075943,2.50169611,4.470440554
43.88892985,-0.1615155339,-3.793820381,3.172284603,4.947984434
43.89124834,-0.004187439568,-3.976871252,3.757329702,5.471110398
43.89355386,0.08673982322,-4.174877167,4.388436794,6.057681128
43.89588527,0.1369891018,-4.307080746,5.048855782,6.637820069
43.89820376,0.08195417374,-4.407579422,5.760122299,7.253446198
43.90050933,0.0143569354,-4.576273441,6.427719593,7.890377931
43.90284074,-0.1441675574,-4.751547337,7.110272408,8.553008832
43.90515918,-0.3499503136,-4.951946259,7.887341499,9.319570424
43.90746475,-0.650847733,-5.188237667,8.702097893,10.15223722
43.90979616,-1.032503009,-5.464608669,9.640084267,11.1292064
43.91211464,-1.432104349,-5.793622017,10.62652493,12.18769916
43.91442016,-1.910070658,-6.216553211,11.44606686,13.16458698
43.91675157,-2.48733902,-6.751947403,12.10768223,14.08444596
43.91907006,-3.180659533,-7.373483181,12.4498558,14.81498427
43.92137563,-4.019941807,-7.96391201,12.5563364,15.40277282
43.92370704,-4.954339504,-8.67816925,12.41994572,15.94086425
43.92602548,-5.66740036,-9.318847656,12.46122169,16.56026554
43.92833105,-6.416353703,-9.899106979,11.95753288,16.79715769
43.93066246,-6.982854843,-10.47517967,11.33719349,16.94171205
43.93298095,-7.101299286,-11.12722397,10.92084217,17.13208564
43.93528652,-7.111468792,-11.5896368,10.16590691,16.97758324
43.93761787,-6.929016113,-11.96172047,9.40199852,16.71800218
43.93993636,-6.360720634,-12.23270798,8.946763992,16.43601221
43.94224194,-5.590231895,-12.42174053,8.682356834,16.15344083
43.94457334,-4.690530777,-12.62632656,8.429315567,15.88957401
43.94689183,-3.957728624,-12.67717457,8.107481003,15.55974354
43.94919735,-3.029911757,-12.76570892,8.168498039,15.45535667
43.95152876,-2.196611166,-12.90449238,8.215158463,15.45444443
43.95384725,-1.543370605,-13.06720448,8.160123825,15.4829405
43.95615282,-1.034297585,-13.28973675,8.442476273,15.77853859
43.95848423,-0.8733802438,-13.34297752,8.811569214,16.01379387
43.96080272,-0.980459094,-13.32622719,9.040083885,16.13297083
43.96310824,-1.305882931,-13.13181114,9.121439934,16.04214638
43.96543964,-1.836491346,-12.87518024,9.034101486,15.83533885
43.96775813,-2.400599241,-12.52881908,8.654241562,15.41525483
43.97007662,-2.959921598,-12.12084293,8.011768341,14.82782524
43.97239511,-3.513261795,-11.68355465,7.211967468,14.1725415
43.97471355,-3.951746702,-11.29232788,6.460621357,13.59678636
43.97701912,-4.228117466,-10.90170002,5.759523869,13.03442196
43.97935053,-4.424927235,-10.51286602,5.239683151,12.55207602
43.98166902,-4.579264164,-10.12343407,4.777270317,12.09445696
43.98397454,-4.62891531,-9.727422714,4.31126833,11.60330316
43.98630595,-4.594219685,-9.29432106,3.922434568,11.08497864
43.98862444,-4.545166492,-8.885746956,3.614358664,10.61501889
43.99093001,-4.454239368,-8.471788406,3.378665686,10.15021325
43.99326142,-4.348356724,-8.084749222,3.166302681,9.710656458
43.99557985,-4.208974838,-7.702496052,3.026322365,9.284532388
43.99788542,-4.05523634,-7.363313675,2.939582586,8.905306049
44.00021683,-3.944568157,-7.014559746,2.861815929,8.541291283
44.00253532,-3.85244441,-6.647859573,2.69312191,8.141760895
44.00484089,-3.763311863,-6.180062771,2.571087837,7.678944244
44.00717225,-3.775275946,-5.666802406,2.414956331,7.22477488
44.00949074,-3.777070522,-5.210969448,2.349751949,6.851408508
44.01179631,-3.799802303,-4.716253281,2.335993052,6.491410177
44.01412772,-3.869194269,-4.243072987,2.313261271,6.19076008
44.01644621,-3.896113396,-3.786641836,2.376072884,5.929930719
44.01875173,-3.996612072,-3.270390272,2.538784742,5.754458146
44.02108313,-4.140181541,-2.76371026,2.772084951,5.697688354
44.02340162,-4.279563427,-2.229512453,2.967100143,5.66472172
44.0257072,-4.386044025,-1.698305845,3.233899832,5.707865894
44.0280386,-4.570291042,-1.101894855,3.443271875,5.827336758
44.03035704,-4.840680122,-0.4642075896,3.607778311,6.0550588
44.03266261,-5.167898655,0.142971158,3.695714474,6.354991954
44.03499402,-5.542375565,0.7160521746,3.926621914,6.830008585
44.03731251,-5.953940868,0.965503931,3.949951887,7.209974314
44.03961808,-6.330212116,0.8943174481,4.047459602,7.566592256
44.04194944,-6.634698868,0.3248256743,4.015156269,7.761843895
44.04426792,-6.82433033,-0.4474578202,3.990629911,7.91813299
44.0465735,-6.937989235,-1.497906923,3.787240028,8.045036159
44.0489049,-6.919445038,-2.525026083,3.623331785,8.208715465
44.05122339,-6.762714863,-3.669991732,3.19382,8.330884576
44.05352892,-6.54018259,-4.923830986,2.747558594,8.635228898
44.05586032,-6.412764549,-6.372684956,2.244467735,9.315164954
44.05817881,-6.248856544,-7.871788502,2.151147604,10.2781661
44.06048438,-5.966503143,-9.415159225,2.923431158,11.52349048
44.06281579,-5.624927998,-11.10688496,3.267997503,12.87177207
44.06513428,-5.531607628,-13.01516056,3.817150354,14.64799386
44.0674398,-5.600999832,-15.13280869,4.48534584,16.74787823
44.06977121,-5.902495384,-17.56810379,6.022136211,19.4870174
44.0720897,-6.455835342,-19.75813484,7.755138397,22.18566821
44.07439527,-7.057630539,-21.90030861,10.13180923,25.14134492
44.07672668,-7.713861942,-24.26023102,12.21296692,28.23506749
44.07904511,-8.29890728,-26.52084923,12.81117249,30.59989291
44.08135069,-8.504091263,-28.4620266,11.9407835,32.01544685
44.08368209,-8.219346046,-30.11068153,10.40040398,32.89953183
44.08600058,-7.443472862,-31.65584755,8.977870941,33.73573979
44.08830616,-6.220142365,-33.03470993,8.459824562,34.6633937
44.09063751,-4.706083775,-34.02593613,9.086145401,35.53124811
44.092956,-2.786442041,-34.44528198,10.21316528,36.03540558
44.09526157,-0.7914260626,-34.01218033,11.05244732,35.77165579
44.09759298,1.269990563,-32.25883865,11.23968601,34.18444221
44.09991147,3.193221807,-29.14099121,10.49910736,31.13880681
44.10221699,4.459623337,-25.12882614,8.453244209,26.88500476
44.10454839,4.786243439,-20.68954086,4.999204636,21.81644504
44.10686688,4.365106583,-16.51944923,1.10608232,17.12220128
44.10917246,3.657429457,-13.04148197,-2.374876499,13.75125742
44.11150386,2.746362209,-10.02712345,-5.114060402,11.58616951
44.1138223,1.773679733,-7.341179848,-7.42672348,10.59221804
44.11612787,0.8943174481,-4.320241451,-9.265008926,10.26180687
44.11845928,0.1878365725,-2.029711723,-10.77069283,10.96188105
44.12077777,-0.4378865361,-0.3176472187,-12.08614731,12.09824785
44.12308334,-0.9314061999,0.8608179688,-12.69093323,12.75414879
44.1254147,-1.324427366,1.687538147,-12.71486092,12.89455625
44.12773319,-1.60378933,2.421536446,-11.84985638,12.20061782
44.13003876,-1.73898387,2.864208698,-10.03609657,10.58068952
44.13237017,-2.012363911,3.25005126,-8.105088234,8.96129996
44.13468866,-2.500499725,3.439084291,-6.045466423,7.391039434
44.13699418,-3.013161898,3.191427231,-3.744169235,5.769155541
44.13932558,-3.494119167,2.684148788,-1.569691658,4.677334217
44.14164407,-4.022335052,2.118844509,0.6717849374,4.595647542
44.14394964,-4.498506546,1.621735573,2.898904562,5.591979531
44.14628105,-4.819743156,1.075573802,4.884349346,6.945765014
44.14859954,-5.005186558,0.5072783828,6.685546398,8.366944154
44.15090506,-5.045864582,-0.1585244983,7.944769382,9.413035639
44.15323647,-4.942375183,-1.087537885,8.219346046,9.65232928
44.15555496,-4.526023865,-2.136192322,7.329215527,8.874999149
44.15786053,-3.555734396,-3.212364435,5.141577721,7.028396248
44.16019194,-2.08235383,-4.302893162,1.575673699,5.033272757
44.16251037,-0.5629115105,-5.471189022,-2.796013355,6.169965103
44.16481595,0.7836494446,-6.748956203,-7.163512707,9.873116559
44.16714735,2.036890268,-8.20498848,-10.61934662,13.57355077
44.16946584,2.984447956,-9.416355133,-13.06301689,16.37733446
44.17177136,3.967299938,-10.5732851,-14.77807236,18.59906582
44.17410277,4.803591251,-11.59322548,-15.85065556,20.21684069
44.17642126,5.428716183,-12.4241333,-16.08216095,21.03487458
44.17872683,5.916254044,-13.16112232,-15.62872124,21.27143931
44.18105824,6.259624004,-13.79462242,-14.72483253,21.12569984
44.18337673,6.507281303,-14.35334682,-13.40638733,20.69044456
44.18568225,6.570691109,-14.77209091,-12.17169094,20.23706283
44.18801366,6.546164513,-15.24646759,-11.13858986,19.98437459
44.19033214,6.402595043,-15.79502201,-9.885947227,19.70299206
44.19263772,6.185446739,-16.34537125,-8.419744492,19.39904662
44.19496912,5.958128452,-17.04347801,-6.866204739,19.31642319
44.19728756,5.702096462,-17.59921074,-5.252245903,19.23102207
44.19959313,5.419743061,-18.08734703,-3.515056372,19.20628436
44.20192454,5.31027174,-18.66820335,-1.612762451,19.47567214
44.20424303,5.196612358,-18.9750843,-0.1142572835,19.67413681
44.2065486,5.062016487,-19.03430557,0.8392825127,19.71378185
44.20887996,4.986642361,-18.89552307,1.424327731,19.59428753
44.21119845,4.947160721,-18.53121567,1.660020709,19.25190957
44.21350402,4.936991215,-17.99821281,1.746760488,18.7446184
44.21583542,4.873581409,-17.30848312,1.464407444,18.04106075
44.21815392,4.752744198,-16.54397583,0.9613165259,17.23994905
44.22045944,4.595416069,-15.65982819,0.4815555513,16.32727667
44.22279084,4.42672205,-14.74277878,0.07298108935,15.39320371
44.22510933,4.272384644,-13.83889008,-0.2883351147,14.48624472
44.2274149,4.064807415,-13.06241894,-0.7537391186,13.70100619
44.22974631,3.832105398,-12.43908882,-1.117448211,13.06386822
44.23206475,3.56530571,-11.83609676,-1.358525038,12.43584262
44.23437032,3.332005501,-11.27019501,-1.436291814,11.83986868
44.23670173,3.098705292,-10.74736309,-1.356132269,11.26707072
44.23902022,2.869592667,-10.27178955,-1.161117196,10.72811334
44.24132579,2.66739893,-9.930213928,-0.8267202377,10.31540751
44.2436572,2.447259426,-9.714859962,-0.8350951076,10.05310731
44.24597563,2.134995937,-9.592227936,-0.9152546525,9.869485068
44.24828121,1.828116536,-9.541978836,-0.994217813,9.766260248
44.25061261,1.627119422,-9.503094673,-0.9774680734,9.690808522
44.2529311,1.403988719,-9.359525681,-1.01874423,9.518915122
44.25523662,1.186840057,-9.278169632,-0.9302098155,9.399910177
44.25756803,0.9906286001,-9.27278614,-0.8608179688,9.36519703
44.25988652,0.8063812256,-9.171689034,-0.7914260626,9.241021893
44.26219209,0.589232564,-9.114261627,-0.7555337548,9.164485325
44.2645235,0.4109672904,-9.065806389,-0.6957131624,9.10174469
44.26684199,0.2039881349,-9.031708717,-0.4929214716,9.047449646
44.26914751,0.04725824669,-8.977272034,-0.1657029688,8.978925547
44.27147892,-0.1202393398,-8.980861664,-0.1148554832,8.982400876
44.2737974,-0.328414917,-8.92283535,0.1555334777,8.930231671
44.27610298,-0.5581258535,-8.898907661,0.6634100676,8.941038807
44.27843438,-0.7657032609,-8.917451859,1.03848505,9.010310779
44.28075282,-0.9493523836,-8.844470978,1.151545882,8.969503595
44.28305839,-1.101894855,-8.828917503,1.121037364,8.967757876
44.2853898,-1.160519004,-8.816953659,0.6574280262,8.917269077
44.28770829,-1.154536963,-8.73559761,0.1848455518,8.813500388
44.29002678,-1.080957651,-8.663214684,-0.2638086975,8.734377661
44.29234522,-0.8973084688,-8.68774128,-0.5335994363,8.750242247
44.29466371,-0.7310073376,-8.794819832,-0.717248559,8.854246049
44.2969822,-0.5718846321,-8.670990944,-0.7597211599,8.72297611
44.29930069,-0.3738785386,-8.411369324,-0.6119644046,8.441884831
44.30161918,0.001196411322,-8.234300613,-0.4145565331,8.244729537
44.30393761,0.4576273263,-8.088338852,-0.1256231815,8.102248412
44.3062561,0.7633104324,-7.956135273,0.05324030295,7.992844664
44.30857459,1.057029366,-7.905886173,0.1028913707,7.976900018
44.31088016,1.332802176,-7.889734268,0.1531406492,8.002981977
44.31321157,1.652244091,-7.868198872,0.1130608693,8.040599902
44.31553006,1.892124534,-7.867600918,-0.06161518395,8.092161385
44.31783558,2.091925144,-7.767102242,-0.3038884699,8.049619633
44.32016699,2.266003132,-7.494320393,-0.3188436031,7.835896221
44.32248548,2.207977057,-7.134799004,-0.2075773627,7.471519783
44.32480397,2.059622049,-6.802196503,0.01316052489,7.107186043
44.32712246,2.018345833,-6.529414654,0.1064806059,6.835079644
44.32944095,1.908276081,-6.311069489,0.01316052489,6.593276036
44.33175938,1.80658114,-6.222535133,-0.1274178028,6.480734078
44.33407787,1.632503271,-6.293721676,-0.214157626,6.505525571
44.33639636,1.412961721,-6.43848753,-0.2913261652,6.598140149
44.33871485,1.140778184,-6.594020844,-0.3493520916,6.701084437
44.34103329,1.037288666,-6.821937561,-0.3822534084,6.9109274
44.34335178,0.9062815905,-6.896713257,-0.3972085714,6.967336271
44.34567027,0.6951149702,-6.868597507,-0.418145746,6.916333017
44.34798876,0.4917250574,-6.935596466,-0.4103690982,6.965105503
44.35030725,0.3828516304,-6.99063158,-0.3200400174,7.008418572
44.35262569,0.3224328458,-7.125825882,-0.0568295382,7.133343328
44.35494418,0.2189432681,-7.219145775,0.09092725813,7.223037425
44.35726266,0.05982056633,-7.357929707,0.1190429255,7.35913577
44.35958116,-0.03589234129,-7.504489899,0.07178468257,7.50491905
44.36189964,-0.09212367237,-7.72163868,0.06281159073,7.722443652
44.36421813,-0.1148554832,-7.995616913,0.1794617027,7.998455357
44.36653657,-0.237487644,-8.252845764,0.3182454109,8.262393341
44.36885506,-0.3870390654,-8.443673134,0.5425725579,8.469935077
44.37117355,-0.5401797295,-8.686544418,0.7573283911,8.736211671
44.37349204,-0.6903293133,-8.843274117,0.9810572863,8.92426608
44.37581053,-0.7722834945,-8.912068367,1.277169108,9.036179796
44.37812897,-0.7920243144,-8.998209953,1.65463686,9.183295052
44.38043454,-0.8051848412,-9.156135559,2.036890268,9.414460312
44.38276595,-0.8644071817,-9.37328434,2.381456852,9.709634176
44.38508444,-0.9236295223,-9.57129097,2.678166628,9.981747282
44.38738996,-1.01874423,-9.65444088,2.925823927,10.13935472
44.38972136,-1.099501967,-9.699306488,3.035295486,10.2224493
44.39203985,-1.158126116,-9.638289452,3.072384357,10.18221122
44.39435834,-1.188036442,-9.581459999,3.038286448,10.12161009
44.39667683,-1.177866936,-9.567103386,2.914458036,10.07029808
44.39899527,-1.101894855,-9.507881165,2.742773056,9.95674548
