Time (s),Acceleration x (m/s^2),Acceleration y (m/s^2),Acceleration z (m/s^2),Absolute acceleration (m/s^2)
10.00209657,-1.085743308,-11.50409317,0.6059823632,11.57109385
10.00441506,-0.6879364848,-11.58126163,0.6293123364,11.61873107
10.00672058,-0.3056831062,-11.59143066,0.6520441771,11.61377926
10.00905199,0.04486542568,-11.53998566,0.7022934556,11.56142283
10.01137042,0.3355933726,-11.37906837,0.8279166222,11.41408191
10.013676,0.5874379873,-11.20977592,0.9571290612,11.26588903
10.01600735,0.7818548083,-11.00339508,1.10608232,11.08645202
10.01832584,0.950548768,-10.75932693,1.24366951,10.87259734
10.02063136,1.124028444,-10.49551868,1.386640668,10.64622584
10.02296277,1.292722464,-10.22692394,1.486541033,10.41493682
10.02528121,1.472184181,-9.978070259,1.481157184,10.194265
10.02758678,1.603191137,-9.682557106,1.394417405,9.912947787
10.02991813,1.749751568,-9.395418167,1.198205948,9.631781278
10.03223662,1.903490424,-9.138189316,0.9254241586,9.380095396
10.03454214,2.042872429,-8.919246674,0.6675975323,9.174528623
10.03687355,2.169093609,-8.787042618,0.5054838061,9.06491031
10.03919199,2.263610125,-8.722436905,0.4199403822,9.021152159
10.04151048,2.274976015,-8.794221878,0.4636093974,9.095536707
10.04382892,2.220539331,-8.938986778,0.5736792088,9.228509488
10.04614741,2.117049932,-9.262616158,0.8231309652,9.537059457
10.04846584,1.94715941,-9.588638306,1.130010486,9.849382621
10.05078433,1.738385677,-9.909874916,1.368694544,10.15386283
10.05310277,1.528415442,-10.33639526,1.560718536,10.56470365
10.05542126,1.355534077,-10.87837029,1.725225091,11.09742377
10.0577397,1.217946768,-11.48136139,1.838286042,11.6912082
10.06005813,1.125823021,-11.99761295,1.878963947,12.19592963
10.06236371,1.109671474,-12.46840096,1.877767563,12.65774088
10.06469506,1.149751306,-12.89013577,1.814357758,13.06787749
10.06701355,1.337587833,-13.14078331,1.750947952,13.32423153
10.06931907,1.524227977,-13.28076363,1.548754454,13.45736207
10.07165048,1.77846539,-13.28495121,1.365105271,13.4728015
10.07396892,2.095514536,-13.28255844,1.153340459,13.49621184
10.07627449,2.360519648,-13.70848083,0.9864411354,13.94516281
10.07860584,2.456232548,-13.7354002,1.021137118,13.99060463
10.08092433,2.752942562,-13.17189026,0.8045865893,13.48053209
10.08324277,2.948555708,-12.89851093,0.5186443329,13.24139558
10.08556126,3.05324173,-12.77647686,0.2470589429,13.13855716
10.0878797,3.067000389,-12.70947742,0.05563312769,13.07441788
10.09019819,3.01974225,-12.66760349,-0.1603191197,13.02354498
10.09251662,2.959323406,-12.68854046,-0.2799602449,13.03207703
10.09483511,2.924627542,-12.63171101,-0.390030086,12.97172667
10.09715355,2.773281336,-12.62572861,-0.5252245665,12.93738664
10.09947204,2.592623234,-12.60180092,-0.650847733,12.88218477
10.10179048,2.41136694,-12.60598755,-0.6424728632,12.85061804
10.10410897,2.268994093,-12.6430769,-0.6245267391,12.86023955
10.1064274,2.038086653,-12.58564854,-0.5413761139,12.76109064
10.10874589,1.841875196,-12.59462166,-0.3906283081,12.73458242
10.11106433,1.599003673,-12.49472141,-0.2739782035,12.59960079
10.11338277,1.257428288,-12.41575813,-0.1106680483,12.47976055
10.11570126,0.9433703423,-12.3176527,0.07716853172,12.35396579
10.11801975,0.6699903607,-12.15553856,0.2877369225,12.17738877
10.12033819,0.4061816335,-11.99342537,0.5324030519,12.01210592
10.12265662,0.1722832322,-11.88754272,0.8105686903,11.91639103
10.1249622,-0.01256231871,-11.83370399,1.157527924,11.89018835
10.1272936,-0.2015953064,-11.80917835,1.44646132,11.89914217
10.12961204,-0.342173636,-11.80678558,1.697707653,11.93312532
10.13191756,-0.4528416991,-11.84746265,1.940579176,12.01387883
10.13424897,-0.5252245665,-11.88275719,2.154736757,12.08795556
10.13656741,-0.5222335458,-12.02632618,2.27078867,12.24996859
10.13888589,-0.4755735099,-12.36610699,2.306680918,12.58838945
10.14120433,-0.4211367965,-12.79681587,2.253440619,13.00053258
10.14352282,-0.2913261652,-13.32742405,2.143370867,13.50181993
10.14582834,-0.1363908947,-13.93819237,1.996212244,14.08107497
10.14815975,0.002392822644,-14.4448719,1.829911113,14.56031953
10.15047819,0.1459621787,-14.97906971,1.658226132,15.07128224
10.15278376,0.2979064286,-15.43250942,1.467398524,15.50497835
10.15511511,0.4660021961,-15.81296825,1.310070395,15.87398524
10.1574336,0.6646065116,-16.06780434,1.179661512,16.12475238
10.15973912,0.8261220455,-16.16531181,1.077368379,16.22222261
10.16207053,1.041476011,-16.16471291,0.9451649189,16.22578048
10.16438897,1.252642632,-16.01157188,0.8410771489,16.08250473
10.16670746,1.480558991,-15.77109432,0.7932206988,15.86028594
10.16902589,1.634297848,-15.41695595,0.7064808607,15.51942574
10.17134438,1.792822361,-15.07717514,0.6526423693,15.19741308
10.17366282,1.945963025,-14.69910908,0.5706881881,14.83833767
10.17598126,2.056032896,-14.35095406,0.5832505226,14.50921551
10.17829975,2.105085611,-14.02253914,0.5527420044,14.19043738
10.18061819,2.069193363,-13.74018574,0.5072783828,13.90437329
10.18293668,2.044667006,-13.51047516,0.4719842672,13.67246764
10.18525511,2.006979942,-13.32921886,0.3894318938,13.48509181
10.1875736,2.035693884,-13.29990673,0.2799602449,13.45770955
10.18989204,2.047657967,-13.38126278,0.2709871531,13.53973895
10.19221053,2.080559254,-13.54397392,0.2440679073,13.70501826
10.19452902,2.00638175,-13.74736404,0.04426721856,13.89307545
10.19684746,1.92203474,-13.91785336,-0.1800599098,14.05109537
10.19916589,1.820339799,-13.99741459,-0.35174492,14.11966631
10.20148438,1.730010748,-14.0045929,-0.4001995921,14.11671772
10.20380282,1.618744493,-13.97827148,-0.3104687333,14.07511273
10.20612131,1.533799291,-13.8981123,-0.03469592705,13.98253444
10.20843975,1.363908887,-13.73779297,0.4151547253,13.81157328
10.21075824,1.220937729,-13.53859043,0.9894321561,13.6294936
10.21307668,0.9858429432,-13.35553932,1.716252089,13.50140134
10.21538225,0.7387840152,-13.10548973,2.599203587,13.38116296
10.2177136,0.4809573591,-12.83569908,3.549154282,13.32602668
10.22003209,0.1704886109,-12.53898907,4.407579422,13.29218077
10.22233761,-0.1375873089,-12.26620674,5.118247509,13.29192295
10.22466902,-0.4534398913,-12.20578861,5.573482037,13.42574338
10.22698746,-0.733400166,-12.43310642,5.563312531,13.64076455
10.22929303,-0.9272187948,-12.77886963,5.291727066,13.86223716
10.23162438,-1.069591761,-13.17787266,4.716253281,14.0372148
10.23394287,-1.17906332,-13.52722454,4.059423447,14.17232912
10.23624839,-1.264008522,-13.89990711,3.327219963,14.34836325
10.2385798,-1.308275819,-14.30190086,2.428116798,14.56542842
10.24089824,-1.360917926,-14.55912971,1.436890006,14.69302585
10.24320381,-1.382453322,-14.6578331,0.3260220885,14.72649105
10.24553517,-1.356132269,-14.61117363,-0.7806583643,14.69472412
10.24785366,-1.284347534,-14.63569927,-1.924427629,14.81744457
10.25015918,-1.047458172,-14.83789349,-2.898904562,15.15466593
10.25249058,-0.7800601721,-15.11187172,-3.887140274,15.62328455
10.25480902,-0.4917250574,-15.54975796,-5.121238708,16.37876222
10.25711454,-0.2273181528,-15.97747517,-6.332006931,17.18795212
10.25944595,-0.0568295382,-16.39382553,-7.277172089,17.93649851
10.26176444,0.07417750359,-16.83829308,-7.87358284,18.58835449
10.26406996,0.1345962733,-17.37009811,-8.317451477,19.25924255
10.26640136,0.0783649385,-17.88634872,-8.571688652,19.83435046
10.2687198,-0.08015955985,-18.36551285,-8.631509781,20.29289158
10.27102532,-0.2865405083,-18.69213295,-8.640482903,20.59455958
10.27335673,-0.5898307562,-18.85245132,-8.385048866,20.64150832
10.27567516,-0.8452646136,-18.86740685,-8.010572433,20.51494051
10.27798074,-1.124626637,-18.75314903,-7.421937466,20.19976583
10.28031209,-1.353739381,-18.60299873,-6.623332977,19.79324915
10.28263058,-1.608574986,-18.4725914,-5.691926956,19.39644759
10.2849361,-1.896311998,-18.36670876,-4.603192329,19.02948684
10.28726751,-2.180459738,-18.29911041,-3.227319479,18.70902022
10.28958595,-2.467000246,-18.21655846,-1.632503271,18.45519328
10.29189152,-2.725425005,-18.21416664,0.2261217386,18.4183316
10.29422287,-3.034099102,-18.32363701,2.199003935,18.70286205
10.29654136,-3.282354355,-18.5234375,4.18205595,19.27125266
10.29884688,-3.518645763,-18.81356812,6.037689686,20.06950199
10.30117829,-3.741178274,-19.0121727,7.725826263,20.86018977
10.30349673,-3.891327858,-18.97986984,9.02692318,21.37435926
10.3058023,-3.970290899,-18.9367981,9.884152412,21.72698785
10.30813366,-3.993621111,-18.90329933,10.26102161,21.87629538
10.31045214,-3.894917011,-18.68495369,10.32203865,21.69890216
10.31275767,-3.687937975,-18.59043694,9.278767586,21.1021506
10.31508907,-3.534797192,-18.66700745,7.596015453,20.46097283
10.31740751,-3.436691523,-18.5102787,4.968098164,19.47108794
10.31971308,-3.355933666,-18.08614922,2.375474691,18.54761344
10.32204444,-3.477369547,-17.4562397,-0.6592226624,17.8114283
10.32436292,-4.011567116,-16.78804398,-4.094119549,17.73958585
10.32666845,-4.677370071,-15.92064571,-7.244868755,18.10615569
10.32899985,-5.262415409,-15.17109394,-9.964909554,18.89853247
10.33131829,-5.467599869,-14.59801292,-11.86002541,19.58715988
10.33362381,-5.520840168,-14.19362545,-13.07976723,20.07533288
10.33595522,-5.399404526,-13.92263889,-13.67258835,20.24680506
10.33827366,-5.191228867,-13.74556923,-14.03390503,20.31846502
10.34057923,-4.919643402,-13.62473202,-14.38086414,20.41189524
10.34291058,-4.424927235,-13.98664665,-14.19242954,20.41154874
10.34522907,-3.854238987,-14.37548065,-13.33041477,19.98022923
10.34753459,-3.347558975,-14.43350601,-11.99043465,19.06050288
10.349866,-2.965903759,-14.03749371,-10.29212856,17.65717206
10.35218444,-2.712264538,-13.21615791,-8.277970314,15.82870814
10.35449001,-2.568096876,-12.2482605,-6.141777515,13.94046046
10.35682136,-2.529811859,-11.23968601,-4.025924206,12.20403849
10.35913985,-2.525026083,-10.30887794,-2.252842426,10.85007006
10.36144537,-2.509472847,-9.561718941,-0.650847733,9.906943315
10.36377678,-2.535195589,-8.925827026,0.5030909777,9.292508021
10.36609522,-2.539981127,-8.425726891,1.296311617,8.895212283
10.36840079,-2.550748825,-8.10807991,1.575075507,8.644544074
10.37073214,-2.659024239,-7.635497093,1.570888042,8.236438247
10.37305063,-2.743371248,-7.301100254,1.500898004,7.942596902
10.37535616,-2.709273338,-7.24307394,1.219143152,7.828703095
10.37768756,-2.550748825,-7.30768013,0.7818548083,7.779447628
10.380006,-2.313859463,-7.298109055,0.3266202807,7.663094818
10.38231157,-1.942971945,-7.280162811,-0.2380858511,7.538739643
10.38464293,-1.567897081,-7.359724045,-0.9876375198,7.589418103
10.38696142,-1.170090318,-7.366304398,-1.780858278,7.668311942
10.38926694,-0.8033902049,-7.354340553,-2.369492531,7.768285245
10.39159834,-0.4660021961,-7.328019142,-2.92941308,7.905598244
10.39391678,-0.1980060786,-7.22094059,-3.290131092,7.937641464
10.39622235,0.02871387079,-7.048058987,-3.566502094,7.899107364
10.39855371,0.2548356056,-6.884748936,-3.77049017,7.853744662
10.4008722,0.5084748268,-6.730412006,-3.798007727,7.744795357
10.40317772,0.7339983582,-6.59043169,-3.806980848,7.646283191
10.40550912,0.8805587292,-6.481558323,-3.963710785,7.648332181
10.40782756,1.013360381,-6.421139717,-4.130012035,7.701618917
10.41013313,1.152742267,-6.278766632,-4.072584152,7.572163946
10.41246449,1.304686546,-5.712863922,-4.113262177,7.159465546
10.41478298,1.554736495,-5.481358528,-3.902693748,6.906049187
10.4170885,1.857428551,-5.464010715,-3.60478735,6.804406349
10.4194199,2.009970903,-5.363512039,-3.312862873,6.616819844
10.42173834,2.050648928,-5.184648514,-3.022733212,6.342133498
10.42404392,2.113460541,-5.038686275,-2.961716175,6.215049279
10.42637527,2.195414782,-4.902295589,-2.933002472,6.120036896
10.42869376,2.35274291,-4.75872612,-2.803789854,6.003508227
10.4310122,2.461018085,-4.54995203,-2.747558594,5.85728194
10.43333069,2.478964329,-4.309473515,-2.806182861,5.708895547
10.43564912,2.542972326,-4.019941807,-2.774477959,5.506756607
10.4379547,2.598007202,-3.778266907,-2.670988321,5.306516829
10.44028605,2.480758905,-3.473780155,-2.755335331,5.080667879
10.44260454,2.440080881,-3.200998545,-2.705085993,4.849523339
10.44491006,2.395215511,-2.976073265,-2.568695068,4.603505597
10.44724147,2.33838582,-2.819343328,-2.536990166,4.455677743
10.44955991,2.251646042,-2.469991207,-2.359323025,4.091108847
10.45186543,2.105085611,-2.083550215,-2.024327993,3.587543833
10.45419683,2.046461582,-1.734198213,-1.802991867,3.232062518
10.45651527,1.955534339,-1.356730461,-1.754537225,2.956895833
10.45882084,1.856232166,-1.037288666,-1.695314884,2.719495944
10.4611522,1.709073544,-0.7525427341,-1.589432478,2.452253769
10.46347069,1.567298889,-0.4767699242,-1.48295188,2.209724337
10.46577621,1.320838094,-0.1513460279,-1.51106751,2.01267084
10.46810761,1.071386337,0.08793623,-1.500898004,1.846157166
10.4704261,0.8404789567,0.3320041299,-1.452443361,1.710620746
10.47273162,0.6753742099,0.6167500615,-1.441675663,1.707319443
10.47506298,0.4642075896,0.4767699242,-1.418345571,1.566685164
10.47738147,0.08494520187,0.4199403822,-1.545165181,1.603465325
10.47968699,-0.7070791125,0.6364908218,-1.677966833,1.92889972
10.48201839,-0.7016952634,0.6424728632,-1.138385415,1.483600005
10.48433683,-0.7250252366,0.4396811724,-1.118046403,1.403213771
10.48665532,-0.7100701332,0.2721835673,-1.289133191,1.496712355
10.48897376,-0.8219345808,0.2350948304,-1.470987678,1.701367327
10.49129225,-1.001396298,0.06759724021,-1.762313843,2.028081363
10.49359777,-1.325025558,0.1896311939,-1.613360643,2.096326617
10.49592918,-1.60678041,0.5192425251,-1.54217422,2.286844422
10.49824761,-1.79521513,0.6448656917,-1.610967875,2.496771238
10.50055319,-2.140379906,0.6454638839,-1.986042738,2.990353745
10.50288454,-2.439482689,0.8207381964,-2.099701881,3.321661477
10.50520303,-2.526222467,1.031306505,-1.496710539,3.112159299
10.50750855,-2.578864574,0.9631111026,-1.253240824,3.024688092
10.50983996,-2.418545485,0.4719842672,-1.156929731,2.722244995
10.51215839,-2.218146563,-0.5413761139,-1.51106751,2.737989644
10.51447688,-2.297708035,-0.8757730722,-1.771286964,3.030494711
10.51679532,-2.549552441,-0.3912265003,-1.672582984,3.074216918
10.51911381,-2.512463808,-0.03948157281,-1.493121386,2.922917148
10.52143225,-2.340180635,-0.1262213886,-1.28614223,2.673301158
10.52375074,-2.288734913,-0.3409772217,-1.049850941,2.541015538
10.52606918,-2.311466694,-0.6867401004,-0.6759724021,2.504282119
10.52838766,-2.252244234,-1.063609719,-0.2530409992,2.503577335
10.5307061,-2.222932339,-1.436291814,0.2895315289,2.662365652
10.53302459,-2.142772675,-1.794018745,0.9457631707,2.950329807
10.53533011,-2.037488461,-2.203191519,1.612762451,3.406818871
10.53766152,-1.894517303,-2.611167669,2.423331022,4.034838987
10.53997996,-1.810170293,-2.997010469,3.223132133,4.758925193
10.54228553,-1.731207132,-3.358326674,4.118646145,5.589157562
10.54461688,-1.628315806,-3.738187075,5.048257351,6.48924936
10.54693537,-1.625923038,-4.106681824,5.95214653,7.411916732
10.54924089,-1.698904037,-4.505086899,6.808776855,8.339156142
10.5515723,-1.808375716,-4.933402061,7.5924263,9.233288458
10.55389074,-2.005185366,-5.311468124,8.457431793,10.18629543
10.55619631,-2.263610125,-5.705087185,9.250054359,11.10114662
10.55852767,-2.697907448,-6.102894306,9.911669731,11.94844008
10.56084616,-3.311666489,-6.515058041,10.51525879,12.80561532
10.56315168,-3.932005882,-6.917052269,11.26181984,13.78894008
10.56548308,-4.540380955,-7.38664341,11.9653101,14.77654242
10.56780152,-5.255236626,-7.931010723,12.4546423,15.67279674
10.57010709,-6.125027657,-8.498707771,12.66102314,16.43306133
10.57243845,-6.665207386,-9.259625435,12.99063396,17.28936735
10.57475694,-7.11625433,-10.2783699,13.10369492,18.11057106
10.57706246,-7.524828911,-11.29172993,13.16949749,18.90930668
10.57939386,-7.968099594,-12.31585789,12.87757301,19.51929439
10.5817123,-8.246863365,-13.29751396,12.7627182,20.19211749
10.58401787,-8.17986393,-14.21875,12.73220921,20.76516739
10.58634923,-7.652844906,-14.94556999,12.43669605,20.89515509
10.58866772,-6.854838848,-15.70170212,11.70987606,20.75219175
10.59097324,-5.62791872,-16.49193192,10.54337502,20.36713147
10.59330464,-4.188635826,-17.22293854,9.507282257,20.113744
10.59562308,-3.021536827,-17.76012802,8.453244209,19.89997914
10.59792866,-2.266601324,-18.12264061,7.684549809,19.81463828
10.60026001,-1.81794703,-18.54557228,7.234101295,19.98938229
10.6025785,-1.816750646,-18.92483521,7.112665176,20.29876785
10.60488402,-2.201396942,-19.13121605,7.039085865,20.5036169
10.60721543,-2.962314367,-19.04806519,7.027122021,20.51790773
10.60953386,-3.86081934,-18.57966995,6.858428001,20.1779111
10.61183944,-4.785645485,-17.7948246,6.668198586,19.59650626
10.61417079,-5.487938881,-16.79342842,6.47796917,18.81756615
10.61648928,-5.967699528,-15.67657757,6.222535133,17.89101633
10.6187948,-6.224927902,-14.49213028,5.820540905,16.8122058
10.62112621,-6.3343997,-13.2520504,5.318646431,15.62144229
10.62344464,-6.271588326,-12.02692509,4.838287354,14.40099898
10.62575022,-6.087340832,-10.91426182,4.378267288,13.2418297
10.62808157,-5.883352757,-9.848259926,4.052843571,12.16665953
10.63040006,-5.720640659,-8.865407944,3.813561201,11.21893206
10.63270558,-5.47298336,-8.043473244,3.552743435,10.35726772
10.63503699,-5.347360611,-7.248457909,3.132204771,9.536514787
10.63735542,-5.148158073,-6.582056999,2.871985435,8.836023214
10.63966095,-4.971687317,-5.991627693,2.706880569,8.242844146
10.64199235,-4.822135925,-5.503491879,2.747558594,7.816040939
10.64431079,-4.601397991,-5.243272781,2.94317174,7.571461736
10.64661636,-4.368695736,-5.050650597,2.991626501,7.317404117
10.64894777,-4.10249424,-4.943571568,2.773879766,6.997411506
10.65126621,-3.9170506,-4.814957142,2.416750908,6.660914549
10.65357178,-3.892524242,-4.541577339,1.99501586,6.305375325
10.65590313,-4.144967079,-4.116253376,1.765903115,6.102680375
10.65822162,-4.554738045,-3.592225075,1.825125456,6.081184307
10.66052714,-4.759922504,-3.293720484,2.097309113,6.156635639
10.6628585,-4.965106964,-3.034099102,2.408974171,6.297713957
10.66517699,-5.190630436,-2.899502754,2.734996319,6.544460666
10.66748251,-5.510072231,-2.829512835,3.079562664,6.917423297
10.66981392,-5.839085579,-2.788236618,3.539582968,7.375488555
10.67213241,-6.158527374,-2.81395936,4.152145386,7.942678264
10.67443793,-6.518048763,-2.907877684,4.736592293,8.565980321
10.67676933,-6.848258495,-3.05862546,5.378467083,9.229395554
10.67908777,-7.054041386,-3.259024382,6.131608009,9.898351205
10.68139329,-7.09172821,-3.46959281,6.829713821,10.43914145
10.6837247,-7.010970116,-3.778865099,7.290332317,10.79733619
10.68604319,-6.734599113,-4.123431683,7.228717327,10.70569326
10.68834871,-6.266802311,-4.392025948,6.786643028,10.22845182
10.69068011,-5.678766251,-4.797609329,5.621338367,9.320133392
10.69299855,-5.066203594,-5.458028316,4.496113777,8.698938502
10.69530407,-4.710271358,-5.984449387,3.453441381,8.362209523
10.69763548,-4.633102894,-6.397211552,2.874976397,8.405679469
10.69995397,-4.34775877,-7.331608772,3.084946632,9.064898744
10.70225949,-4.196412563,-8.459824562,3.943371773,10.23370368
10.70459089,-4.262215137,-9.399605751,5.127819061,11.52447806
10.70690933,-4.548157692,-10.25503922,6.061617851,12.75126577
10.70921485,-4.868197441,-11.25942707,7.082755089,14.16472605
10.71154626,-5.480760098,-12.38166046,7.948956966,15.70127905
10.71386475,-6.187839508,-13.57328606,8.986245155,17.41482283
10.71617027,-6.836892605,-15.08973789,9.821340561,19.2588167
10.71850168,-7.30768013,-16.61695671,11.02552891,21.23882593
10.72082011,-7.700103283,-18.07358742,12.4115715,23.23775505
10.72312563,-7.737790108,-19.58106613,13.09472179,24.79442045
10.72545704,-7.448856831,-21.13221359,12.42174053,25.6194371
10.72777548,-6.878168583,-22.5385952,10.69591713,25.87856487
10.73008105,-5.764309883,-23.93779755,8.325826645,25.9916296
10.7324124,-4.309473515,-24.88774872,5.998806477,25.96068715
10.73473089,-2.950948477,-25.20479774,4.109673023,25.70757357
10.73703642,-1.835294962,-24.62872505,2.898904562,24.86656496
10.73936782,-0.9810572863,-23.25644112,1.971087694,23.36043051
10.74168631,-0.3439682424,-21.40379906,0.980459094,21.42900437
10.74399183,0.001794616925,-19.08335876,-0.3595215976,19.08674516
10.74632324,0.1651047617,-16.56132317,-2.150549412,16.70118401
10.74864168,0.1351944804,-14.12602806,-4.004986763,14.68342144
10.75094725,0.02213360928,-11.86959648,-5.582455158,13.11684475
10.7532786,-0.1878365725,-9.576674461,-7.094120979,11.91950204
10.75559709,-0.3780659735,-7.618747234,-8.173882484,11.18036664
10.75790261,-0.7166503668,-6.137589931,-8.325826645,10.36836473
10.76023397,-1.202393413,-4.92442894,-8.129016876,9.580013866
10.76255246,-1.649253011,-3.829114437,-7.749754429,8.800048101
10.76485803,-2.131406784,-2.941975355,-6.988238335,7.876140482
10.76718938,-2.556132793,-2.195414782,-5.795416355,6.703768466
10.76950782,-2.858226538,-1.681556106,-4.332205296,5.455739418
10.77181339,-3.15433836,-1.392024517,-2.796013355,4.439062224
10.7741448,-3.440280676,-1.280758262,-1.325623751,3.902966972
10.77646324,-3.668197155,-1.345962763,-0.01016949583,3.907350707
10.77876876,-3.884149313,-1.497906923,1.19581306,4.331317341
10.78110016,-3.949951887,-1.81495595,2.132004976,4.841655732
10.7834186,-3.921238184,-2.168495417,2.654836655,5.208324004
10.78572418,-3.583251953,-2.645863533,2.556730986,5.135870104
10.78805553,-3.127419233,-3.251247883,1.797009826,4.855986838
10.79037402,-2.601596355,-3.769891977,0.3601198196,4.594570209
10.79267959,-1.890928149,-4.415356159,-1.808973908,5.132578872
10.79501095,-1.03848505,-5.008776188,-3.886542082,6.424289802
10.79732938,-0.123828575,-5.648856163,-5.829514027,8.118383044
10.79963496,0.7501499057,-6.400202274,-7.676175117,10.02242378
10.80196631,1.529013634,-7.287341595,-9.237491608,11.86484224
10.8042848,2.276172638,-8.112865448,-10.4793663,13.44680876
10.80659032,2.566900492,-8.804988861,-11.78824043,14.93584345
10.80892173,2.859423161,-9.495916367,-12.7250309,16.13304496
10.81124022,3.074777126,-10.27956581,-13.1898365,17.00280902
10.81354574,3.266202927,-11.16371441,-13.38664627,17.73411682
10.81587709,3.332005501,-12.04606724,-13.36511135,18.29852994
10.81819558,3.403192043,-12.83569908,-13.1395874,18.68115746
10.8205011,3.290131092,-13.39980698,-12.67418289,18.73538635
10.82283251,3.175275564,-13.93879032,-12.03171062,18.6851361
10.82515095,3.104687452,-14.57827187,-11.25464153,18.67704609
10.82745652,2.983251572,-15.35294819,-10.26819992,18.70958946
10.82978787,2.871985435,-16.05404472,-9.008976936,18.63175563
10.83210636,2.715853691,-16.69891167,-7.61755085,18.55415299
10.83441188,2.618346214,-17.24088478,-6.150152206,18.49130112
10.83674329,2.523231506,-17.69671822,-4.659423828,18.47297386
10.83906173,2.440679073,-18.0083828,-3.451048374,18.49779717
10.8413673,2.350350142,-18.07657814,-2.654836655,18.42104722
10.84369866,2.269592285,-17.9330101,-1.993221283,18.18562156
10.84601714,2.200200319,-17.60280037,-1.476371527,17.80109927
10.84832267,2.267797709,-17.21097565,-1.115653515,17.39555322
10.85065407,2.291127682,-16.70130348,-0.9332008362,16.88353245
10.85297251,2.385644197,-16.11745453,-0.8793623447,16.31676797
10.85527808,2.23130703,-15.43071461,-1.129412293,15.63205861
10.85760944,2.067996979,-14.80020618,-1.221535921,14.99382755
10.85992793,1.939382792,-14.21336651,-1.427318692,14.41590204
10.86223345,1.841277003,-13.54756355,-1.423131227,13.7459842
10.86456485,1.709671736,-12.96491146,-1.280758262,13.13972025
10.86688329,1.54217422,-12.42592812,-1.147358418,12.57371951
10.86918886,1.385444283,-11.96351528,-0.956530869,12.081395
10.87152022,1.219143152,-11.51964664,-0.670588553,11.60337269
10.87383871,1.009172916,-11.06800079,-0.3230310678,11.11860695
10.87614423,0.7782655358,-10.72223854,-0.007776673418,10.75044916
10.87847563,0.5425725579,-10.39561844,0.3361915946,10.41519527
10.88079407,0.3194418252,-10.15095139,0.6466603279,10.17654296
10.88309964,0.04606183618,-9.917053223,0.6951149702,9.941491394
10.885431,-0.2338984162,-9.750752449,0.5676971674,9.770064578
10.88774949,-0.5635097623,-9.523433685,0.3816552162,9.547721881
10.89005501,-0.8883354068,-9.248259544,0.1908276081,9.292785351
10.89238642,-1.256231904,-8.978468895,0.009571290575,9.065931497
10.89470485,-1.667797327,-8.72423172,-0.1160518974,8.88297445
10.89701043,-2.112862349,-8.480761528,-0.08315058798,8.740390004
10.89934178,-2.624328136,-8.261219978,-0.09870393574,8.668598281
10.90166027,-3.192623615,-8.072785378,-0.004785645287,8.681171131
10.90396579,-3.815355778,-7.885547161,0.2075773627,8.762527153
10.9062972,-4.395017147,-7.865208149,0.5264210105,9.025230968
10.90861563,-4.882554531,-7.919046402,0.8805587292,9.344839129
10.91092121,-5.297111034,-8.072187424,1.25503552,9.736257457
10.91325256,-5.611767292,-8.367102623,1.597807288,10.20065324
10.91557105,-5.813961029,-8.74576664,1.92741859,10.67733672
10.91787657,-5.819344521,-9.307481766,2.012962103,11.1600181
10.92020798,-5.589633465,-9.87398243,1.966302037,11.51546243
10.92252642,-5.309673309,-10.3094759,1.747956991,11.72745828
10.92483199,-4.982454777,-10.66301632,1.348355532,11.84663814
10.92716334,-4.532604218,-10.86042404,0.6664010882,11.78717107
10.92948183,-3.881158352,-10.93759251,-0.0568295382,11.60592735
10.93180027,-3.040081263,-10.70728302,-0.4378865361,11.13910896
10.93411876,-2.280359983,-10.3531456,-0.524028182,10.61424849
10.9364372,-1.641476393,-9.982855797,-0.4785645306,10.12822189
10.93874277,-1.087537885,-9.624530792,-0.561715126,9.70205419
10.94107412,-0.5114658475,-9.187840462,-0.6741777658,9.226728853
10.94339261,0.109471634,-8.818149567,-0.7238288522,8.848484278
10.94569813,0.4139583111,-8.417351723,-0.7716853023,8.462781441
10.94802954,0.6699903607,-8.094919205,-1.077368379,8.193737037
10.95034798,1.143171072,-7.661818027,-1.338784218,7.861465434
10.95265355,1.643270969,-7.269993305,-1.332802176,7.57162491
10.9549849,1.97826612,-6.940980434,-1.308275819,7.335007284
10.95730339,2.091925144,-6.712465763,-1.361516118,7.161499394
10.95960892,2.152942181,-6.461817741,-1.486541033,6.97137381
10.96194032,2.233101845,-6.239284992,-1.520638824,6.799100197
10.96425876,2.293520451,-6.020939827,-1.445264935,6.603085884
10.96656433,2.289333105,-5.862415314,-1.413560033,6.450357459
10.96889569,2.371287346,-5.749952793,-1.284945726,6.35106655
10.97121418,2.411965132,-5.69611454,-1.141376376,6.290153947
10.9735197,2.381456852,-5.676971912,-1.003190875,6.237446494
10.9758511,2.310270309,-5.740979671,-0.8368897438,6.244724248
10.97816954,2.242074728,-5.871986866,-0.7836494446,6.33413256
10.98048803,2.0769701,-5.952744484,-0.7896314859,6.353934968
10.98280647,1.909472466,-6.110671043,-0.8039883971,6.452347095
10.98512496,1.769492388,-6.44985342,-0.7357929349,6.728529089
10.98744339,1.6181463,-6.914061069,-0.5766702294,7.124267434
10.98976188,1.454237938,-7.249056339,-0.442073971,7.406689894
10.99208032,1.236491084,-7.33639431,-0.3433700502,7.447784547
10.99439881,1.001994491,-7.369893551,-0.1399801224,7.439013264
10.99671725,0.7974081635,-7.408178806,-0.03649054468,7.451060634
10.99903574,0.680758059,-7.338787079,-0.03290131316,7.370367007
11.00135418,0.7070791125,-7.265805721,-0.0382851623,7.300230093
11.00367266,0.7872386575,-7.182655334,-0.09571290761,7.226302188
11.0059911,0.8979067206,-7.237092018,-0.06041877344,7.29283126
11.00830959,1.001396298,-7.379465103,-0.02512463741,7.447142472
11.01062803,1.064806104,-7.627720356,0.001196411322,7.701683667
11.01294652,1.032503009,-7.868198872,0.0933200866,7.936203411
11.01526496,0.9236295223,-7.918448448,0.1591227055,7.973721675
11.01758345,0.7501499057,-7.902894974,0.2913261652,7.943761375
11.01990188,0.5718846321,-7.883154392,0.4133601189,7.914672564
11.02222037,0.342173636,-7.898109436,0.5784648657,7.926653585
11.02453881,0.1016949639,-7.869395256,0.7190431952,7.902831561
11.0268573,-0.08554340899,-7.868797302,0.9367900491,7.924825819
11.02917574,-0.2171486616,-7.832904816,1.150349498,7.919902484
11.03149423,-0.2793620527,-7.858627796,1.269392371,7.965389569
11.03381267,-0.3110669553,-7.911868095,1.274178028,8.019847197
11.03613116,-0.2608176768,-7.997411251,1.232303619,8.095998072
11.03844959,-0.1543370634,-8.201399803,1.077368379,8.273300507
11.04076808,-0.02273181453,-8.444271088,0.9080761671,8.492987299
11.04308652,0.1160518974,-8.613563538,0.7722834945,8.648893956
11.04540501,0.2679961324,-8.912666321,0.628115952,8.938790328
11.04772345,0.4139583111,-9.154341698,0.4977070987,9.177202502
11.05004194,0.6035895348,-9.236893654,0.2805584669,9.260844333
11.05236037,0.7519445419,-9.325428009,-0.01794617064,9.35571217
11.05467886,0.888933599,-9.572486877,-0.2632105052,9.617275484
11.0569973,0.9876375198,-9.839286804,-0.4277170599,9.897976287
11.05931579,1.061216831,-9.866804123,-0.5838487148,9.940869383
11.06163423,1.138983607,-9.88893795,-0.7022934556,9.979057748
11.06395272,1.107876897,-9.976275444,-0.7016952634,10.06209914
11.06627116,0.9559326172,-10.02293587,-0.6364908218,10.0885168
11.06858964,0.756131947,-10.0899353,-0.4755735099,10.12939782
11.07090808,0.4049852192,-10.24128056,-0.2482553422,10.25229102
11.07322657,0.0580259487,-10.39322472,0.0933200866,10.39380564
11.07554501,-0.3726821244,-10.59003448,0.3960121572,10.60398736
11.07785058,-0.8709874153,-10.80299568,0.7316055298,10.8627152
11.08018194,-1.341775298,-10.97647572,1.091725349,11.11194152
11.08250043,-1.771885157,-11.0626173,1.460219979,11.29837692
11.08480595,-2.133799553,-11.17149067,1.730010748,11.50427058
11.08713735,-2.475374937,-11.28514957,1.918445587,11.71164017
11.08945579,-2.647060156,-11.34138107,2.117648125,11.83715699
11.09176136,-2.729014158,-11.37667561,2.260619164,11.91581576
11.09409272,-2.764906645,-11.30548859,2.364706993,11.87647339
11.09641121,-2.706282377,-11.17448139,2.373680115,11.73998961
11.09872964,-2.516651154,-10.92981529,2.349751949,11.45930755
11.10104813,-2.275574446,-10.62652493,2.216351986,11.09114454
11.10336657,-1.906481385,-10.29153061,2.054238319,10.66630998
11.10568506,-1.445863128,-9.949954987,1.860419631,10.2251301
11.1080035,-0.9284151793,-9.626325607,1.662413478,9.812834352
11.11032199,-0.3996013701,-9.330213547,1.4267205,9.447121121
11.11262751,0.1262213886,-9.102297783,1.105484009,9.17005189
11.11495892,0.6245267391,-8.904291153,0.7405785918,8.956834889
11.11727735,1.049850941,-8.803792953,0.3337987661,8.872450562
11.11958293,1.408774376,-8.729017258,-0.02153540403,8.841993627
11.12191428,1.691725612,-8.712865829,-0.2865405083,8.880206753
11.12423277,1.93340075,-8.755936623,-0.5078766346,8.981225043
11.12653829,2.088934183,-8.848059654,-0.5730810165,9.109348359
11.1288697,2.169093609,-9.014361382,-0.5419743061,9.287486977
11.13118813,2.207378864,-9.238688469,-0.4019941986,9.507233321
11.13349371,2.16131711,-9.552147865,-0.171086818,9.795105471
11.13582506,2.022533417,-9.948758125,0.01196411345,10.15226934
11.13814355,1.805384636,-10.31306553,0.2416750938,10.47268548
11.14046199,1.576870084,-10.74616623,0.4336991012,10.86989893
11.14278048,1.351944804,-11.13500023,0.6011967063,11.2328724
11.14509892,1.13120687,-11.51904774,0.8165507317,11.60322562
11.14740449,0.9421738982,-11.84506989,1.099501967,11.93324251
11.14973584,0.8099704385,-12.15015507,1.343569875,12.25102038
11.15205433,0.7046862841,-12.41635704,1.597209096,12.53848403
11.15435985,0.6466603279,-12.62871933,1.774278045,12.76913404
11.15669126,0.5712863803,-12.70708466,1.898704767,12.86084944
11.1590097,0.5509474277,-12.67837048,1.974078655,12.84295945
11.16132819,0.5868397355,-12.58624744,1.988435626,12.75585677
11.16364662,0.6173482537,-12.45165062,1.920838356,12.61405335
11.16596511,0.7316055298,-12.40080357,1.835893154,12.55729586
11.16828355,0.8315058947,-12.35055447,1.664208174,12.48988337
11.17060204,0.9840483069,-12.47737408,1.490130305,12.60451123
11.17292048,0.9990034699,-12.84646702,1.393221021,12.96035445
11.17523897,1.130010486,-12.53181076,1.272981644,12.64688447
11.1775574,1.344766378,-12.28714466,1.053440213,12.40532373
11.17987589,1.460219979,-12.25125217,0.7962117195,12.36363115
11.18219433,1.560120344,-12.37866974,0.6550351977,12.4937789
11.18451282,1.622931957,-12.38704491,0.5796613097,12.50635026
11.18683126,1.660020709,-12.3236351,0.5126622319,12.44550013
11.18914975,1.625923038,-12.27697468,0.4833501875,12.39360159
11.19146819,1.532004714,-12.1734848,0.4959124923,12.2795236
11.19378668,1.447059512,-11.99761295,0.4797609448,12.09408402
11.19610511,1.31425786,-11.86182022,0.4821537733,11.94414187
11.1984236,1.130608678,-11.75952721,0.5036891699,11.82448557
11.20074204,0.9595218897,-11.59083271,0.4917250574,11.64087105
11.20306053,0.7878368497,-11.43171024,0.5557330847,11.47229381
11.20537897,0.6179464459,-11.35872936,0.6251249313,11.3926894
11.20769746,0.5150550604,-11.2887392,0.709471941,11.32273222
11.21001589,0.4366901219,-11.21874905,0.7794619799,11.25426983
11.21233438,0.4055834413,-11.16610718,0.9080761671,11.21030998
11.21465282,0.418145746,-11.13200951,1.060618639,11.19023652
11.21697131,0.4749752879,-11.1690979,1.204786181,11.24392543
11.21928975,0.5509474277,-11.2008028,1.329213023,11.29284436
11.22160824,0.6526423693,-11.30369377,1.450050473,11.41499371
11.22392668,0.8045865893,-11.46760273,1.586441398,11.60474335
11.22624516,0.9242277741,-11.69970608,1.674975872,11.85507754
11.2285636,1.094716311,-12.04187965,1.759921074,12.21894396
11.23088209,1.302293777,-12.53599739,1.827518344,12.7352669
11.23320053,1.478166223,-13.05583858,1.775474429,13.25866532
11.23551902,1.665404558,-13.60858059,1.680957913,13.81277154
11.23782454,1.827518344,-14.11944866,1.566700578,14.3231702
11.24015595,1.970489502,-14.60578918,1.418943882,14.80625909
11.24247438,2.067996979,-14.99761391,1.232303619,15.18958876
11.24477996,2.11585331,-15.32363605,1.082154036,15.506828
11.24711131,2.199003935,-15.5617218,0.9649057388,15.74591524
11.2494298,2.260619164,-15.71426487,0.9379864931,15.90372089
11.25173532,2.277369022,-15.78545094,0.8673982024,15.97245287
11.25406673,2.310270309,-15.73221111,0.7525427341,15.91873538
11.25638517,2.339582443,-15.55394554,0.694516778,15.74424407
11.25870366,2.388635159,-15.25065517,0.7166503668,15.45320837
11.26102209,2.431705952,-14.883955,0.7046862841,15.09774464
11.26334058,2.449652195,-14.49033546,0.7543373108,14.71528602
11.26565902,2.356930256,-14.05543995,0.7980063558,14.27400878
11.26797751,2.307877541,-13.66241932,0.8476574421,13.88187752
11.27029595,2.201995134,-13.29512119,0.9343972206,13.50859461
11.27261444,2.103291035,-12.98525047,1.012163997,13.19337102
11.27493287,2.00099802,-12.70887947,0.9714859724,12.90206943
11.27725136,1.910070658,-12.4803648,0.8685946465,12.65552575
11.27955688,1.807777524,-12.40140152,0.8051848412,12.55830967
11.28188829,1.77009058,-12.43609715,0.8003991842,12.58691272
11.28420673,1.718046665,-12.6245327,0.8105686903,12.76665703
11.28652522,1.684547186,-12.80758286,0.8117650747,12.94337052
11.28884366,1.585843205,-13.01695538,0.7076773047,13.1322821
11.29116214,1.51944232,-13.18684578,0.6652047038,13.29075257
11.29348058,1.463809252,-13.27896881,0.7417750359,13.37998432
11.29579907,1.430309772,-13.37049484,1.067198873,13.48906341
11.29811751,1.33399868,-13.31426334,1.594816327,13.47562985
11.300436,1.232303619,-13.25803185,2.24267292,13.50272426
11.30275444,1.157527924,-13.18624783,2.970689297,13.56620793
11.30507293,1.070788145,-13.0139637,3.746562004,13.58479169
11.30737845,0.9613165259,-12.87518024,4.498506546,13.67226963
11.30970985,0.799800992,-12.7005043,5.020142078,13.68007009
11.31202829,0.589232564,-12.56112289,5.255835056,13.62911609
11.31433386,0.2745763958,-12.35773277,5.160720348,13.39484923
11.31666522,-0.1214357466,-12.05085278,4.807180882,12.97485211
11.31898371,-0.4576273263,-11.83849049,4.310669899,12.60718663
11.32128923,-0.7704889178,-11.74576855,3.802195072,12.36985931
11.32362063,-1.003190875,-11.80558872,3.256631613,12.28755332
11.32593907,-1.16769743,-12.08854008,2.675175667,12.43595124
11.32824464,-1.234696507,-12.44626713,2.090130568,12.68079992
11.330576,-1.258026481,-12.84168053,1.463809252,12.98592033
11.33289449,-1.256830096,-13.25145149,0.8985049129,13.34121058
11.33520001,-1.251446247,-13.67438316,0.4157529473,13.7378209
11.33753142,-1.213759303,-14.07817173,-0.005383851007,14.13039843
11.33984991,-1.171286702,-14.49571991,-0.4558327198,14.55010624
11.34215543,-1.167099237,-14.8707943,-0.9008977413,14.94370303
11.34448678,-1.149153113,-15.2033968,-1.480558991,15.31848171
11.34680527,-1.088136077,-15.48634815,-2.24566412,15.68610935
11.34911079,-1.112662554,-15.69033623,-3.312862873,16.07481662
11.3514422,-1.061216831,-15.89252949,-4.345963955,16.51018102
11.35376063,-0.9816554785,-16.10848236,-5.279164791,16.97988317
11.35606621,-0.8787640929,-16.28136253,-6.273981094,17.47048457
11.35839756,-0.7956135273,-16.4016037,-7.302296638,17.97134221
11.36071605,-0.8333004713,-16.47637939,-8.333004951,18.48254417
11.36302157,-0.8440681696,-16.59302902,-9.023334503,18.90665567
11.36535298,-0.9786644578,-16.75992775,-9.562915802,19.32103312
11.36767142,-1.134796143,-16.9034977,-9.792028427,19.56782608
11.36997699,-1.200598717,-16.99083519,-9.610772133,19.55752691
11.37230834,-1.307079315,-17.05065536,-9.263215065,19.44840503
11.37462683,-1.479362607,-17.17388725,-8.738588333,19.3259888
11.37693235,-1.707877159,-17.23550224,-8.091927528,19.11697343
11.37926376,-1.964507341,-17.33600044,-7.239484787,18.88931816
11.38158225,-2.210968018,-17.493927,-6.300302029,18.72484091
11.38388777,-2.46819663,-17.68056679,-5.113461971,18.56992003
11.38621912,-2.744567633,-17.93420601,-3.750151396,18.5265224
11.38853761,-3.037688255,-18.29791451,-2.218744755,18.68057958
11.39084319,-3.346960783,-18.47976875,-0.4983053207,18.78702499
11.39317454,-3.554538012,-18.60658836,1.437488198,18.99753256
11.39549303,-3.71186614,-19.0624218,3.552743435,19.74274198
11.39779855,-3.838087559,-19.54696846,5.405984402,20.64072575
11.40012996,-3.88056016,-19.87179375,6.972685337,21.41413726
11.40244839,-3.878765583,-20.11466599,8.190631866,22.06198224
11.40475397,-3.842274904,-20.02613068,8.72423172,22.17929677
11.40708532,-3.868596077,-19.53201294,8.615956306,21.69562786
11.40940381,-3.859622955,-18.83271027,7.580461979,20.66473008
11.41170933,-3.862015724,-18.14955902,5.60578537,19.38418138
11.41404069,-4.006781578,-17.27318764,3.518047571,18.07744364
11.41635918,-4.152743816,-16.276577,1.801795483,16.89433949
11.4186647,-4.260420799,-15.27338696,0.09571290761,15.85675551
11.4209961,-4.301098824,-14.46580887,-1.6713866,15.18395899
11.42331459,-4.471587181,-13.74796295,-3.59102869,14.89620973
11.42562011,-4.791028976,-13.15872955,-5.567500114,15.06994292
11.42795152,-5.198407173,-12.6185503,-7.159325123,15.41126812
11.43026996,-5.502893925,-12.22552872,-8.562117577,15.90771044
11.43257548,-5.619544029,-11.86959648,-9.410373688,16.15616689
11.43490688,-5.654838085,-11.63569832,-9.912865639,16.2982077
11.43722537,-5.574678421,-11.62852001,-9.864411354,16.23595173
11.43953089,-5.283352375,-11.69252777,-9.079565048,15.71838158
11.4418623,-4.941178799,-11.6584301,-7.855038643,14.90086818
11.44418074,-4.596014023,-11.56152058,-6.527021885,14.04970169
11.44648631,-4.244269371,-11.39222908,-5.160720348,13.20718518
11.44881766,-3.961317778,-11.1188488,-3.839283943,12.41212868
11.45113616,-3.5766716,-10.84367371,-2.654836655,11.72288347
11.45344168,-3.179463148,-10.50090218,-1.537388563,11.07887612
11.45577308,-2.809772015,-10.16411209,-0.5682953596,10.56063222
11.45809152,-2.495115757,-9.842875481,0.2482553422,10.15723541
11.46039709,-2.254039049,-9.460622787,1.101296663,9.787590608
11.46272845,-2.085943222,-9.234500885,1.997408748,9.675577886
11.46504694,-1.891526341,-9.19980526,2.629113913,9.753282969
11.46735246,-1.704886079,-9.25783062,2.745165825,9.805610625
11.46968386,-1.748555183,-9.53898716,1.959721804,9.893949202
11.4720023,-1.497906923,-9.96790123,0.6293123364,10.09944623
11.47430787,-1.10608232,-9.974481583,-0.0484546572,10.03573858
11.47663923,-0.7304090858,-10.00080204,-1.070788145,10.08444972
11.47895772,-0.3960121572,-9.975079536,-1.726421595,10.13111884
11.48126324,-0.1028913707,-9.829116821,-1.939382792,10.01914815
11.48359464,0.1531406492,-9.794421196,-1.828116536,9.96474529
11.48591308,0.456430912,-9.767501831,-1.701296926,9.925060827
11.48821866,0.8237292171,-9.74477005,-1.707877159,9.927533306
11.49055001,1.089930773,-9.728618622,-1.672582984,9.931339447
11.4928685,1.20717907,-9.653842926,-1.695913076,9.875732161
11.49517402,1.356132269,-9.655637741,-1.846660852,9.923738772
11.49750542,1.514656782,-9.594620705,-2.127219439,9.943640891
11.49982386,1.649253011,-9.529416084,-2.517847538,9.993465997
11.50212944,1.779661894,-9.469595909,-2.965305567,10.08134318
11.50446079,1.784447432,-9.16750145,-3.296711445,9.9043244
11.50677928,1.718046665,-8.766105652,-3.477369547,9.585843291
11.5090848,1.630110383,-8.312067986,-3.471985579,9.154366057
11.51141621,1.578066587,-7.842476368,-3.279363394,8.645747741
11.51373464,1.555334687,-7.294519901,-2.792423964,7.964089287
11.51604022,1.46321106,-6.763313293,-2.563909531,7.379500348
11.51837157,1.35074842,-6.314659119,-2.491526604,6.921498819
11.52069006,1.186840057,-5.904888153,-2.434098721,6.496239682
11.52299558,1.042074203,-5.542973518,-2.14157629,6.032977961
11.52532699,0.8967102766,-5.204987526,-1.792822361,5.57765152
11.52764543,0.7483552694,-4.991427898,-1.829312921,5.368498285
11.529951,0.6861419082,-4.82034111,-1.844866276,5.206727448
11.53228235,0.5820540786,-4.645066738,-1.899901152,5.052232807
11.53460084,0.4360919297,-4.356133461,-1.869990945,4.760561
11.53690636,0.3361915946,-4.118646145,-2.101496458,4.63600671
11.53923777,0.1890329868,-3.848855257,-2.48195529,4.583614548
11.54155626,0.1345962733,-3.513261795,-2.12183547,4.106496117
11.54386178,0.1842473447,-3.31465745,-1.794018745,3.773513529
11.54619319,0.2739782035,-3.26440835,-1.850848317,3.762587597
11.54851162,0.2919243574,-3.144767046,-2.06560421,3.773791244
11.55081714,0.3122633696,-2.980858803,-2.18105793,3.706756171
11.55314855,0.3314059377,-2.778665304,-2.297109842,3.620431521
11.55546704,0.3122633696,-2.563311338,-2.351546526,3.492541266
11.55777256,0.3337987661,-2.322832584,-2.295315027,3.282597128
11.56010397,0.3481557071,-2.154138565,-2.243869543,3.129932249
11.56242241,0.3888336718,-1.94177556,-2.054836512,2.853775927
11.56472798,0.3936193287,-1.633699656,-1.861616015,2.507892527
11.56705933,0.3511467278,-1.514058471,-1.695913076,2.300390889
11.56937782,0.1932204217,-1.532004714,-1.530210137,2.173917119
11.57169626,0.08255238086,-1.510469317,-1.469193101,2.108758123
11.57401475,-0.08733802289,-1.408774376,-1.428515077,2.008215252
11.57633319,-0.3062812984,-1.260419369,-1.402792215,1.910573531
11.57865168,-0.4606183469,-1.211366415,-1.414158225,1.918181779
11.58097011,-0.7256234884,-1.269990563,-1.439880967,2.052477205
11.5832886,-0.9912267923,-1.012163997,-1.296311617,1.920268293
11.58560704,-1.081555843,-0.865005374,-1.188036442,1.824672005
11.58792553,-1.111466169,-0.822532773,-1.19880414,1.830040594
11.59024397,-1.162911773,-0.8530412912,-1.203589797,1.878475881
11.59256246,-1.262213945,-0.8793623447,-1.200000525,1.951016001
11.59488089,-1.338784218,-0.866201818,-1.190429211,1.989917204
11.59719938,-1.447059512,-0.8979067206,-1.286740422,2.134459797
11.59951782,-1.619342685,-0.8638089895,-1.412961721,2.316224844
11.60183631,-1.737787485,-0.8811569214,-1.432702541,2.41846634
11.60415475,-1.814357758,-0.8733802438,-1.390828133,2.447261739
11.60647324,-1.91066885,-0.8656035662,-1.33399868,2.48585548
11.60879168,-1.999203324,-0.9493523836,-1.291526079,2.562444827
11.61111017,-2.078166485,-1.061815023,-1.238883972,2.642169673
11.6134286,-2.145763636,-1.197607756,-1.229312658,2.747685486
11.61574709,-2.166102648,-1.360917926,-1.174875975,2.815036738
11.61806553,-2.167299032,-1.524227977,-1.040279627,2.846513257
11.62038402,-2.198405743,-1.654038668,-0.9583254457,2.913283265
11.62270246,-2.252842426,-1.785643935,-0.8673982024,3.002699269
11.62502095,-2.255235434,-1.924427629,-0.72323066,3.051650561
11.62733944,-2.27677083,-2.049452543,-0.560518682,3.114180845
11.62965787,-2.224128723,-2.148754835,-0.2255235314,3.100767128
11.63197631,-2.175075769,-2.319243431,0.1244267747,3.182031854
11.63428188,-2.035095692,-2.483749866,0.4893322289,3.24808773
11.63661324,-1.910070658,-2.690729141,0.9828519225,3.44302064
11.63893173,-1.785643935,-2.865405083,1.529611826,3.70658642
11.64123725,-1.638485312,-3.009572744,2.103889227,4.021008841
11.64356866,-1.540977836,-3.111865759,2.787638426,4.453004512
11.64588714,-1.554138303,-3.168097258,3.422932863,4.916162679
11.64819267,-1.613958836,-3.25005126,3.971487284,5.379628943
11.65052407,-1.723430514,-3.323032379,4.853242397,6.129169495
11.65284251,-1.640878081,-3.501895905,5.828916073,6.995142485
11.65514803,-1.664208174,-3.635295868,6.830910206,7.914941512
11.65747944,-1.844268084,-3.791427374,7.765307903,8.836076795
11.65979793,-2.052443504,-3.963112593,8.766105652,9.836838621
11.66210345,-2.418545485,-4.099503517,9.728020668,10.83003589
11.66443485,-2.852244616,-4.261018753,10.74616623,11.90679087
11.66675329,-3.326023579,-4.476971149,11.71167088,12.97185177
11.66905881,-3.932604074,-4.682155609,12.44746304,13.86821156
11.67139022,-4.562514782,-5.021936417,13.0259285,14.68710999
11.67370871,-5.072185993,-5.365306377,13.39143181,15.29195962
11.67601423,-5.542973518,-5.83669281,13.58644676,15.79186734
11.67834563,-5.986244202,-6.380461693,13.55294704,16.13157725
11.68066407,-6.440880299,-6.991827965,13.32921886,16.37188666
11.68296964,-6.889534473,-7.622336388,13.01516056,16.58192093
11.685301,-7.073183537,-8.352147102,12.72802162,16.78662625
11.68761949,-7.039085865,-9.12084198,12.160923,16.75191143
11.68992501,-6.837490559,-9.957731247,11.68714428,16.80764797
11.69225642,-6.390032768,-10.68814087,11.2008028,16.74893601
11.69457485,-5.773283005,-11.39462185,10.40040398,16.47229816
11.69688043,-4.959722996,-12.16989613,9.49232769,16.21140058
11.69921178,-4.029513359,-13.11565876,8.391031265,16.08312433
11.70153027,-3.086741209,-14.03211021,7.428517818,16.17439227
11.70383579,-2.407777786,-14.98684597,6.778268337,16.62371402
11.7061672,-2.240878344,-16.0887413,6.196214199,17.3856896
11.70848563,-2.710469961,-17.17627907,5.794818401,18.3289697
11.71079121,-3.565903902,-18.09512329,5.450251579,19.23159899
11.71312256,-4.639084816,-18.7358017,5.097310543,19.96331505
11.71544105,-5.788238049,-18.99841309,4.707280159,20.41082767
11.71774657,-6.911668301,-18.76690865,4.232903481,20.44224769
11.72007798,-7.828119278,-18.2841568,3.925425529,20.27310551
11.72239642,-8.301898003,-17.48435593,3.820141315,19.72860087
11.72470199,-8.336593628,-16.50030708,3.774677753,18.86815092
11.72703334,-7.995018482,-15.46959877,3.713062525,17.80493302
11.72935183,-7.542775154,-14.32582951,3.608376503,16.58744191
11.73165735,-7.128218651,-13.11087322,3.393620729,15.304351
11.73398876,-6.719046116,-11.92523003,3.183052301,14.05306066
11.7363072,-6.352345943,-10.77847004,3.044268608,12.87615186
11.73861277,-5.997011662,-9.742377281,3.016152859,11.8311133
11.74094412,-5.702694416,-8.775078773,3.035295486,10.89659349
11.74326261,-5.428716183,-7.932805061,3.002992392,10.07066626
11.74556813,-5.191228867,-7.197012424,3.052643538,9.384267555
11.74789954,-4.974080086,-6.567699909,3.107080221,8.80511796
11.75021803,-4.791028976,-6.106483459,3.238685369,8.410242673
11.75252355,-4.650450706,-5.694917679,3.423531055,8.110446599
11.75485496,-4.601397991,-5.309075356,3.74536562,7.961589554
11.75717339,-4.613361835,-4.996213913,4.22931385,8.008268011
11.75947897,-4.644468784,-4.842474937,4.619344234,8.146103054
11.76181032,-4.825725079,-4.567898273,4.973481655,8.299929936
11.76412881,-5.009374142,-4.240081787,5.341378212,8.461822738
11.76643433,-5.166104317,-3.820141315,5.718846321,8.601588035
11.76876574,-5.236692429,-3.403790236,6.010770321,8.668223313
11.77108418,-5.219344616,-3.019144058,6.146563053,8.610286083
11.77338975,-4.956732273,-2.666800737,6.198606968,8.372798179
11.7757211,-4.657031059,-2.530410051,5.837889194,7.884913669
11.77803959,-4.307080746,-2.581257343,5.206781864,7.233561461
11.78034511,-3.999004841,-2.892324448,4.649254322,6.780350004
11.78267652,-3.573680639,-3.305684566,4.101896286,6.36586969
11.78499496,-3.351746321,-4.103690624,3.437887907,6.316134372
11.78730053,-3.270390272,-4.961517811,3.205784082,6.751974756
11.78963188,-3.395415306,-5.924628735,3.503092289,7.674746011
11.79195037,-3.699902058,-6.943971157,4.313661098,8.973053145
11.79425589,-4.10249424,-7.820342541,5.599802971,10.45686424
11.7965873,-4.5930233,-8.632705688,6.416952133,11.69601407
11.79890574,-5.194219589,-9.354740143,7.590033531,13.11867712
11.80121131,-5.898906231,-9.782457352,8.884550095,14.47165495
11.80354266,-6.588038921,-10.28076267,10.17069244,15.89148586
11.80586116,-7.284948349,-10.85743237,11.47059345,17.39335575
11.80816668,-7.728219032,-11.36949635,12.55334568,18.61658681
11.81049808,-7.879564762,-11.94736385,13.71984673,19.82577207
11.81281652,-7.444071293,-12.79023552,14.46401501,20.6932852
11.81512209,-6.41336298,-13.87119293,14.40000629,20.99765223
11.81745345,-4.619344234,-14.93121338,13.06421375,20.37039899
11.81977194,-2.688336134,-15.88894081,10.79880905,19.39845015
11.82207746,-1.132403374,-16.79342842,8.276773453,18.75650699
11.82440886,-0.1866401732,-17.5824604,5.938985825,18.55934538
11.8267273,0.2769692242,-18.15135384,4.000799656,18.58910315
11.82903287,0.4031906128,-18.3475666,2.57766819,18.53213793
11.83136428,0.2626122832,-18.08914185,1.410568953,18.1459561
11.83368272,-0.08913264424,-17.30190277,0.4953143001,17.30922068
11.83598824,-0.5437689424,-16.14198112,-0.185443759,16.15220198
11.83831964,-0.9798609018,-14.56391525,-0.9158528447,14.62554414
11.84063813,-1.352542996,-12.9326086,-1.96151638,13.15025796
11.84294366,-1.562513232,-11.68056393,-3.117249727,12.18992482
11.84527506,-1.736590981,-10.67438221,-4.347160339,11.65572764
11.8475935,-1.867598057,-9.704092026,-5.443073273,11.28203755
11.84989907,-1.920240164,-8.751151085,-6.104090691,10.84112036
11.85223042,-1.922633052,-8.040482521,-6.385845661,10.44628651
11.85454892,-1.988435626,-7.355536938,-6.291328907,9.881225597
11.85685444,-2.12183547,-6.757331371,-5.853442192,9.188389332
11.85918584,-2.280359983,-6.375676155,-5.175076962,8.522365261
11.86150428,-2.536391973,-6.158527374,-4.263411522,7.908060538
11.86380985,-2.800798893,-5.841478348,-3.285345554,7.263665682
11.86614121,-2.999403238,-5.503491879,-2.230110645,6.652686385
11.8684597,-3.058027267,-5.228915691,-1.102493048,6.156994478
11.87076522,-3.023929596,-5.024329185,-0.04426721856,5.864298215
11.87309662,-2.927618504,-4.948357105,0.7615157962,5.799749516
11.87541506,-2.811566591,-5.021338463,1.388435364,5.920008397
11.87772063,-2.544168711,-5.260022163,1.664208174,6.075377884
11.88005199,-2.097907305,-5.705685616,1.504487276,6.262551027
11.88237048,-1.536192179,-6.212964058,0.9212366939,6.466025506
11.884676,-1.006181955,-6.648457527,-0.1489532143,6.725814202
11.8870074,-0.4031906128,-7.314858913,-1.760519266,7.534530621
11.88932584,0.2123630047,-8.119445801,-3.389433384,8.801065664
11.89163142,0.8171489239,-8.732605934,-4.868795872,10.03151594
11.89396277,1.367498159,-9.134600639,-6.205785751,11.12756743
11.89628126,1.939382792,-9.512067795,-7.233502865,12.10637035
11.89858678,2.407777786,-10.04088211,-8.084151268,13.11374123
11.90091819,2.806781054,-10.73360443,-8.609375954,14.04313492
11.90323662,3.202793121,-11.5459671,-8.924032211,14.94006663
11.9055422,3.511467218,-12.32662582,-9.188439369,15.77033685
11.90787355,3.479164124,-12.87039471,-9.355937004,16.28757809
11.91019204,3.327219963,-13.2586298,-9.393025398,16.58585491
11.91249756,3.195614576,-13.74616814,-9.223732948,16.85960677
11.91482897,3.175873756,-14.54836178,-8.888139725,17.34185781
11.91714741,3.228515863,-15.4109745,-8.476573944,17.88221898
11.91945298,3.141177893,-15.91107464,-7.890930653,18.03596632
11.92178433,2.999403238,-16.22453308,-6.993622303,17.9204533
11.92410282,2.793022156,-16.46860123,-6.039484501,17.76207117
11.92640834,2.438286304,-16.53260994,-5.035695076,17.45367172
11.92873975,2.102692842,-16.5146637,-4.199403763,17.16946202
11.93105819,1.787438512,-16.34357643,-3.578466177,16.82595754
11.93336376,1.538584948,-16.09831238,-3.086143017,16.46351068
11.93569511,1.268794179,-15.71067524,-2.767299414,16.00290915
11.9380136,1.02711916,-15.26919937,-2.634497643,15.52881196
11.94031912,0.8596215248,-14.7397871,-2.439482689,14.96500413
11.94265053,0.6616154313,-14.11047554,-2.464607239,14.33937041
11.94496897,0.4307080805,-13.42493153,-2.691327333,13.69881523
11.94727454,0.2644068897,-12.82373428,-2.940180779,13.15913124
11.94960589,0.1004985496,-12.30927753,-3.150151014,12.70637103
11.95192438,-0.005383851007,-11.8660078,-3.278765202,12.31066495
11.9542299,-0.2129612118,-11.3760767,-3.417548895,11.88024048
11.95656131,-0.4444667995,-10.91605663,-3.485146284,11.46752318
11.9588798,-0.7363911867,-10.49491978,-3.467200041,11.0773232
11.96118532,-1.026520967,-10.04028416,-3.248256683,10.60246305
11.96351673,-1.287936807,-9.623932838,-2.958127022,10.15033891
11.96583517,-1.456032634,-9.357132912,-2.432304144,9.77711976
11.96814074,-1.646860242,-9.221340179,-1.776670814,9.534244728
11.97047209,-1.844268084,-9.176474571,-1.05822587,9.419599371
11.97279058,-1.997408748,-9.150752068,-0.4636093974,9.377677686
11.9750961,-2.115255117,-9.138189316,-0.0783649385,9.380135886
11.97742751,-2.239083767,-9.06341362,0.3110669553,9.341077305
11.97974595,-2.536391973,-8.921041489,0.6747759581,9.299117597
11.98205147,-2.844467878,-8.778668404,1.081555843,9.291166746
11.98438287,-3.144767046,-8.717651367,1.436291814,9.378162896
11.98670136,-3.492324591,-8.663214684,1.842473388,9.520626444
11.98900688,-3.898506403,-8.575876236,2.225325108,9.679673405
11.99133829,-4.268197536,-8.631509781,2.689532757,9.997702624
11.99365673,-4.686941147,-8.775078773,3.077768087,10.41355277
11.9959623,-5.097310543,-8.880363464,3.423531055,10.79648067
11.99829366,-5.459823132,-8.969495773,3.71186614,11.13730099
12.00061214,-5.66740036,-9.113663673,3.887738705,11.41458736
12.00291766,-5.641079426,-9.391230583,3.870988846,11.61901646
12.00524907,-5.444269657,-9.70468998,3.588635683,11.69185125
12.00756751,-5.164309502,-10.01097202,2.944368362,11.64297894
12.009886,-4.764708042,-10.41117096,2.044667006,11.63080335
12.01220444,-4.259224415,-10.68514919,1.073180914,11.55271064
12.01452293,-3.740580082,-10.89093208,0.1351944804,11.51618941
12.01682845,-3.209971666,-11.05244732,-0.708275497,11.53092208
12.01915985,-2.637488842,-11.1750803,-1.503889084,11.58017485
12.02147829,-2.111665964,-11.1056881,-1.881356835,11.46014593
12.02378386,-1.754537225,-11.05902767,-1.974078655,11.37002553
12.02611522,-1.487139225,-10.87537861,-1.915454507,11.14245973
12.02843371,-1.112662554,-10.64985561,-1.818545222,10.86114862
12.03073923,-0.7226324677,-10.3663063,-1.430907965,10.48951866
12.03307063,-0.4145565331,-10.05583763,-1.043868899,10.11836893
12.03538907,-0.2362912297,-9.657432556,-0.6400800347,9.681505026
12.03769464,0.02033899166,-9.337990761,-0.4109672904,9.347051901
12.040026,0.4223332107,-9.064610481,-0.304486692,9.079550686
12.04234449,0.8344969153,-8.75713253,-0.2602194548,8.800651647
12.04465001,1.230509043,-8.416753769,-0.2261217386,8.509231901
12.04698142,1.621735573,-8.070990562,-0.1770688742,8.234213278
12.04929985,1.929213285,-7.761120319,-0.2817548811,8.002264575
12.05160542,2.147558212,-7.430312634,-0.5826523304,7.756354546
12.05393678,2.323430777,-7.128817081,-0.9122636318,7.553183997
12.05625527,2.461018085,-6.876374245,-1.118046403,7.388583121
12.05856079,2.569293261,-6.739983082,-1.395015597,7.346748146
12.0608922,2.609971285,-6.566503525,-1.619940877,7.249491506
12.06321063,2.605783939,-6.336792469,-1.869392633,7.102089661
12.06551621,2.547757864,-6.059225082,-2.100898266,6.900655929
12.06784756,2.406581402,-5.86181736,-2.356930256,6.760743823
12.07016605,2.204986095,-5.746961594,-2.588435888,6.677539336
12.07247157,2.026720762,-5.659623623,-2.666800737,6.576531211
12.07480298,1.863410592,-5.596213818,-2.687737942,6.48180865
12.07712147,1.732403636,-5.575276852,-2.560320139,6.374964592
12.07943991,1.55892396,-5.578866005,-2.303689957,6.233857332
12.08175839,1.445863128,-5.734399319,-1.989033818,6.239399912
12.08407683,1.289133191,-6.011368752,-1.735992789,6.38843405
12.08639527,1.13120687,-6.437889099,-1.462612867,6.698155077
12.08871376,0.9170492887,-6.893123627,-1.188634634,7.054713674
12.0910322,0.6179464459,-7.269395351,-0.8309076428,7.342777002
12.09335069,0.2781656384,-7.531409264,-0.3409772217,7.544253912
12.09566912,-0.06999006122,-7.701898098,0.2392822653,7.705932061
12.09798761,-0.4695914388,-7.753343582,0.760917604,7.804732438
12.10029313,-0.8093722463,-7.8370924,1.250249863,7.977357046
12.10262454,-1.129412293,-7.959126472,1.729412556,8.22278141
12.10494303,-1.391426325,-8.108677864,2.143370867,8.501809372
12.10724855,-1.58703959,-8.20857811,2.471785784,8.718324048
12.10957996,-1.706680775,-8.273183823,2.700300455,8.868480838
12.11189839,-1.811366796,-8.318648338,2.818745136,8.968070249
12.11420397,-1.910070658,-8.344968796,2.775076151,8.999328962
12.11653532,-2.008176327,-8.381459236,2.645863533,9.015665529
12.11885381,-2.128415823,-8.456833839,2.406581402,9.046536716
12.12117225,-2.148754835,-8.505886078,2.120639086,9.025760657
12.12349074,-2.140978098,-8.520841599,1.80119729,8.968435786
12.12580918,-2.066800594,-8.548358917,1.530210137,8.926793822
12.12812767,-1.937588096,-8.651848793,1.198205948,8.946755426
12.1304461,-1.892124534,-8.656036377,0.8931210637,8.905322355
12.13276459,-1.695913076,-8.473583221,0.8267202377,8.681082889
12.13508303,-1.523031592,-8.330014229,0.8177471161,8.507495085
12.13740152,-1.403988719,-8.283951759,0.6993024349,8.431136636
12.13971996,-1.301695466,-8.306085587,0.5335994363,8.424381118
12.14203845,-1.227517962,-8.367102623,0.4151547253,8.46685066
12.14435688,-1.101296663,-8.422736168,0.2644068897,8.498543987
12.14667537,-0.9601200819,-8.486743927,0.1417747438,8.542057898
12.14899381,-0.8847461939,-8.427521706,0.0466600433,8.473964544
12.1513123,-0.7794619799,-8.420342445,-0.0239282269,8.456376318
12.15363074,-0.6681957245,-8.446663857,-0.166301176,8.474684178
12.15594923,-0.5760720372,-8.454441071,-0.3128615618,8.479818109
12.15826766,-0.498903513,-8.447860718,-0.4600201547,8.475073685
12.16058616,-0.3678964674,-8.440681458,-0.6592226624,8.474374655
12.16290459,-0.261415869,-8.438288689,-0.8775677085,8.487825359
12.16522308,-0.1740778536,-8.446065903,-1.05822587,8.513881273
12.16754152,-0.1028913707,-8.435297966,-1.0863415,8.505585004
12.16986001,-0.04007977992,-8.462217331,-1.113858938,8.53530376
12.17217845,-0.01734796353,-8.423334122,-1.071386337,8.491214716
12.17449694,0.01256231871,-8.344968796,-0.9236295223,8.395936726
12.17681537,0.02153540403,-8.349754333,-0.8380861282,8.391736981
12.17913386,-0.04486542568,-8.403593063,-0.6951149702,8.432412117
12.1814523,-0.1339980662,-8.502297401,-0.5521438122,8.521260433
12.18377079,-0.2590230405,-8.696713448,-0.3230310678,8.706564581
12.18608923,-0.4905286431,-8.888737679,-0.06999006122,8.90253753
12.18840772,-0.7399803996,-9.090931892,0.2057827413,9.123319582
12.19072616,-1.039681435,-9.370891571,0.4576273263,9.439489875
12.19304464,-1.330409408,-9.637093544,0.709471941,9.75432784
12.19536308,-1.630708575,-9.893723488,0.8422735929,10.06252452
12.19768157,-1.838286042,-9.970293999,0.836291492,10.17277944
12.20000001,-1.983051777,-10.03190899,0.6544370055,10.2469498
12.2023185,-2.127219439,-10.08873844,0.3672982752,10.31710298
12.20463694,-2.155334949,-10.20479012,0.1058823988,10.43045642
12.20695542,-2.118246317,-10.27657509,-0.1226321608,10.49333129
12.20927392,-2.002792597,-10.27896786,-0.2458625287,10.47515187
12.21159235,-1.819143414,-10.20239735,-0.2255235314,10.36576361
12.21391079,-1.612164259,-10.11565781,-0.1716850251,10.24475877
12.21622928,-1.372882009,-10.15813065,-0.05922235921,10.25065513
12.21854777,-1.181456208,-10.23948669,0.1148554832,10.30806084
12.22086621,-1.020538807,-10.43210888,0.2889333367,10.48588945
12.2231847,-0.8189435601,-10.71565819,0.4695914388,10.75716111
12.22550313,-0.6484549642,-11.1003046,0.6406782866,11.13767143
12.22782162,-0.4396811724,-11.46939754,0.8261220455,11.50751395
12.23014006,-0.2165504545,-11.82473087,0.9978070259,11.8687309
12.23244558,0.05922235921,-12.21177006,1.108475089,12.26211859
12.23477699,0.3332005441,-12.4929266,1.165304661,12.55158048
12.23709548,0.6610172391,-12.82612801,1.21854496,12.9008277
12.239401,0.9876375198,-13.09232903,1.247258782,13.1886376
12.2417324,1.351346612,-13.33340645,1.280758262,13.46277115
12.24405084,1.698305845,-13.47398472,1.265803218,13.63945617
12.24635642,2.054238319,-13.55234909,1.231107235,13.76232851
12.24868777,2.408375978,-13.59661674,1.201196909,13.86041615
12.25100626,2.706282377,-13.69532013,1.204786181,14.01204009
12.25331178,2.940778971,-13.5409832,1.214955688,13.90979958
12.25564319,3.212962627,-13.16530991,1.191027522,13.60393547
12.25796162,3.36849618,-12.87817192,1.046261668,13.35248074
12.2602672,3.503092289,-12.68315601,0.9272187948,13.19067234
12.26259855,3.615555048,-12.39721394,0.8165507317,12.93947088
12.26491704,3.676572084,-12.13220882,0.6574280262,12.69408858
12.26722256,3.692723513,-11.96889877,0.4755735099,12.53462863
12.26955397,3.650250912,-11.74397373,0.3062812984,12.30199411
12.27187241,3.613162279,-11.56750298,0.162113741,12.11975031
12.27419089,3.504886866,-11.39761257,0.0783649385,11.92459414
12.27650933,3.34576416,-11.29591751,-0.02333002165,11.7810201
12.27882782,3.158525944,-11.25224876,-0.01615155302,11.68715745
12.28114626,3.002992392,-11.14038372,0.0005982056609,11.538029
12.28346475,2.772084951,-11.11226845,0.03649054468,11.45287285
12.28578319,2.494517565,-11.08056355,0.1010967568,11.35833293
12.28810168,2.133799553,-10.96391296,0.1160518974,11.17022632
12.29042011,1.773081541,-10.87657547,0.1740778536,11.02152509
12.2927386,1.392024517,-10.93340492,0.2566302419,11.02465122
12.29504412,0.9643075466,-11.01057339,0.3391826153,11.05792296
12.29737553,0.5587241054,-11.03390312,0.4121637046,11.05572565
12.29969397,0.1375873089,-10.98604679,0.484546572,10.99758791
12.30199954,-0.1920240223,-10.98425198,0.5341976285,10.99891048
12.30433089,-0.499501735,-10.95793152,0.6263213158,10.98717632
12.30664938,-0.7483552694,-10.92981529,0.6861419082,10.97687062
12.3089549,-0.9349954724,-10.92921734,0.7417750359,10.99419112
12.31128631,-1.063609719,-10.93699455,0.7932206988,11.0171827
12.31360475,-1.128814101,-11.00578785,0.7788637877,11.09090692
12.31591032,-1.13120687,-11.09192944,0.8171489239,11.1793676
12.31824173,-1.149153113,-11.12124157,0.769890666,11.20693083
12.32056017,-1.084546804,-11.21157074,0.694516778,11.28529635
12.3228786,-0.9960124493,-11.29113197,0.6628118753,11.35433933
12.32519709,-0.8638089895,-11.42692471,0.6173482537,11.47614452
12.32751558,-0.7028916478,-11.54357433,0.5958128572,11.58029179
12.32983402,-0.4683950245,-11.77328587,0.6137589812,11.79857424
12.33215251,-0.2279163599,-12.01735306,0.6364908218,12.03635497
12.33447095,-0.02632104978,-12.2674036,0.6783652306,12.28617367
12.33678938,0.2207378894,-12.61196995,0.7022934556,12.63343688
12.33910787,0.4743770957,-13.01456261,0.7310073376,13.04370519
12.34142636,0.6843472719,-13.38844109,0.7501499057,13.42689133
12.34373188,0.890130043,-13.77727413,0.7549355626,13.82662438
12.34606329,1.031904817,-14.09611797,0.7441678643,14.15341497
12.34838173,1.177866936,-14.39522076,0.7519445419,14.46288947
12.3506873,1.338186026,-14.69372559,0.7746763229,14.77485827
12.35301866,1.436890006,-14.85942841,0.8769695163,14.95447562
12.35533714,1.494915962,-14.9342041,1.03549397,15.0445164
12.35764266,1.585245013,-14.98923969,1.256231904,15.12509262
12.35997407,1.620539188,-14.93540096,1.437488198,15.09167723
12.36229251,1.588834286,-14.86421394,1.579861164,15.0321393
12.364611,1.569093466,-14.70090389,1.759921074,14.88878611
12.36692944,1.538584948,-14.52383518,1.991426587,14.74024463
12.36924793,1.547558069,-14.37428379,2.224726915,14.62752133
12.37156636,1.547558069,-14.26361561,2.424527645,14.55073883
12.37388485,1.529611826,-14.13440323,2.480160713,14.43164108
12.37620329,1.554138303,-13.97468281,2.474776745,14.27696135
12.37852178,1.616949916,-13.8101759,2.435893536,14.11626943
12.38084022,1.716850281,-13.60618782,2.382653236,13.91951717
12.38315871,1.830509305,-13.37288761,2.330011129,13.69722013
12.38547714,1.980060697,-13.20658684,2.229512453,13.53902884
12.38779563,2.139781713,-13.05942822,2.053041935,13.39187486
12.39011407,2.335993052,-13.04985619,1.916650891,13.39511704
12.39243256,2.520838737,-13.17069435,1.837687731,13.53509933
12.394751,2.68713975,-13.30110264,1.735394597,13.68033793
12.39706949,2.861815929,-13.54218006,1.572084427,13.93025774
12.39938793,3.016152859,-13.6977129,1.307677627,14.08667943
12.40170642,3.156133175,-13.68036556,1.07497561,14.0808079
12.40402485,3.175275564,-13.45962715,0.9296116233,13.8603072
12.40634334,3.200400352,-13.14198017,0.9182456732,13.55718925
12.40866178,3.208775282,-12.79502106,1.078564763,13.2352599
12.41098027,3.216551781,-12.41994572,1.328614831,12.89831285
12.41329871,3.169293642,-12.18066406,1.650449395,12.69397426
12.4156172,3.068794966,-12.04367447,1.877767563,12.56955084
12.41793563,2.946761131,-11.86840057,2.213959217,12.42754798
12.42025412,2.809772015,-11.82772255,2.484348059,12.40813543
12.42257261,2.620738983,-11.77328587,2.706282377,12.36133072
12.42489105,2.400001049,-11.77388382,2.857030153,12.35099051
12.42720954,2.208575249,-11.802598,3.055634499,12.39015845
12.42952798,1.92203474,-11.79422283,3.143570662,12.3563727
12.43184647,1.654038668,-11.82951736,3.265604734,12.38295196
12.43416491,1.380060434,-11.95095253,3.34576416,12.48695203
12.43648339,1.097707391,-12.1160574,3.397209883,12.63110618
12.43880183,0.8129615188,-12.35294724,3.443870068,12.8497647
12.4411074,0.5144568682,-12.63350582,3.428914785,13.10067143
12.44343876,0.2321037948,-12.93380451,3.371487141,13.36802517
12.44575725,-0.07776673883,-13.25324631,3.19382,13.63286733
12.44806277,-0.3864408433,-13.5726881,2.916850805,13.88795224
12.45039418,-0.6711867452,-13.86341572,2.420938253,14.08920612
12.45271261,-0.9296116233,-14.14517117,1.661815286,14.2727599
12.45501819,-1.115055323,-14.45384502,0.8039883971,14.51906959
12.45734954,-1.157527924,-14.76371574,-0.1052841991,14.80939763
12.45966803,-1.194018483,-15.06401539,-1.109671474,15.15195072
12.46197355,-1.220937729,-15.3170557,-2.291127682,15.53551256
12.46430496,-1.202393413,-15.52941895,-3.362514019,15.93471378
12.46662339,-1.159322619,-15.78006744,-4.36211586,16.41287946
12.46892897,-1.073779106,-16.08634758,-5.151148796,16.92506762
12.47126032,-0.9786644578,-16.42672729,-5.773283005,17.43920728
12.47357881,-0.9296116233,-16.71446419,-6.223133564,17.85958796
12.47588433,-0.9397810698,-16.96032715,-6.527021885,18.19719484
12.47821574,-1.002592683,-17.23071671,-6.730412006,18.52569124
12.48053418,-1.040877819,-17.39522171,-6.753143787,18.68909083
12.48283975,-1.155733347,-17.58545113,-6.686144829,18.84909397
12.4851711,-1.310070395,-17.76610947,-6.486343861,18.95847005
12.48748959,-1.497308731,-17.82772446,-6.125027657,18.90993539
12.48979511,-1.707278967,-17.81217194,-5.625525951,18.75726027
12.49212652,-1.920240164,-17.71047592,-4.951348305,18.48956813
12.49444496,-2.148754835,-17.58963966,-4.16710043,18.2037715
12.49675053,-2.405385017,-17.37248993,-3.221337557,17.83160955
12.49908194,-2.65364027,-17.11227036,-2.200200319,17.45601572
12.50140037,-2.955734253,-16.81556129,-1.203589797,17.11572654
12.50370595,-3.256631613,-16.43629837,0.04127619043,16.75587232
12.5060373,-3.602394581,-16.19163322,1.372283816,16.64420007
12.50835579,-3.963112593,-16.15933037,2.785245657,16.86973067
12.51066131,-4.244269371,-15.97627831,3.940380573,16.99358379
12.51299272,-4.462016106,-15.77887058,4.347160339,16.96408405
12.51531116,-4.568496704,-15.58445358,4.497908592,16.85163308
12.51761673,-4.667200565,-15.39542103,4.266402721,16.6434354
12.51994808,-4.835296154,-15.14537048,3.652643681,16.31269879
12.52226657,-4.890929699,-14.93719578,2.730210543,15.95290132
12.52458501,-4.906482697,-14.78106403,1.693520188,15.66593237
12.5269035,-4.929214478,-14.66860104,0.5479564071,15.48435559
12.52922194,-5.10149765,-14.4634161,-0.6574280262,15.35082718
12.53152751,-5.228915691,-14.37248898,-1.713261008,15.38977784
12.53385886,-5.24506712,-14.33181095,-2.782254457,15.5129776
12.53617735,-5.095515728,-14.11884975,-3.73699069,15.46839676
12.53848287,-4.922036171,-13.94716454,-4.576273441,15.48199332
12.54081428,-4.705485821,-13.87597847,-4.965705395,15.47070152
12.54313272,-4.572085857,-13.79641724,-5.217549801,15.44240666
12.54543829,-4.421936035,-13.80778313,-5.435894966,15.48409982
12.54776964,-4.2574296,-13.84247875,-5.634499073,15.53986823
12.55008813,-4.053441525,-13.87179089,-6.004788399,15.64974295
12.55239366,-3.806980848,-13.91007614,-6.326622963,15.74831672
12.55472506,-3.535993576,-13.69232941,-6.306283951,15.48393853
12.5570435,-3.355335474,-13.20299721,-6.022734642,14.89465488
12.55934907,-3.189632654,-12.67956734,-5.767300606,14.29009939
12.56168042,-3.021536827,-12.18604755,-5.745765209,13.80736244
12.56399892,-2.895315409,-11.62493038,-5.4622159,13.16653562
12.56630444,-2.801995277,-11.00279713,-4.822135925,12.33554689
12.56863584,-2.867199659,-10.4350996,-3.915256023,11.50831731
12.57095428,-2.979662418,-9.960722923,-2.708675146,10.74389642
12.57325985,-2.854039192,-9.648459435,-1.464407444,10.1677332
12.57559121,-2.685345173,-9.483354568,-0.4624129832,9.867062295
12.5779097,-2.584248543,-9.349954605,0.2961117923,9.705033428
12.58021522,-2.497508526,-9.356534958,0.7686942816,9.714586257
12.58254662,-2.427518606,-9.45583725,0.6604190469,9.78477685
12.58486511,-2.315055847,-9.415757179,0.2177468538,9.698627765
12.58717063,-2.173879385,-9.235696793,-0.1645065546,9.489515753
12.58950204,-1.926222205,-9.037691116,-0.1633101404,9.242124372
12.59182048,-1.642074585,-8.881559372,0.1818545163,9.033912601
12.59412605,-1.461416483,-8.61296463,0.6388836503,8.759398962
12.5964574,-1.314856052,-8.305487633,0.9960124493,8.46770406
12.59877589,-1.179661512,-8.090731621,1.262812138,8.273223914
12.60108142,-1.004985452,-8.029116631,1.268794179,8.190637844
12.60341282,-0.8177471161,-8.001000404,1.036092162,8.109143283
12.60573126,-0.6370890141,-8.002795219,0.5180460811,8.04481109
12.60804975,-0.5330012441,-7.948358536,-0.2213360965,7.969283745
12.61036819,-0.5150550604,-7.834699631,-1.070189953,7.924210153
12.61268668,-0.5318048596,-7.779066563,-2.09671092,8.074211397
12.6149922,-0.5431707501,-7.583453178,-2.54656148,8.018027933
12.6173236,-0.485144794,-7.288537979,-2.38624239,7.6845497
12.61964204,-0.4833501875,-6.726224422,-2.089532375,7.059877331
12.62194761,-0.5060819983,-6.256034851,-1.95015049,6.572456008
12.62427897,-0.5551348329,-6.116652966,-1.636690736,6.356128912
12.62659746,-0.6406782866,-6.133402824,-1.609173179,6.373267387
12.62891589,-0.694516778,-6.231508255,-1.694716692,6.495083783
12.63123438,-0.7136593461,-6.357131481,-1.860419631,6.662101135
12.63355282,-0.7788637877,-6.373282909,-2.003988981,6.726167979
12.63587131,-0.8811569214,-6.274579048,-2.120040894,6.681418498
12.6381898,-1.042672515,-6.095715523,-2.14696002,6.546323475
12.64050824,-1.10608232,-5.86181736,-2.172683001,6.348611839
12.64282668,-1.168893814,-5.638088226,-2.189432621,6.160192107
12.64514516,-1.246062398,-5.395216942,-2.234896421,5.971247723
12.6474636,-1.231705427,-5.038686275,-2.218146563,5.641421081
12.64976918,-1.189232826,-4.644468784,-2.258824587,5.299778629
12.65210058,-1.10309124,-4.469792843,-2.249851465,5.124225791
12.65441902,-1.012762189,-4.328018188,-2.111665964,4.921032598
12.65672459,-0.9200403094,-4.239483356,-2.049452543,4.797910902
12.65905595,-0.8464609981,-4.146163464,-2.054238319,4.703941194
12.66137444,-0.7776673436,-4.024727821,-2.059023857,4.587240977
12.66369287,-0.6987041831,-3.964907169,-1.987239242,4.489743445
12.66601136,-0.7357929349,-3.840480328,-1.936391711,4.363518448
12.6683298,-0.7968099117,-3.702893019,-1.94715941,4.258844034
12.67064829,-0.8380861282,-3.569493294,-2.010569334,4.181633626
12.67296673,-0.8572286963,-3.406183004,-1.878365755,3.983112051
12.67528522,-0.8476574421,-3.300300598,-1.683948994,3.800814569
12.67760366,-0.9092726111,-3.152543783,-1.585245013,3.643941649
12.67992214,-0.9708877802,-2.986242771,-1.601396561,3.524874454
12.68224058,-0.9894321561,-2.905484915,-1.926222205,3.623692946
12.68455907,-1.194616675,-2.779861689,-1.71924305,3.480019637
12.68687751,-1.467398524,-2.47358036,-1.337587833,3.171907855
12.689196,-1.601396561,-2.250449657,-0.8727820516,2.896677945
12.69150152,-1.6713866,-2.130808592,-0.2829512656,2.72285509
12.69383292,-1.684547186,-2.087139606,0.04606183618,2.682531016
12.69615136,-1.703091502,-2.145165443,0.1274178028,2.741986641
12.69845694,-1.667199135,-2.11046958,0.327816695,2.709446177
12.70078834,-1.637288928,-2.181656122,0.4289134443,2.761214445
12.70310678,-1.532004714,-2.356930256,0.3882354796,2.837760642
12.70542527,-1.495514154,-2.452044964,0.2841476798,2.886143966
12.70774371,-1.622333765,-2.455634356,0.01136590727,2.943167701
12.7100622,-1.741376638,-2.415554523,-0.1339980662,2.980813938
12.71238063,-1.880758643,-2.370688915,-0.1495514214,3.029815941
12.71469912,-2.032702923,-2.335993052,-0.3182454109,3.112880475
12.71701756,-2.229512453,-2.302493572,-0.2673979402,3.216162945
12.71933605,-2.128415823,-2.395813704,-0.1088734269,3.206544969
12.72165449,-2.028515339,-2.513660192,-0.2548356056,3.240108521
12.72397298,-1.993221283,-2.560918331,-0.3493520916,3.263936376
12.72629142,-1.914258122,-2.61714983,-0.5581258535,3.290191766
12.7286099,-1.87417829,-2.650051117,-0.6340979934,3.307173333
12.73092834,-1.809572101,-2.720639229,-0.7328019142,3.348645644
12.73324683,-1.780260086,-2.758326292,-0.7465606928,3.366755527
12.73556527,-1.823330879,-2.716451883,-0.8428717852,3.378472906
12.73788376,-1.785643935,-2.705684185,-0.7992027402,3.338858516
12.7402022,-1.756929994,-2.738585472,-0.6987041831,3.327888358
12.74252069,-1.715055585,-2.766103029,-0.4935196638,3.29185408
12.74483918,-1.721635938,-2.760719061,-0.3074777126,3.268048742
12.74715761,-1.735394597,-2.669791937,-0.05503492057,3.184715409
12.74947605,-1.800599098,-2.63689065,0.2063809484,3.199678501
12.75179454,-1.823330879,-2.569891453,0.5156532526,3.192925908
12.75411303,-1.890329838,-2.484348059,0.8338986635,3.231210169
12.75643147,-2.009970903,-2.414358139,1.243071318,3.378510701
12.75874996,-2.125424623,-2.310868502,1.665404558,3.554028053
12.76105548,-2.26540494,-2.236092806,2.231905222,3.887617715
12.76338688,-2.332403898,-2.21754837,2.78883481,4.258547677
12.76570532,-2.385046005,-2.207977057,3.456432343,4.744526496
12.76801089,-2.451446772,-2.232503414,4.099503517,5.272531826
12.77034225,-2.480160713,-2.25104785,4.762913704,5.822693581
12.77266074,-2.605185747,-2.243271112,5.438287735,6.433834902
12.77496626,-2.694318295,-2.321038008,6.096911907,7.058250726
12.77729766,-2.876770973,-2.45383954,6.678368092,7.674486308
12.7796161,-2.970091105,-2.574677229,7.384250641,8.365259203
12.78192168,-3.144168854,-2.659024239,8.022536278,9.017610327
12.78425303,-3.406781197,-2.79421854,8.507680893,9.580941997
12.78657152,-3.765704632,-3.037688255,8.892327309,10.12331795
12.78887704,-4.157529354,-3.333800077,9.258428574,10.68259205
12.79120845,-4.715056896,-3.615555048,9.589835167,11.28135357
12.79352688,-5.384449005,-3.884747505,9.985847473,11.99169313
12.79583246,-5.970690727,-4.214957237,10.50808048,12.79979561
12.79816386,-6.531209469,-4.664209366,10.98843956,13.60725358
12.8004823,-7.070192814,-5.29591465,11.32223892,14.3606209
12.80278787,-7.562515736,-5.911468506,11.65603733,15.09967915
12.80511923,-7.916055679,-6.678368092,11.80678558,15.70556346
12.80743772,-8.288139343,-7.432106972,11.82772255,16.24267492
12.80974324,-8.399405479,-8.274380684,11.83310604,16.70442417
12.81207464,-8.274978638,-9.011369705,11.76311588,16.97206383
12.81439308,-7.945965767,-9.724431038,11.75234795,17.19943642
12.81669866,-7.473383427,-10.37647533,11.44187927,17.15923371
12.81903001,-6.899106026,-10.83470058,10.93460083,16.86872538
12.8213485,-6.286543369,-11.15234852,10.51765156,16.56853944
12.82365402,-5.480760098,-11.56630611,10.09412193,16.3005971
12.82598542,-4.54995203,-12.14118195,9.552745819,16.10482273
12.82830386,-3.651447296,-12.61017513,9.101698875,15.9746833
12.83060944,-2.923431158,-13.03131199,8.805587769,15.99687213
12.83294079,-2.421536446,-13.46680546,8.346165657,16.0273881
12.83525928,-2.151147604,-13.84965706,8.003393173,16.13984941
12.8375648,-2.16131711,-14.15354633,7.876574039,16.34119286
12.83989621,-2.428116798,-14.34198093,7.828119278,16.51870515
12.84221464,-2.774477959,-14.41735458,7.829914093,16.6392727
12.84452022,-3.259024382,-14.44846153,7.663612843,16.67663762
12.84685157,-3.667000771,-14.43410397,7.373483181,16.61801752
12.84917006,-4.095315933,-14.37308788,7.006783009,16.50612844
12.85147558,-4.366901398,-14.24088383,6.574280262,16.28170019
12.85380699,-4.584050179,-14.03091335,6.145965099,15.98915046
12.85612548,-4.660022259,-13.74975681,5.78584528,15.62842364
12.858431,-4.619344234,-13.36989689,5.477769375,15.16899605
12.86076241,-4.510470867,-12.90688515,5.237290382,14.64108064
12.86308084,-4.448257446,-12.3050909,5.027918816,14.01721171
12.86538642,-4.345366001,-11.61176968,4.771288395,13.28459987
12.86771777,-4.22931385,-10.87478065,4.585844517,12.53706185
12.87003626,-4.153940201,-10.07139015,4.427918434,11.75987162
12.87234178,-4.118047714,-9.19621563,4.307080746,10.95808576
12.87467319,-4.122833252,-8.269595146,4.223930359,10.15999732
12.87699162,-4.151547432,-7.348358154,4.245465755,9.447628968
12.8792972,-4.268197536,-6.414559364,4.419543266,8.882367068
12.88162855,-4.393222332,-5.49033165,4.54995203,8.375333281
12.88394704,-4.445266247,-4.626522541,4.671986103,7.936785053
12.88625256,-4.429712772,-3.7710886,4.704289436,7.481564247
12.88858397,-4.384847641,-2.968296528,4.813162804,7.155711655
12.8909024,-4.348356724,-2.231905222,5.022534847,7.008242534
12.89320798,-4.338785648,-1.601994753,5.351547718,7.073224941
12.89553938,-4.275974274,-1.013958573,5.739783287,7.228912792
12.89785782,-4.342973232,-0.5635097623,6.102894306,7.511609592
12.90016339,-4.469194412,-0.2195414752,6.485147476,7.879024999
12.90249475,-4.608576298,-0.08793623,6.760322094,8.18221627
12.90481324,-4.794020176,-0.1639083475,6.997809887,8.484034336
12.90711876,-4.971088886,-0.5718846321,7.137191772,8.716552251
12.90945016,-5.113461971,-1.160519004,7.149754047,8.866413064
12.9117686,-5.20618391,-1.984248161,7.092924595,9.019488399
12.91408709,-5.236692429,-2.917448997,6.847062111,9.100368992
12.91640553,-5.126622677,-4.0157547,6.197410583,8.989796651
12.91872402,-4.94955349,-5.309673309,5.507081509,9.111457465
12.92102954,-5.010570526,-6.508477688,4.509274483,9.37014702
12.92336095,-5.211567879,-7.456633568,3.503092289,9.748511656
12.92567938,-5.103890896,-8.449654579,2.814557552,10.26489644
12.92798496,-4.926223755,-9.266803741,2.311466694,10.746358
12.93031631,-4.842474937,-10.10189915,1.745564103,11.33776539
12.9326348,-4.66839695,-10.85683441,1.529013634,11.91648716
12.93494032,-4.674378872,-11.54835987,1.591227055,12.55971485
12.93727173,-4.76949358,-12.18425274,1.847259045,13.21425177
12.93959016,-5.002793789,-12.87099266,2.136192322,13.97332156
12.94189574,-5.481956482,-13.51047516,2.781058073,14.84314892
12.94422709,-6.078966141,-13.98305702,3.805186272,15.71493416
12.94654558,-6.75972414,-14.48196125,5.290530682,16.83480879
12.9488511,-7.365706444,-15.21356678,7.103692055,18.3349035
12.95118251,-7.911868095,-15.89013672,9.078369141,19.93767509
12.953501,-8.213961601,-16.58525276,10.9932251,21.52651324
12.95580652,-8.341978073,-17.51785469,12.08674526,22.85942349
12.95813792,-7.811369419,-18.48455429,12.15075302,23.45926338
12.96045636,-6.878767014,-19.29990959,11.52144146,23.50633019
12.96276194,-5.767899036,-19.992033,10.30050373,23.21745938
12.96509329,-4.751547337,-20.37907219,8.499904633,22.58610556
12.96741178,-3.870390654,-20.4059906,6.275177479,21.69705576
12.9697173,-3.085544825,-19.99322891,3.975076675,20.6167656
12.97204871,-2.416152716,-19.06840324,1.980060697,19.32258877
12.97436714,-1.931606054,-17.80678749,0.4301098585,17.91641083
12.97667272,-1.639083505,-16.28435516,-0.5850451589,16.37709057
12.97900407,-1.622333765,-14.56032562,-1.159920812,14.69627386
12.98132256,-1.811964989,-12.90329647,-1.307677627,13.09535405
12.98362808,-2.144567251,-11.3258276,-1.202991605,11.58968198
12.98595949,-2.578266382,-9.919445992,-1.030708313,10.3007391
12.98827792,-3.081357241,-8.577073097,-0.9972088337,9.168171618
12.9905835,-3.514458179,-7.213762283,-1.350150228,8.13711793
12.99291485,-3.780061483,-6.20817852,-1.926820397,7.519506779
12.99523334,-3.98165679,-5.411966801,-2.574079037,7.19505791
12.99753892,-4.045066833,-4.531407833,-3.511467218,7.016168802
12.99987027,-3.985844374,-3.829712629,-4.273581028,6.986927007
13.00218871,-3.767499208,-3.422334671,-4.771288395,6.9765047
13.00449428,-3.503690481,-3.056830883,-4.971687317,6.807182737
13.00682569,-3.184846878,-2.784049034,-4.565505505,6.223987401
13.00914412,-2.784049034,-2.778067112,-4.080360889,5.66726838
13.0114497,-2.383251429,-2.758326292,-3.466601849,5.030465156
13.01378105,-2.030908108,-2.903092146,-2.898904562,4.57779198
13.01609954,-1.644467354,-3.137588739,-2.19242382,4.16598826
13.01840506,-1.264008522,-3.477967739,-1.500299811,3.993103638
13.02073647,-0.9152546525,-3.862015724,-0.8596215248,4.061010428
13.0230549,-0.4809573591,-4.389034748,-0.394217521,4.43287192
13.02536048,-0.0197407864,-5.088935375,-0.2847459018,5.096933704
13.02769183,0.5635097623,-5.819942951,-0.4893322289,5.867599615
13.03001032,1.202393413,-6.512066841,-1.146162033,6.720599071
13.03231584,1.849651933,-7.247859955,-2.136790514,7.779367577
13.03464725,2.57228446,-8.092526436,-3.321237803,9.117908313
13.03696569,3.265006542,-8.894720078,-4.435096741,10.46166316
13.03927126,4.043870449,-9.752547264,-5.404788017,11.8607251
13.04160261,4.339982033,-10.34297562,-6.471388817,12.94957381
13.0439211,4.316651821,-10.88315582,-7.178467751,13.73342502
13.04622662,4.562514782,-11.75174999,-7.675576687,14.75922242
13.04855803,4.683950424,-12.68136215,-7.944769382,15.68042404
13.05087647,4.658227444,-13.53201008,-7.914260864,16.3538957
13.05318204,4.648057938,-14.09851074,-7.724031448,16.73418984
13.05551339,4.566701889,-14.57049561,-7.368697166,16.95440374
13.05783188,4.419543266,-15.11067486,-6.836892605,17.16414745
13.06013746,4.176073551,-15.48036575,-6.225526333,17.19995617
13.06246881,3.810570002,-15.75195122,-5.630311489,17.15648036
13.0647873,3.392424345,-15.76570988,-5.099703312,16.91369637
13.06709282,3.068794966,-15.64726543,-4.368695736,16.53299491
13.06942423,2.849253654,-15.54975796,-3.527618885,16.19744776
13.07174266,2.621337175,-15.4480629,-2.752344131,15.90878544
13.07404824,2.393420935,-15.27039623,-2.268994093,15.62247737
13.07637959,2.255833626,-15.08016682,-1.799402595,15.35376391
13.07869808,2.14696002,-14.78465271,-1.635494232,15.02897982
13.0810036,2.034497499,-14.48973751,-1.648654819,14.72446046
13.08333501,1.829911113,-14.14935875,-1.700100541,14.36813382
13.08565345,1.628913999,-13.716856,-1.829312921,13.93383957
13.08795902,1.472184181,-13.21137238,-1.743769526,13.4070287
13.09029037,1.317847013,-12.81595802,-1.60977149,12.98371538
13.09260886,1.188634634,-12.37627697,-1.237687469,12.49467703
13.09491438,1.019940615,-12.03410339,-0.8877372146,12.10983075
13.09724579,0.769890666,-11.59801102,-0.8883354068,11.65743244
13.09956423,0.5431707501,-11.06022453,-0.5988038778,11.08973252
13.1018698,0.3535395563,-10.6175518,-0.3367897868,10.62877339
13.10420116,0.07298108935,-10.2592268,-0.394217521,10.26705743
13.10651964,-0.2279163599,-9.911071777,-0.299701035,9.918221128
13.10882516,-0.5694918036,-9.765707016,-0.432502687,9.791854421
13.11115657,-0.8847461939,-9.672387123,-0.6837490797,9.73680447
13.11347501,-1.24965167,-9.363713264,-0.769890666,9.478052914
13.11578058,-1.460219979,-8.994022369,-0.6604190469,9.135690126
13.11811199,-1.799402595,-8.694320679,-0.4701896608,8.89101457
13.12043042,-2.209771633,-8.315058708,-0.4905286431,8.617651092
13.12273595,-2.515454769,-8.087141991,-0.5330012441,8.486074982
13.12506735,-2.770290375,-8.011768341,-0.6263213158,8.500307
13.12738584,-3.073580742,-8.066802979,-0.6095715761,8.654004066
13.12969136,-3.211168051,-8.160721779,-0.4097708762,8.779344644
13.13202277,-3.375674486,-8.307880402,-0.2291127741,8.970426281
13.13434121,-3.48933363,-8.603992462,0.06340979785,9.284834747
13.13664678,-3.589233875,-9.047262192,0.2751746178,9.737108095
13.13897813,-3.599403381,-9.450452805,0.4833501875,10.12424764
13.14129662,-3.582055569,-9.819545746,0.6717849374,10.47405823
13.14361506,-3.584448338,-10.1270237,0.7836494446,10.77121095
13.14593355,-3.594617844,-10.328619,0.9332008362,10.97599707
13.14825199,-3.575475216,-10.50568771,0.9583254457,11.13875599
13.15057048,-3.485744476,-10.63310528,0.8458628058,11.22180138
13.15288892,-3.306880951,-10.68754196,0.685543716,11.20843365
13.1552074,-3.009572744,-10.65643597,0.3828516304,11.07987956
13.15752584,-2.54117775,-10.60259724,0.1292124242,10.90363923
13.15984433,-2.001596212,-10.52363396,-0.2009970993,10.71418027
13.16216277,-1.399203062,-10.4476614,-0.6011967063,10.55806968
13.16446834,-0.6987041831,-10.29272652,-1.049252748,10.36963538
13.1667997,-0.02153540403,-10.14796066,-1.464407444,10.25309995
13.16911819,0.5216353536,-10.02592659,-1.837089539,10.20618466
13.17142371,0.9391828775,-9.819545746,-2.169093609,10.10002526
13.17375511,1.18743825,-9.429515839,-2.318047047,9.782592737
13.17607355,1.585843205,-9.122636795,-2.455035925,9.579384227
13.17837912,2.138585329,-8.889336586,-2.523231506,9.484753523
13.18071053,2.462812662,-8.656036377,-2.660220623,9.384518407
13.18302897,2.685345173,-8.362915039,-2.865405083,9.239046105
13.18533449,2.764906645,-8.020741463,-3.167499065,9.055940188
13.18766589,2.650649309,-7.66839838,-3.204587698,8.723511781
13.18998438,2.653042078,-7.480561733,-2.881556749,8.443980425
13.1922899,2.638685226,-7.360322475,-2.68713975,8.267873167
13.19462131,2.529213428,-7.222734928,-2.536391973,8.062140203
13.19693975,2.389233351,-7.024130821,-2.348555326,7.782195186
13.19924532,2.176272154,-6.808178425,-2.103291035,7.450589717
13.20157668,1.862214208,-6.527021885,-1.869990945,7.04036381
13.20389516,1.575673699,-6.28355217,-1.521237016,6.65431721
13.20620069,1.33399868,-6.202196121,-1.333400369,6.482649593
13.20853209,1.133599758,-6.221338749,-1.258624673,6.447808954
13.21085053,0.9661021233,-6.215356827,-1.178465128,6.399436995
13.21316902,0.7734799385,-6.195616245,-1.042074203,6.33007508
13.21548746,0.5353940725,-6.267998695,-0.8817551732,6.35231821
13.21780595,0.3026920557,-6.527620316,-0.7866404653,6.581812265
13.22012438,0.03409772366,-6.879364967,-0.5814558864,6.90397827
13.22244287,-0.2458625287,-7.188039303,-0.3290131092,7.199764373
13.22476131,-0.5509474277,-7.314858913,0.01794617064,7.335599911
13.22706688,-0.7686942816,-7.329215527,0.4402793646,7.382556268
13.22939824,-0.9708877802,-7.36211729,0.7770691514,7.466406803
13.23171673,-1.146162033,-7.485347271,1.082154036,7.649520804
13.23402225,-1.244866014,-7.636095047,1.378265858,7.858705729
13.23635366,-1.376471281,-7.777870178,1.578066587,8.054826618
13.23867209,-1.424327731,-7.995018482,1.708475351,8.298669655
13.24097766,-1.476371527,-8.21216774,1.790429592,8.533757086
13.24330907,-1.484746456,-8.443074226,1.839482427,8.767763114
13.24562751,-1.486541033,-8.568099976,1.845464468,8.889762682
13.247946,-1.470389485,-8.653642654,1.889133453,8.978663689
13.25026444,-1.436291814,-8.676973343,1.904088616,8.998797366
13.25258292,-1.433300734,-8.590831757,1.826920033,8.89912232
13.25490136,-1.398006678,-8.45085144,1.725823283,8.737836045
13.25721985,-1.298704505,-8.193622589,1.619940877,8.452590903
13.25953829,-1.180858016,-7.91306448,1.433300734,8.128060415
13.26185678,-1.031306505,-7.703692436,1.156331539,7.857962388
13.26417522,-0.8913264275,-7.479963779,0.7692924738,7.572062589
13.26649371,-0.7262216806,-7.294519901,0.3595215976,7.339391957
13.26881214,-0.5204389095,-7.174878597,-0.0933200866,7.19433445
13.27113063,-0.2554338276,-7.149754047,-0.4911268353,7.171152972
13.27344907,-0.01316052489,-7.164111137,-0.9086744189,7.221519978
13.27575464,0.2500499785,-7.264609337,-1.316052437,7.387087912
13.278086,0.4701896608,-7.390232563,-1.628315806,7.582085994
13.28040449,0.7202396393,-7.557730198,-1.891526341,7.824059227
13.28271001,0.9320043921,-7.735397339,-2.136192322,8.078881223
13.28504142,1.101894855,-7.971688747,-2.371885538,8.38974581
13.28735985,1.194616675,-8.334799767,-2.587837696,8.808683221
13.28966542,1.245464206,-8.603393555,-2.747558594,9.116942468
13.29199678,1.245464206,-8.977870941,-2.687737942,9.453955943
13.29431527,1.161715388,-9.339186668,-2.419143677,9.717111011
13.29662079,0.9062815905,-9.536594391,-1.999801517,9.786070969
13.2989522,0.6000002623,-9.710672379,-1.381256819,9.826750671
13.30127063,0.2362912297,-9.895518303,-0.5958128572,9.916254786
13.30357621,-0.08554340899,-10.04088211,0.1992024779,10.04322223
13.30590756,-0.4833501875,-10.19282627,0.8931210637,10.24329049
13.30822605,-0.865005374,-10.34477043,1.453639746,10.48215522
13.31053157,-1.269990563,-10.48355389,1.880160451,10.72626596
13.31286298,-1.586441398,-10.54277611,2.207378864,10.88758218
13.31518147,-1.878365755,-10.55414295,2.367099762,10.97822174
13.31748699,-2.143969059,-10.60857964,2.398804665,11.08570381
13.31981839,-2.347957134,-10.58943653,2.248655081,11.0772523
13.32213683,-2.458625317,-10.4727869,1.955534339,10.9338108
13.32444241,-2.458625317,-10.3346014,1.491924882,10.72728598
13.32677376,-2.343171597,-10.20778179,0.9816554785,10.51916868
13.32909225,-2.152343988,-10.0839529,0.5389832854,10.32517282
13.33141069,-1.90229404,-9.882357597,0.1579262912,10.06502136
13.33372918,-1.555932879,-9.720842361,-0.1507478207,9.845731473
13.33604761,-1.113260746,-9.576674461,-0.4145565331,9.650072557
13.3383661,-0.5670989752,-9.433703423,-0.6155536175,9.470758564
13.34068454,0.004785645287,-9.334401131,-0.8829515576,9.37606905
13.34300303,0.6179464459,-9.200403214,-1.040877819,9.279693084
13.34530855,1.231705427,-9.090332985,-1.165304661,9.247117767
13.34763996,1.866999865,-9.089735031,-1.255633712,9.364058279
13.34995839,2.468794823,-9.138189316,-1.273579836,9.551097185
13.35226397,3.052643538,-9.215956688,-1.191027522,9.781157232
13.35459532,3.518047571,-9.372686386,-1.076171994,10.06886562
13.35691381,3.882952929,-9.507881165,-0.9050851464,10.31001003
13.35921933,4.186243057,-9.495318413,-0.6592226624,10.39809008
13.36155074,4.43808794,-9.527621269,-0.418145746,10.51888956
13.36386918,4.557130814,-9.774082184,-0.1962114573,10.78603832
13.36617475,4.623531342,-10.04088211,0.07417750359,11.05449492
13.3685061,4.610371113,-10.31486034,0.2572284341,11.30124029
13.37082459,4.529613495,-10.75334454,0.4833501875,11.67841789
13.37313011,4.390231133,-11.14516926,0.709471941,11.99967823
13.37546152,4.174877167,-11.56750298,0.9535398483,12.33474615
13.37778001,3.95653224,-11.87976646,1.226321578,12.58121072
13.38008553,3.697509289,-12.05862999,1.425524116,12.69307887
13.38241694,3.374478102,-12.15673542,1.594816327,12.71679038
13.38473537,3.117249727,-12.21535969,1.759921074,12.72908403
13.38705386,2.824128866,-12.19322586,1.905285001,12.66019635
13.3893723,2.545365095,-12.12742329,1.949552298,12.54408359
13.39169079,2.377269268,-12.09332561,1.957328916,12.47922554
13.39400923,2.167299032,-12.04546928,1.878963947,12.38228658
13.39632772,2.027318954,-12.34636688,1.837089539,12.64585684
13.39864616,1.863410592,-12.44626713,1.812563181,12.71484368
13.40096464,1.820937991,-12.04427242,1.566102386,12.28140831
13.40328308,1.7670995,-12.09930801,1.289731383,12.29549926
13.40560157,1.714457393,-12.19202995,1.07497561,12.35882402
13.40792001,1.670788407,-12.30389404,0.865005374,12.44691033
13.4102385,1.613360643,-12.39183044,0.6460621357,12.51310476
13.41255694,1.60378933,-12.5365963,0.522831738,12.6495747
13.41487542,1.491924882,-12.61137199,0.4031906128,12.70571155
13.41719386,1.374078393,-12.63350582,0.3499503136,12.71282919
13.41951235,1.241874933,-12.68435287,0.3110669553,12.74879696
13.42183079,1.112064362,-12.79801178,0.2297109663,12.84829015
13.42414928,0.9577272534,-12.74895859,0.3092723191,12.78862135
13.42646772,0.7722834945,-12.59462166,0.3493520916,12.62311227
13.42878621,0.5724828243,-12.46959686,0.3990031779,12.4891067
13.43110464,0.3595215976,-12.34517002,0.3774677813,12.35617095
13.43342313,0.1555334777,-12.22493076,0.4366901219,12.23371657
13.43574162,-0.05503492057,-12.01854992,0.4474578202,12.02700252
13.43806006,-0.2129612118,-11.81575775,0.4492524564,11.8262129
13.44037855,-0.3918247223,-11.72363472,0.509073019,11.74122195
13.44269699,-0.5282155871,-11.67338562,0.6077769399,11.70112543
13.44501548,-0.5802595019,-11.71286678,0.7268198729,11.74973261
13.44733392,-0.613160789,-11.78644657,0.8458628058,11.83265705
13.4496524,-0.6113662124,-11.90130138,0.9948160052,11.95844481
13.45197084,-0.5216353536,-12.09571838,1.159920812,12.16239791
13.45428933,-0.4055834413,-12.35653591,1.291526079,12.4304673
13.45660777,-0.2805584669,-12.61735344,1.447059512,12.70316111
13.45892626,-0.1064806059,-12.93978691,1.574477315,13.03565887
13.4612447,0.06400800496,-13.2717905,1.57866478,13.36550421
13.46356319,0.2536391914,-13.57986641,1.549352646,13.67031814
13.46588162,0.4378865361,-13.8490591,1.476371527,13.93441264
13.46820011,0.6233302951,-14.18166161,1.394417405,14.26367647
13.47050563,0.7399803996,-14.40897942,1.316052437,14.48786571
13.47283704,0.793818891,-14.59562016,1.194018483,14.66587728
13.47515548,0.8805587292,-14.76670647,1.03848505,14.82934438
13.47746105,0.9373882413,-14.89472294,0.9158528447,14.95226587
13.47979241,1.01036942,-15.09033585,0.7555337548,15.14298232
13.48211089,1.037288666,-15.18186188,0.6562315822,15.23139973
13.48442938,1.116251707,-15.25663757,0.5383850932,15.30688951
13.48674782,1.261017561,-15.272789,0.4109672904,15.33026886
13.48906631,1.396810174,-15.15434361,0.3212364316,15.22197102
13.49138475,1.51944232,-14.93958855,0.3541377485,15.02083301
13.49370324,1.642672777,-14.73500156,0.4157529473,14.83211028
13.49602168,1.757528186,-14.43948841,0.5479564071,14.55637273
13.49834016,1.861017823,-14.21097374,0.6999006271,14.34939103
13.5006586,1.964507341,-14.00638771,0.7657032609,14.16419737
13.50297709,2.059622049,-13.81675625,0.7651050687,13.99036032
13.50529553,2.10209465,-13.60499096,0.7262216806,13.7855714
13.50761402,2.145763636,-13.43569946,0.7058826685,13.62426482
13.50993246,2.161915302,-13.30110264,0.6287141442,13.49031099
13.51225095,2.151147604,-13.22513103,0.513858676,13.40878733
13.51456938,2.113460541,-13.22094345,0.456430912,13.39658129
13.51688787,2.073979139,-13.33280754,0.394815743,13.49892684
13.51920631,1.993221283,-13.51226902,0.3188436031,13.66221089
13.5215248,1.921436548,-13.63430309,0.2189432681,13.77076887
13.52384324,1.813161373,-13.7036953,0.1471585929,13.82390953
13.52616173,1.709671736,-13.74018574,0.07956135273,13.84637178
13.52848017,1.546361685,-13.70070457,0.1304088384,13.78831196
13.53079866,1.384846091,-13.60798264,0.3242274821,13.68210925
13.53311714,1.192822099,-13.47757339,0.6981059909,13.54825307
13.53543558,1.003789067,-13.31306744,1.16769743,13.40182355
13.53775402,0.7782655358,-13.10608768,1.826920033,13.25567307
13.54005959,0.5748756528,-12.87338543,2.600998163,13.14609166
13.54239095,0.3678964674,-12.48335552,3.431307554,12.95157845
13.54470944,0.0933200866,-12.24347496,4.180261135,12.93777303
13.54701501,-0.1740778536,-12.18664551,4.679164886,13.0552371
13.54934636,-0.3463610709,-12.27637672,4.992624283,13.25728814
13.55166485,-0.5048855543,-12.45284748,5.059025288,13.45072699
13.55397037,-0.680758059,-12.59641647,4.882554531,13.52673199
13.55630178,-0.8338986635,-12.83569908,4.539782524,13.64038794
13.55862022,-0.9834501147,-13.18146133,4.077968121,13.83285658
13.56093871,-1.136590719,-13.5655098,3.583251953,14.07673929
13.56325714,-1.250249863,-13.97229004,3.074777126,14.36113742
13.56557563,-1.401595831,-14.39043522,2.480160713,14.66970667
13.56788116,-1.575075507,-14.70269871,1.798804402,14.8958353
13.57021256,-1.764108539,-14.914464,1.135992527,15.06133441
13.572531,-1.888535261,-15.02931881,0.3385843933,15.15129132
13.57483657,-1.905883193,-15.25244999,-0.366101861,15.37542364
13.57716793,-1.829312921,-15.61675739,-0.9774680734,15.75388654
13.57948642,-1.69950223,-16.00858116,-1.660618901,16.18396224
13.58179194,-1.55892396,-16.41057587,-2.477169752,16.66954151
13.58412334,-1.447059512,-16.75992775,-3.341576815,17.1509561
13.58644178,-1.308874011,-17.16192245,-4.381856441,17.76078262
13.58874735,-1.207777262,-17.51665878,-5.208576679,18.31451151
13.59107876,-1.101894855,-17.88993835,-5.854040623,18.85560549
13.5933972,-1.015753269,-18.13340759,-6.30927515,19.22652279
13.59570272,-1.009771109,-18.24886131,-6.713662148,19.4708458
13.59803412,-1.048056364,-18.33679771,-7.013961315,19.66042283
13.60035261,-1.144965649,-18.22433472,-7.2065835,19.6308983
13.60265813,-1.228116274,-17.97189331,-7.152146816,19.3817033
13.60498954,-1.262812138,-17.68415642,-6.70588541,18.95502524
13.60730798,-1.266999602,-17.35095596,-6.088537216,18.43179986
13.60962647,-1.272383451,-17.02313805,-5.265406132,17.86422935
13.61194491,-1.321436286,-16.68694687,-4.395017147,17.30654689
13.61426339,-1.456630826,-16.33819389,-3.512065411,16.77477143
13.61656892,-1.606182218,-16.01755524,-2.62851572,16.31106961
13.61890032,-1.755733609,-15.68315792,-1.625324726,15.86460599
13.62121876,-1.894517303,-15.47318745,-0.5024927258,15.5968338
13.62352433,-1.987837434,-15.34397507,0.6454638839,15.48566086
13.62585569,-2.08534503,-15.28594971,1.979462504,15.55400894
13.62817418,-2.182852507,-15.2668066,3.357728481,15.78336369
13.6304797,-2.260020971,-15.34218025,4.978865623,16.28739674
13.6328111,-2.277967215,-15.5617218,6.134599209,16.88163581
13.63512959,-2.255235434,-15.81954861,6.527620316,17.26134502
13.63743511,-2.183450699,-16.00020599,6.506084919,17.40985898
13.63976652,-2.123630047,-15.87398529,6.338587284,17.2241372
13.64208496,-2.123630047,-15.67837238,5.684150219,16.81162481
13.64439053,-2.188834429,-15.38943863,4.546362877,16.19553126
13.64672188,-2.233101845,-15.24467278,3.013161898,15.69923363
13.64904037,-2.319243431,-15.02872086,1.136590719,15.24903863
13.65134589,-2.496910334,-14.9401865,-0.7932206988,15.16815523
13.6536773,-2.790629387,-14.74337673,-2.409572363,15.1973948
13.65599574,-3.113660574,-14.52802277,-3.854238987,15.34970638
13.65830131,-3.440280676,-14.21216965,-5.171487808,15.51017677
13.66063267,-3.881158352,-13.70608807,-6.643074036,15.71784568
13.66295116,-4.272983074,-13.20359516,-7.594819069,15.8200691
13.66525668,-4.48833704,-12.93500137,-7.794021606,15.75456133
13.66758808,-4.632504463,-12.70768261,-7.787441254,15.6073552
13.66990652,-4.626522541,-12.58265781,-7.731209755,15.47577438
13.67221209,-4.429114819,-12.57727432,-7.405188084,15.25259644
13.67454345,-4.138985157,-12.76092339,-6.742974281,15.0146617
13.67686194,-3.781257868,-12.9822588,-5.970690727,14.78127539
13.67918042,-3.541975737,-13.01875019,-5.319244862,14.50268301
13.68149886,-3.32901454,-12.58026505,-4.724628448,13.84440394
13.68381735,-3.208775282,-12.07717419,-4.116253376,13.15666816
13.68612287,-3.1405797,-11.57946682,-3.537788391,12.50852667
13.68845428,-3.108874798,-11.05962658,-3.183052301,11.92108487
13.69077272,-3.067000389,-10.57268715,-2.919243574,11.38903806
13.69307829,-3.02512598,-10.03848934,-2.722434044,10.83209595
13.69540964,-3.00837636,-9.470791817,-2.497508526,10.24615903
13.69772813,-2.894717216,-8.953942299,-2.256431818,9.676980676
13.70003366,-2.708675146,-8.647063255,-2.071586132,9.295165038
13.70236506,-2.568695068,-8.321639061,-2.086541414,8.955530475
13.7046835,-2.380260229,-8.029116631,-2.134995937,8.642370061
13.70698907,-2.26241374,-8.015357971,-1.428515077,8.450155896
13.70932043,-1.998605132,-8.142177582,-0.6185446382,8.406668527
13.71163892,-1.63489604,-8.531609535,-0.1028913707,8.687452616
13.71394444,-1.17906332,-9.034101486,0.03469592705,9.110783928
13.71627584,-0.8033902049,-9.266205788,-0.2805584669,9.30519847
13.71859428,-0.4941178858,-9.332606316,-1.144965649,9.415553062
13.72089985,-0.2572284341,-9.395418167,-1.925025821,9.594048854
13.72323126,-0.09930214286,-9.440881729,-2.453241348,9.75492193
13.7255497,0.1381855011,-9.46002388,-2.846860647,9.880068957
13.72785527,0.4313062727,-9.44865799,-3.182454109,9.979537918
13.73018662,0.6825526357,-9.309276581,-3.454039574,9.952833664
13.73250511,0.8410771489,-9.07059288,-3.692723513,9.829510309
13.73481063,0.9302098155,-8.75713253,-3.989433527,9.667897409
13.73714204,0.9254241586,-8.488538742,-4.263411522,9.544023138
13.73946048,0.980459094,-8.227720261,-4.259822369,9.316800273
13.74177897,0.9906286001,-7.896314621,-4.209573269,9.002979325
13.74409741,1.000199914,-7.554739475,-4.11685133,8.661579145
13.74641589,0.9314061999,-7.157530785,-3.943969965,8.225123922
13.74872142,0.965503931,-6.80997324,-3.397209883,7.671308125
13.75105282,0.9912267923,-6.529414654,-2.717648268,7.141526334
13.75337126,1.063011408,-6.334998131,-2.178664923,6.782976885
13.75567683,1.10010016,-6.203990936,-1.907677889,6.583233159
13.75800819,1.174277663,-6.158527374,-1.802393675,6.523420147
13.76032668,1.281356573,-6.098108292,-1.677966833,6.453245083
13.7626322,1.354935765,-5.990431309,-1.701895118,6.37319113
13.7649636,1.40997076,-5.826523304,-1.955534339,6.305593224
13.76728209,1.521237016,-5.623133183,-2.213361025,6.231593365
13.76958761,1.481157184,-5.2737813,-2.531606436,6.034536183
13.77191902,1.507478237,-4.956133842,-2.700300455,5.841864073
13.77423746,1.47158587,-4.649852753,-2.745764017,5.596955925
13.77654303,1.405783296,-4.35852623,-2.596212626,5.264342083
13.77887438,1.277169108,-4.039682865,-2.451446772,4.894873835
13.78119287,1.131805062,-3.806980848,-2.388036966,4.634307546
13.78349839,0.9720842242,-3.556332588,-2.304886341,4.347982321
13.7858298,0.8404789567,-3.304488182,-2.136192322,4.023600957
13.78814824,0.6843472719,-3.049054146,-2.00099802,3.71066779
13.79045381,0.4863412082,-2.793620348,-1.904686809,3.415944124
13.79278517,0.2781656384,-2.524427891,-1.779661894,3.101178607
13.79510366,0.0652044192,-2.298904419,-1.563709617,2.781079091
13.79740918,-0.1908276081,-2.054836512,-1.338784218,2.459900699
13.79974058,-0.3678964674,-1.899901152,-1.116850019,2.234351396
13.80205907,-0.5270192027,-1.740180254,-0.9433703423,2.048395508
13.80436459,-0.6813562512,-1.6713866,-0.9212366939,2.026439378
13.806696,-0.8099704385,-1.645663738,-1.008574724,2.093199519
13.80901444,-0.9523434043,-1.644467354,-1.11445713,2.203008292
13.81133292,-1.079162955,-1.691127419,-1.1820544,2.328466714
13.81365136,-1.183250785,-1.718046665,-1.177866936,2.395649658
13.81596985,-1.26341033,-1.75334084,-1.202991605,2.473377966
13.81828829,-1.353141189,-2.120639086,-1.286740422,2.825562267
13.82060678,-1.436291814,-2.540579557,-1.499103427,3.280973902
13.82292522,-1.822134495,-2.430509567,-1.956132531,3.613032709
13.82524371,-2.028515339,-1.78145647,-1.485942841,3.081637189
13.8275622,-2.087139606,-1.185643673,-0.8321040869,2.540531414
13.82988063,-2.103291035,-0.9936196208,-0.6957131624,2.427988866
13.83219912,-2.133201361,-1.057627559,-0.9002995491,2.545518292
13.83451756,-2.181656122,-1.150349498,-1.119242787,2.708437154
13.83683605,-2.234896421,-1.238285661,-1.267597795,2.852177687
13.83915449,-2.294716835,-1.287936807,-1.382453322,2.972487806
13.84147298,-2.303689957,-1.307079315,-1.387238979,2.989962498
13.84379142,-2.313859463,-1.287936807,-1.420738459,3.005199594
13.8461099,-2.337787628,-1.274178028,-1.459023595,3.036038618
13.84842834,-2.299502611,-1.273579836,-1.430309772,2.992574795
13.85074683,-2.240878344,-1.344168067,-1.390828133,2.96019027
13.85306527,-2.147558212,-1.466800332,-1.341775298,2.926409137
13.85538376,-2.086541414,-1.633101463,-1.306481123,2.954245824
13.8577022,-1.91365993,-1.855035782,-1.269990563,2.952308946
13.86002069,-1.790429592,-2.169093609,-1.395015597,3.139533998
13.86233912,-1.733001828,-2.306082726,-0.9690931439,3.043099472
13.86465761,-1.543370605,-2.397010088,-0.5324030519,2.9001902
13.86697605,-1.363908887,-2.62253356,-0.1004985496,2.957706828
13.86929454,-1.252642632,-2.787040234,0.2315055877,3.064359911
13.87161303,-1.188036442,-2.982653379,0.5623133183,3.259424495
13.87391855,-0.980459094,-3.245265722,1.124626637,3.571811125
13.87624996,-0.6783652306,-3.515654564,1.758724689,3.989125084
13.87856839,-0.4013960063,-3.742972851,2.535793781,4.538856091
13.88087397,-0.3128615618,-3.864408493,3.238087177,5.051410093
13.88320532,-0.2578266263,-3.991826296,3.921836376,5.601959685
13.88552381,-0.2225325108,-4.114458561,4.676771641,6.233015558
13.88782933,-0.1806581169,-4.308875561,5.479563713,6.97313878
13.89016074,-0.1974078715,-4.475774765,6.296712875,7.72787957
13.89247918,-0.2721835673,-4.605585575,7.18445015,8.538256633
13.89478475,-0.4803591371,-4.776672363,8.070990562,9.390858982
13.8971161,-0.7411768436,-4.92502737,8.990432739,10.27779736
13.89943459,-1.05822587,-5.123631477,9.933204651,11.22675359
13.90174011,-1.428515077,-5.322235584,10.97109222,12.27728437
13.90407152,-1.967498422,-5.477170944,12.04546928,13.37773456
13.90639001,-2.62851572,-5.611168861,12.92363548,14.33229448
13.90869553,-3.260220766,-5.773283005,13.64925861,15.1743895
13.91102694,-3.926023722,-6.056233883,14.34616852,16.05939545
13.91334537,-4.596612453,-6.455835342,14.81575966,16.80218409
13.91565095,-5.220541,-6.949953556,15.09990692,17.42306207
13.9179823,-5.809773445,-7.593024254,15.14237976,17.90807498
13.92030079,-6.375077724,-8.341380119,14.89950848,18.22678225
13.92260631,-6.885347366,-8.997611046,14.64227962,18.51381553
13.92493772,-7.2065835,-9.754940033,14.27258873,18.72966871
13.92725616,-7.249056339,-10.54457092,13.76291752,18.7924105
13.92956173,-7.075576782,-11.29591751,13.10668564,18.69349479
13.93189308,-6.551548481,-12.23510075,12.61795235,18.75721726
13.93421157,-5.809773445,-13.17488194,11.83908844,18.64121768
13.93651714,-4.874777794,-14.15892982,10.85743237,18.49655616
13.9388485,-4.036093712,-15.06281853,9.664610863,18.34620554
13.94116699,-3.394218922,-15.77528191,8.650053978,18.30856835
13.94347251,-3.06460762,-16.29273033,7.836493969,18.33727131
13.94580392,-3.06999135,-16.62473297,7.265805721,18.40104687
13.94812235,-3.215953588,-16.80180168,6.979863644,18.475968
13.95042793,-3.667598963,-16.79821396,6.780661106,18.4826578
13.95275928,-4.127020836,-16.54995728,6.712465763,18.33004592
13.95507777,-4.567898273,-16.06062508,6.600003242,17.95464885
13.95738329,-4.905286312,-15.35354614,6.491727829,17.37629832
13.9597147,-5.088337421,-14.5268259,6.393621922,16.66728082
13.96203313,-5.283950806,-13.58106327,6.341578007,15.89279797
13.96433871,-5.296513081,-12.65444279,6.082555294,15.00618046
13.96667011,-5.11884594,-11.69970608,5.790630817,14.02202237
13.96898855,-4.930410862,-10.79821014,5.470590591,13.07048794
13.97129412,-4.714458942,-9.953543663,4.999204636,12.09508998
13.97362548,-4.651049137,-9.122037888,4.48833704,11.17984806
13.97594397,-4.537988186,-8.394619942,4.073182583,10.37563478
13.97824949,-4.435096741,-7.793423176,3.569493294,9.65136313
13.98058089,-4.299902439,-7.330412388,3.018545866,9.018632153
13.98289933,-4.206582069,-6.920641422,2.539382935,8.487583643
13.98520491,-4.115654945,-6.602396011,2.074577332,8.051963725
13.98753626,-4.109673023,-6.32004261,1.596012712,7.705816474
13.98985475,-4.119244099,-6.017949104,1.207777262,7.392063939
13.99216027,-4.165904045,-5.774479389,0.8231309652,7.167769061
13.99449168,-4.2071805,-5.54117918,0.4636093974,6.972802029
13.99681011,-4.34775877,-5.222933769,0.3505485058,6.804772423
13.99911569,-4.653441906,-4.864608288,0.4073780477,6.744248827
14.00144709,-5.05124855,-4.51346159,0.6729813814,6.807301329
14.00376553,-5.568696499,-4.122235298,0.8703892231,6.982892091
14.0060711,-6.145366669,-3.669393539,1.091725349,7.240293135
14.00840246,-6.757331371,-3.159722328,1.420738459,7.593673039
14.01072095,-7.360920429,-2.611167669,1.745564103,8.003020692
14.01302647,-7.802396297,-2.044667006,2.056631088,8.323928314
14.01535787,-8.115258217,-1.484746456,2.370090723,8.583659942
14.01767631,-8.24865818,-1.026520967,2.684746981,8.735100081
14.01998188,-8.21635437,-0.7800601721,3.184248686,8.846265466
14.02231324,-8.066802979,-0.6981059909,3.924229145,8.997790654
14.02463173,-8.10449028,-0.7316055298,4.597210407,9.346248064
14.02693725,-8.039883614,-1.213759303,5.216353416,9.660397669
14.02926866,-8.008178711,-2.087139606,5.337191105,9.847471091
14.03158714,-7.855636597,-3.018545866,5.96590519,10.31574865
14.03389267,-7.666603565,-4.064807415,6.60419035,10.90480627
14.03622407,-7.475177765,-5.202594757,7.239484787,11.6342346
14.03854251,-7.313662529,-6.334998131,8.060222626,12.59321443
14.04084808,-7.372286797,-7.324429989,9.073583603,13.79593443
14.04317944,-7.434499741,-8.471788406,9.915857315,15.01223539
14.04549793,-7.604390144,-9.732208252,10.80120182,16.40757714
14.04780345,-7.795815945,-10.98425198,11.44307613,17.67406374
14.05013485,-7.847261906,-12.09811115,12.53839111,19.10903097
14.05245329,-7.549953461,-13.35195065,13.48535061,20.42378673
14.05475886,-6.999006271,-14.57228947,14.18106365,21.50442455
14.05709022,-6.159125328,-15.87757492,14.15474224,22.14472709
14.05940871,-4.982454777,-17.28216171,13.57926846,22.53651483
14.06171423,-3.595216036,-18.84706688,12.24287701,22.76017455
14.06404563,-1.963909149,-20.23370743,10.13121128,22.71346071
14.06636412,-0.5730810165,-21.26800537,7.179066181,22.45429726
14.06866964,0.3038884699,-21.91646004,3.942773581,22.27036219
14.07100105,0.7292127013,-22.08515549,0.866201818,22.11416174
14.07331949,0.8368897438,-21.72204399,-1.892722726,21.82040281
14.07562506,0.8297112584,-20.72662926,-3.698107481,21.0703009
14.07795642,0.6047859192,-19.13480377,-4.723432064,19.71845054
14.08027491,0.2386840582,-17.51665878,-5.300700188,18.30266995
14.08258043,-0.2057827413,-15.91346741,-5.650052547,16.8879805
14.08491183,-0.6813562512,-14.4317112,-5.928217888,15.61673147
14.08723027,-1.113260746,-13.05404377,-5.932405472,14.38196242
14.08953584,-1.491924882,-11.71765232,-5.854638577,13.18355068
14.0918672,-1.808375716,-10.43270683,-5.704489231,12.02716891
14.09418569,-2.075773716,-9.151947975,-5.663212776,10.96079227
14.09649126,-2.298306227,-8.172685623,-5.467599869,10.09800228
14.09882261,-2.39760828,-7.396812916,-5.111667156,9.305402081
14.1011411,-2.504088879,-6.778268337,-4.515854359,8.521051775
14.10344662,-2.520838737,-6.378666878,-3.698705673,7.792460634
14.10577803,-2.663211584,-6.000600815,-2.686541557,7.093476695
14.10809647,-2.855833769,-5.714658737,-1.545763373,6.572860519
14.11040204,-3.050848961,-5.525027275,-0.446859628,6.327186523
14.11273339,-3.238087177,-5.249254704,0.613160789,6.198052086
14.11505188,-3.298506021,-5.210969448,1.537986755,6.356079595
14.11735741,-3.223132133,-5.375475883,2.193620205,6.640503846
14.11968881,-2.977867842,-5.547161102,2.50707984,6.776735387
14.12200725,-2.526222467,-5.738586903,2.158924341,6.631299564
14.12431282,-1.939980984,-5.995217323,1.188634634,6.412410566
14.12664423,-1.318445325,-6.315257072,-0.2925225794,6.458044551
14.12896267,-0.6550351977,-6.567101955,-2.001596212,6.896541641
14.13126824,0.06161518395,-6.841079712,-3.620340586,7.740221832
14.13359959,0.793818891,-7.057032108,-5.028516769,8.701599365
14.13591808,1.532004714,-7.42612505,-6.083153248,9.721066049
14.1382236,2.059622049,-7.828119278,-6.943971157,10.66490646
14.14055501,2.36650157,-8.206185341,-7.725227833,11.51611708
14.14287345,2.74396944,-8.765507698,-8.367102623,12.42464888
14.14517902,3.121437073,-9.396016121,-8.764310837,13.22276948
14.14751037,3.433102369,-10.12403297,-8.98026371,13.9616393
14.14982886,3.739383698,-10.8999052,-8.991030693,14.61607187
14.15213438,3.99601388,-11.6327076,-8.873783112,15.16680717
14.15446579,4.165306091,-12.4498558,-8.81874752,15.81515072
14.15678423,4.183252335,-13.16052437,-8.712865829,16.32828934
14.1590898,4.221537113,-13.84547043,-8.288139343,16.67967868
14.16142121,4.34476757,-14.59502125,-7.556533813,16.99978981
14.16373964,4.46620369,-15.31585979,-6.686742783,17.29841223
14.16604522,4.453640938,-15.81895065,-5.805585861,17.42925542
14.16837657,4.336392879,-16.16052628,-4.92143774,17.44097079
14.17069506,4.255036831,-16.44945908,-3.927818298,17.43897356
14.17300058,4.239483356,-16.72642899,-2.886342287,17.49507409
14.17533199,4.196412563,-16.95613861,-2.117049932,17.5955226
14.17765043,4.114458561,-17.05364609,-1.649851203,17.62037523
14.179956,3.912265062,-16.91845322,-1.361516118,17.41819748
14.18228735,3.669991732,-16.57867241,-1.385444283,17.03645133
14.18460584,3.506083488,-16.1258297,-1.432702541,16.56465036
14.18691136,3.33439827,-15.51087475,-1.605584025,15.94626437
14.18924277,3.097508907,-14.7960186,-1.774876237,15.22060818
14.19156126,2.838485956,-13.96690559,-1.921436548,14.38135504
14.19386678,2.624328136,-13.24726391,-1.976471543,13.64857278
14.19619819,2.336591244,-12.57188988,-2.164906263,12.96915159
14.19851662,2.129612207,-12.07777214,-2.313261271,12.48034478
14.2008222,1.940579176,-11.56391335,-2.410170555,11.97075025
14.20315355,1.747956991,-11.15533924,-2.405385017,11.54481807
14.20547204,1.487139225,-10.72881889,-2.214557409,11.05546935
14.20777756,1.216152072,-10.29751205,-1.900499344,10.54180621
14.21010897,0.9320043921,-9.895518303,-1.639083505,10.07355495
14.21242741,0.6191428304,-9.518050194,-1.420738459,9.643397488
14.21473298,0.3008974493,-9.217751503,-1.292124271,9.312736825
14.21706433,0.04366901144,-8.935398102,-1.090528965,9.001805355
14.21938282,-0.2626122832,-8.740981102,-0.9900303483,8.80078837
14.22168834,-0.5300102234,-8.645866394,-0.7310073376,8.692887223
14.22401975,-0.8249256015,-8.542376518,-0.4863412082,8.595884283
14.22633824,-1.10309124,-8.529216766,-0.3601198196,8.607789218
14.22864376,-1.383649707,-8.569295883,-0.3242274821,8.686336507
14.23097516,-1.816750646,-8.61296463,-0.35174492,8.809510038
14.2332936,-2.246262312,-8.757730484,-0.4163511395,9.050794765
14.23559918,-2.726023197,-9.008976936,-0.4899304509,9.425120676
14.23793053,-3.251247883,-9.343374252,-0.4971089065,9.905370891
14.24024902,-3.707080364,-9.661619186,-0.3224328458,10.35341939
14.24255454,-4.264009953,-9.832108498,0.1082752272,10.71745594
14.24488595,-4.923830986,-9.966704369,0.656829834,11.13601064
14.24720438,-5.564508915,-10.06660461,1.281356573,11.57333844
14.24950996,-6.084948063,-10.24128056,1.840678811,12.05398353
14.25184131,-6.401398659,-10.46859932,2.193022013,12.46510417
14.2541598,-6.44985342,-10.68156052,2.399402857,12.70643452
14.25646532,-6.25842762,-10.77727318,2.659024239,12.7431528
14.25879673,-5.969494343,-10.82812023,2.528615236,12.62049704
14.26111522,-5.309075356,-10.78445148,2.104487419,12.20325949
14.26343366,-4.607978344,-10.67258739,1.771286964,11.75904093
14.26575214,-4.101297855,-10.55115128,1.164706469,11.37998148
14.26807058,-3.505485058,-10.29870892,0.4283152521,10.88739109
14.27038907,-3.029911757,-9.894919395,-0.1668993831,10.34976572
14.27270751,-2.549552441,-9.350552559,-0.4959124923,9.704585514
14.275026,-2.040479422,-8.748159409,-0.5144568682,8.997694992
14.27733152,-1.608574986,-8.142177582,-0.5150550604,8.315518684
14.27966292,-1.201196909,-7.604988575,-0.6346961856,7.725384423
14.28198136,-0.970289588,-7.066603661,-0.8416753411,7.182392816
14.28428694,-0.7728816867,-6.505486488,-1.163509965,6.653755029
14.28661834,-0.5324030519,-5.967101574,-1.403988719,6.15312429
14.28893678,-0.3020938635,-5.693721294,-1.79521513,5.977668462
14.29124235,0.002991028363,-5.423332691,-2.090130568,5.812158998
14.29357371,0.3116651475,-5.142175674,-2.227717876,5.612649354
14.2958922,0.536590457,-4.83409977,-2.127817631,5.308865959
14.29819772,0.756131947,-4.530809879,-1.904088616,4.972476963
14.30052912,0.941575706,-4.439284325,-1.564307809,4.800090525
14.30284756,1.133599758,-4.57806778,-1.213759303,4.870006638
14.30515313,1.423131227,-4.82034111,-0.8703892231,5.100839961
14.30748449,1.595414519,-5.085346222,-0.680758059,5.373036871
14.30980298,1.667797327,-5.333003521,-0.5880361795,5.618563965
14.3121085,1.679761529,-5.423930645,-0.5820540786,5.70783754
14.3144399,1.624128342,-5.502295494,-0.5533402562,5.763612931
14.31675834,1.524227977,-5.514259815,-0.5497509837,5.747395791
14.31907683,1.35912323,-5.417350292,-0.499501735,5.60753084
14.32139527,1.17068851,-5.363512039,-0.3008974493,5.498028033
14.32371376,1.024726272,-5.539384365,0.02871387079,5.633441893
14.32603225,0.8416753411,-5.744568825,0.3332005441,5.815454493
14.32835069,0.6191428304,-6.075974941,0.5437689424,6.131597997
14.33066918,0.3158525825,-6.548557281,0.6921239495,6.592601981
14.33298761,-0.009571290575,-7.122834682,0.8793623447,7.17691742
14.3353061,-0.3218346536,-7.639086246,1.090528965,7.723242172
14.33762454,-0.5934200287,-8.096115112,1.287338614,8.219274174
14.33993011,-0.9834501147,-8.19122982,1.523031592,8.389460372
14.34226147,-1.262213945,-8.197212219,1.840080619,8.495491092
14.34457996,-1.464407444,-8.210970879,2.114656925,8.604435243
14.34688548,-1.643869162,-8.325227737,2.219342947,8.771385627
14.34921688,-1.840080619,-8.469993591,2.132603168,8.926067689
14.35153537,-2.049452543,-8.609375954,1.964507341,9.065368119
14.35384089,-2.176870346,-8.771489143,1.745564103,9.204606474
14.3561723,-2.300100803,-8.923434258,1.535593987,9.342172742
14.35849074,-2.378465652,-8.983254433,1.373480201,9.393742967
14.36080923,-2.367697954,-9.002396584,1.264008522,9.393979742
14.36312766,-2.278565407,-8.928219795,1.244866014,9.298099828
14.36544616,-2.155933142,-8.709276199,1.277767301,9.062683317
14.36776459,-1.917249203,-8.545368195,1.317248821,8.856314501
14.37008308,-1.698305845,-8.352147102,1.341177106,8.627940658
14.37240152,-1.43808639,-8.077570915,1.313061476,8.308993609
14.37472001,-1.143769264,-7.825726509,1.242473125,8.005869284
14.37703845,-0.8446664214,-7.536194801,1.076171994,7.659362872
14.37935694,-0.5341976285,-7.139584541,0.879960537,7.213415632
14.38167537,-0.1680957973,-6.833901405,0.694516778,6.87115843
14.38399386,0.1938186288,-6.542575359,0.4049852192,6.557962414
14.38631235,0.5485545993,-6.318846226,0.02512463741,6.342661982
14.38861787,0.8823533654,-6.162714481,-0.4169493318,6.23950671
14.39094928,1.241874933,-6.097510338,-0.8530412912,6.280888879
14.39326772,1.521237016,-6.25543642,-1.312463164,6.570175525
14.39557329,1.852044702,-6.517450809,-1.827518344,7.017624807
14.39790464,2.136790514,-6.847660065,-2.36650157,7.553585357
14.40022313,2.390429735,-7.289135933,-2.866601467,8.189203926
