Time (s),Acceleration x (m/s^2),Acceleration y (m/s^2),Acceleration z (m/s^2),Absolute acceleration (m/s^2)
40.00146131,-4.759922504,-15.68375587,0.0466600433,16.39021775
40.00376683,-4.785645485,-15.39841175,-1.210768223,16.17032612
40.00609814,-4.846064091,-15.18664742,-2.782254457,16.18207455
40.00841657,-4.840082169,-14.95334721,-4.262215137,16.28482318
40.01072204,-4.737190723,-14.6261282,-5.089533806,16.19468914
40.01305334,-4.56730032,-14.30130291,-5.356931686,15.94001927
40.01537178,-4.256233215,-13.99561977,-5.2707901,15.54908751
40.01767725,-3.888935089,-13.69352531,-5.150550842,15.13818436
40.0200086,-3.554538012,-13.40219975,-4.901697159,14.7064725
40.02232699,-3.237488985,-13.04866028,-4.53858614,14.18970169
40.02463251,-2.779861689,-12.67597771,-3.908077478,13.55290048
40.02696381,-2.277967215,-12.35115242,-3.256631613,12.97481214
40.0292822,-1.768295884,-11.98265743,-2.592623234,12.38679316
40.03158772,-1.315454245,-11.61535931,-1.94177556,11.84978835
40.03391902,-0.9990034699,-11.2755785,-1.498505235,11.41850237
40.03623746,-0.6927221417,-10.91246796,-0.9924231768,10.97937724
40.03854293,-0.3930211067,-10.63011456,-0.5246263742,10.65030675
40.04087428,-0.1866401732,-10.40877819,-0.2428714931,10.41328404
40.04319267,0.02452643216,-10.15394306,-0.02333002165,10.15399948
40.04549814,0.209371984,-9.909874916,-0.1190429255,9.912801254
40.04782949,0.394815743,-9.805189133,-0.3708875179,9.820141086
40.05014788,0.5270192027,-9.807581902,-0.8321040869,9.856916821
40.0524534,0.6544370055,-9.767501831,-1.427916884,9.892993806
40.0547847,0.7645068169,-9.631111145,-1.828714728,9.832953276
40.05710314,1.039083242,-9.466006279,-2.108675003,9.75353675
40.0594086,1.365703583,-9.248259544,-2.560918331,9.692974444
40.06173991,1.564307809,-9.09990406,-2.841476917,9.660709286
40.06405834,1.709671736,-8.924032211,-3.079562664,9.594010348
40.06636381,1.761117458,-8.621339798,-3.396013498,9.431963862
40.06869517,1.788634896,-8.29890728,-3.689732552,9.256630226
40.07101355,1.772483349,-7.983054638,-3.939782381,9.077044882
40.07331907,1.768894196,-7.590033531,-4.16710043,8.837551792
40.07565038,1.782652855,-7.109674454,-4.43748951,8.568350786
40.07796876,1.633101463,-6.614359856,-4.695316315,8.274223346
40.08027428,1.674975872,-6.301498413,-4.945366383,8.18358571
40.08260558,2.016551256,-6.159125328,-5.162514687,8.285702243
40.08492402,2.167897224,-5.674578667,-4.783252239,7.731760692
40.08722949,2.14696002,-5.218147755,-4.247858524,7.062776038
40.08956084,2.020140409,-4.816751957,-4.003790379,6.581216003
40.09187923,1.881356835,-4.657031059,-3.863212109,6.336548716
40.0941847,1.698904037,-4.636692047,-3.793222189,6.226854956
40.09651605,1.498505235,-4.66540575,-3.704687595,6.142982902
40.09883444,1.300499082,-4.616951466,-3.525225878,5.952709987
40.10113996,1.0863415,-4.424329281,-2.989233732,5.448884817
40.10347126,0.8398807645,-4.150351048,-2.310868502,4.823994895
40.1057897,0.566500783,-3.824328899,-2.034497499,4.368706301
40.10809517,0.4061816335,-3.511467218,-2.100300074,4.111769199
40.11042647,0.3774677813,-3.296711445,-2.19242382,3.977123393
40.11274491,0.3876372576,-3.128017426,-2.231905222,3.862144039
40.11505038,0.3595215976,-2.932404041,-2.281556368,3.732793686
40.11738173,0.3912265003,-2.709871531,-2.249253273,3.543388516
40.11970012,0.4019941986,-2.541775942,-2.303091764,3.453470132
40.12200564,0.3834498227,-2.383849621,-2.352144718,3.370809629
40.12433694,0.2787638307,-2.175673962,-2.435893536,3.277932851
40.12665538,0.08673982322,-1.901695848,-2.563311338,3.192888334
40.12896084,-0.102293171,-1.607976794,-2.55792737,3.023085459
40.13129215,-0.2871387303,-1.285543919,-2.495115757,2.821466721
40.13361058,-0.4558327198,-1.054636598,-2.52682066,2.775763763
40.13591605,-0.5084748268,-0.8590233326,-2.514258385,2.70517337
40.13824741,-0.6771687865,-0.7992027402,-1.872383714,2.145484411
40.14056579,-0.9918249846,-0.3972085714,-1.448854089,1.800185996
40.14287131,-1.26640141,-0.0,-1.16769743,1.722582311
40.14520262,-1.452443361,0.1543370634,-1.070189953,1.81072311
40.147521,-1.600200176,0.1651047617,-1.166501045,1.987114711
40.14982652,-1.749751568,0.0747757107,-1.249053478,2.151129133
40.15215782,-1.86580348,-0.05742774159,-1.249053478,2.24603098
40.15447626,-1.97826612,-0.1274178028,-1.20179522,2.318207042
40.15679465,-2.210369825,-0.171086818,-1.313061476,2.576652073
40.15911308,-2.360519648,-0.1076770201,-1.166501045,2.635217645
40.16143147,-2.340778828,-0.1633101404,-0.4941178858,2.397929984
40.16374985,-2.380260229,-0.3128615618,-0.4313062727,2.439169165
40.16606829,-2.446661234,-0.4827519655,-0.5449653864,2.552682496
40.16838668,-2.53280282,-0.6197410822,-0.6496513486,2.687232035
40.17070512,-2.580659151,-0.7603194118,-0.7160521746,2.783993171
40.1730235,-2.624328136,-0.8961120844,-0.7962117195,2.885146121
40.17534194,-2.660818815,-0.993021369,-0.7956135273,2.949415042
40.17766032,-2.687737942,-1.041476011,-0.8099704385,2.994104146
40.17997871,-2.723630428,-1.119242787,-0.8620143533,3.068213792
40.18229715,-2.715853691,-1.224527001,-0.8709874153,3.103859972
40.18461553,-2.746960402,-1.321436286,-0.87517488,3.171421822
40.18693397,-2.762513638,-1.441675663,-0.8985049129,3.243026579
40.18925235,-2.778665304,-1.566700578,-0.8356932998,3.297561958
40.19157079,-2.745165825,-1.633101463,-0.6915257573,3.268204961
40.19388918,-2.696112871,-1.742573142,-0.4953143001,3.248218285
40.19620762,-2.603390932,-1.869392633,-0.2596212626,3.215536715
40.198526,-2.548356056,-2.030908108,-0.06699903309,3.259324347
40.20084438,-2.435893536,-2.205584288,0.1740778536,3.290665961
40.20316282,-2.321038008,-2.331805706,0.5048855543,3.328579984
40.20548121,-2.224726915,-2.45383954,0.8542376757,3.420593566
40.20779965,-2.024926186,-2.592025042,1.310668588,3.540730436
40.21011803,-1.825125456,-2.730808735,1.847857237,3.768683543
40.2124235,-1.67437768,-2.841476917,2.431705952,4.09764878
40.21475485,-1.514058471,-2.93778801,3.068196774,4.509634451
40.21707324,-1.325623751,-3.01376009,3.628715515,4.899755555
40.21937876,-1.247856975,-3.087339401,4.273581028,5.417776888
40.22171006,-1.247258782,-3.115455151,4.922634602,5.957688032
40.2240285,-1.260419369,-3.186043262,5.629713535,6.590387177
40.22633397,-1.330409408,-3.277568817,6.282355785,7.209746234
40.22866527,-1.412961721,-3.417548895,6.965506554,7.886341536
40.23098371,-1.448854089,-3.561118364,7.762316704,8.662234284
40.23328918,-1.502094388,-3.791427374,8.645866394,9.55940452
40.23562053,-1.646860242,-4.043272018,9.567103386,10.51616206
40.23793892,-1.771885157,-4.442873478,10.45663452,11.49869155
40.24024444,-1.983649969,-4.974080086,11.27916813,12.48583091
40.24257574,-2.319243431,-5.552545071,12.19083309,13.59507478
40.24489418,-2.769692183,-6.13220644,13.07378483,14.70370703
40.24719965,-3.305684566,-6.815955162,13.83769321,15.77550471
40.24953095,-3.934398651,-7.564908981,14.33779335,16.6817163
40.25184938,-4.632504463,-8.296514511,14.5758791,17.3996696
40.25415485,-5.333601475,-9.019146919,14.51725483,17.9037148
40.25648621,-5.852844238,-9.881759644,14.25703526,18.30759442
40.25880459,-6.345765591,-10.71506023,14.16790295,18.86294597
40.26111006,-6.651448727,-11.53400326,13.86162186,19.22029037
40.26344142,-6.7734828,-12.22911835,13.49851036,19.43299222
40.2657598,-6.742974281,-12.70469189,13.04387474,19.41699169
40.26806532,-6.402595043,-13.12582874,12.40618706,19.16230886
40.27039663,-5.812764645,-13.82273865,11.91027451,19.14969909
40.27271506,-5.133800983,-14.46640778,11.35394382,19.09305913
40.27502053,-4.312464714,-15.12443352,10.99801064,19.19119796
40.27735183,-3.445066452,-15.71964836,10.6857481,19.31737663
40.27967027,-2.651845694,-16.18684769,10.30050373,19.36870416
40.28197574,-1.988435626,-16.49372673,9.988838196,19.38488551
40.28430709,-1.387238979,-16.63849258,9.88534832,19.40319507
40.28662548,-0.9912267923,-16.65763474,9.946365356,19.42651562
40.288931,-0.7818548083,-16.47996712,9.956535339,19.27000802
40.2912623,-0.6753742099,-16.13599968,9.816555023,18.8995071
40.29358074,-0.7256234884,-15.58565044,9.559326172,18.29808039
40.29588621,-0.813559711,-15.01197147,9.129815102,17.58905031
40.29821751,-0.8697910309,-14.32822227,8.551948547,16.70898902
40.30053595,-1.095912814,-13.50329685,7.933403492,15.69964782
40.30284142,-1.241874933,-12.662817,7.320242882,14.67907162
40.30517277,-1.363908887,-11.81216908,6.688537598,13.64273143
40.30749116,-1.394417405,-10.99262714,6.071189404,12.63493539
40.30979663,-1.489532113,-10.15992451,5.654240131,11.72233779
40.31212798,-1.554138303,-9.412766457,5.304289818,10.91563139
40.31444636,-1.645065546,-8.752944946,4.984249592,10.20602909
40.31675188,-1.853241086,-8.143971443,4.548755646,9.510517931
40.31908319,-2.011765718,-7.624729156,4.214358807,8.941169731
40.32140162,-2.173879385,-7.186842918,3.966103554,8.491551102
40.32370709,-2.248056889,-6.838686943,3.777070522,8.129431752
40.32603845,-2.254637241,-6.570092678,3.713062525,7.876315141
40.32835683,-2.289931297,-6.306882381,3.701696634,7.663100462
40.3306623,-2.359323025,-6.029314995,3.698705673,7.456505086
40.33299366,-2.408974171,-5.761917114,3.710669756,7.264428087
40.33531204,-2.590828657,-5.382056236,3.735196114,7.044899749
40.33761751,-2.758924484,-4.867001057,3.882354736,6.809702042
40.33994887,-2.864208698,-4.322035789,3.977469444,6.534825783
40.3422673,-2.868396044,-3.845864296,4.126422882,6.328169866
40.34457277,-2.93778801,-3.251846075,4.302893162,6.141660268
40.34690407,-3.092125177,-2.645265341,4.378267288,5.977281262
40.34922251,-3.343969584,-1.954936147,4.375874519,5.843987143
40.35152798,-3.748356581,-1.210768223,4.285545349,5.820827749
40.35385933,-4.202992916,-0.4097708762,4.165904045,5.931932075
40.35617772,-4.74436903,0.3828516304,3.698107481,6.027570971
40.35848324,-5.240880013,1.100698471,3.172882795,6.224592008
40.36081454,-5.600999832,1.687538147,2.726621389,6.453948274
40.36313293,-5.892923832,2.077568293,2.201396942,6.624876587
40.36543845,-6.031707764,2.227119684,1.67437768,6.644177996
40.36776975,-6.231508255,1.899302959,0.8685946465,6.572176468
40.37008819,-6.400800705,1.077966571,0.2913261652,6.497471241
40.37239366,-6.558726788,-0.007776673418,-0.3080759048,6.565962863
40.37472501,-6.573681831,-1.213759303,-0.471386075,6.701396071
40.3770434,-6.530013084,-2.364706993,-0.3481557071,6.953712853
40.37934892,-6.562315941,-3.839283943,0.1016949639,7.603580313
40.38168022,-6.652645111,-5.161318302,0.8685946465,8.464712059
40.3839986,-6.722635269,-6.644868374,1.880758643,9.637704796
40.38630412,-6.854240417,-8.37428093,3.122633457,11.2632159
40.38863543,-7.067800045,-10.34058285,4.714458942,13.38310779
40.39095386,-7.421937466,-12.50189972,6.448657036,15.90496243
40.39325933,-7.750950813,-14.98385525,8.629714966,18.94901414
40.39559069,-8.152346611,-17.61596107,11.40239811,22.51216388
40.39790907,-8.400602341,-20.38684845,14.52622795,26.40463989
40.40021454,-8.331210136,-23.48734856,17.17747498,30.26764363
40.4025459,-7.960920811,-26.5800724,17.99522209,33.0712039
40.40486428,-7.106683254,-29.74637413,16.93819237,34.96075058
40.4071698,-6.075974941,-32.9048996,14.55673695,36.49038886
40.4095011,-4.562514782,-35.56811142,12.304492,37.91184003
40.41181954,-2.812164783,-37.36990738,10.39143085,38.88958837
40.41412501,-0.8847461939,-38.09194183,8.524430275,39.0441381
40.41645631,1.0863415,-37.3854599,6.71964407,38.00008377
40.41877475,3.023331404,-35.08237076,4.530211449,35.50262084
40.42108022,4.422534466,-31.50450134,2.136192322,31.88503934
40.42341157,5.009374142,-27.12503815,-0.290129751,27.58524423
40.42572996,4.640879631,-22.02892303,-2.986840963,22.70974312
40.42803543,3.899702787,-16.49911118,-5.380859852,17.7871303
40.43036678,3.237488985,-11.89890862,-7.958528042,14.6766321
40.43268517,2.534597397,-8.599804878,-9.552745819,13.10098396
40.43499069,1.66600275,-5.879763603,-10.67258739,12.29842701
40.43732199,0.6873382926,-3.172284603,-11.67398357,12.11683606
40.43964043,-0.1447657645,-0.9541380405,-12.0598259,12.09837746
40.4419459,-0.7704889178,0.8231309652,-11.74935722,11.80332974
40.44427725,-1.316650629,1.859223247,-10.5978117,10.83992125
40.44659564,-1.872383714,2.348555326,-8.989236832,9.477758791
40.4489011,-2.380858421,2.422134638,-6.972086906,7.755334864
40.45123246,-2.895315409,2.264806747,-4.767100811,6.019755067
40.45355084,-3.45583415,2.087737799,-2.647658348,4.828201893
40.45585636,-4.042674065,1.842473388,-0.6711867452,4.493151836
40.45818767,-4.642076015,1.567298889,1.281356573,5.064303527
40.4605061,-5.185246468,1.168893814,3.14895463,6.17810723
40.46281157,-5.489733219,0.613160789,4.881956577,7.372017159
40.46514288,-5.627320766,-0.01674975827,6.235097408,8.399015374
40.46746131,-5.522634506,-0.8685946465,6.672386169,8.704865636
40.46976678,-5.091926575,-1.810768485,5.981458187,8.061292749
40.47209814,-4.30827713,-2.568695068,4.11386013,6.487163583
40.47441652,-3.324826956,-3.18006134,1.194018483,4.753203609
40.47672204,-2.078166485,-3.75673151,-2.00099802,4.736644451
40.47905334,-0.7639086246,-4.380660057,-5.119443893,6.781035666
40.48137173,0.589232564,-5.146363258,-7.844270706,9.400257056
40.48367725,1.692921996,-5.974279881,-10.16112137,11.90824892
40.48600855,2.345564365,-6.893722057,-11.80917835,13.87377992
40.48832699,2.985046148,-7.855636597,-12.8315115,15.338488
40.49063246,3.459423304,-8.657232285,-13.55593872,16.45231762
40.49296381,3.865604877,-9.330213547,-13.82453251,17.12055738
40.4952822,4.237689018,-10.12343407,-13.61994648,17.49127976
40.49758767,4.499104977,-10.97587776,-13.11506081,17.68379649
40.49991902,4.718048096,-11.78584766,-12.2099762,17.61390649
40.50223741,4.870590687,-12.62991619,-11.20558834,17.57278142
40.50454293,4.931607246,-13.45783234,-10.1832552,17.58216959
40.50687423,4.887340069,-14.249259,-9.218947411,17.66115699
40.50919267,4.771886349,-14.94138241,-8.01775074,17.61533805
40.51149814,4.658825874,-15.5419817,-6.750152588,17.57334384
40.51382949,4.505086899,-15.94636822,-5.317450047,17.40280846
40.51614788,4.435096741,-16.53081512,-3.544368505,17.47857202
40.51845334,4.48833704,-17.27079582,-1.816152334,17.93666544
40.5207847,4.587040901,-17.83729553,-0.3613162339,18.42119989
40.52310308,4.637888432,-18.26621056,0.6538388133,18.85714619
40.5254086,4.697110653,-18.54258156,1.314856052,19.17339369
40.52773991,4.799404144,-18.55394745,1.677966833,19.23795256
40.53005834,4.902295589,-18.37328911,1.935195327,19.11426786
40.53236381,4.984249592,-18.1459713,1.728814363,18.89729656
40.53469512,4.986044407,-17.70987892,1.225125194,18.43912639
40.53701355,4.965705395,-17.11107445,0.6382854581,17.82847462
40.53931902,4.890929699,-16.61935043,0.01914258115,17.32409792
40.54165038,4.710271358,-16.16411591,-0.9254241586,16.86184181
40.54396876,4.489533424,-15.56531143,-1.571486235,16.27588398
40.5462872,4.262813568,-14.98505211,-1.901695848,15.69521626
40.54860558,3.969692707,-14.34915924,-2.003988981,15.02241002
40.55092402,3.672384501,-13.74078369,-1.972882271,14.35924123
40.55322949,3.318246841,-13.16830158,-1.856232166,13.70622218
40.55556079,3.004188776,-12.68495083,-1.729412556,13.15005686
40.55787923,2.639881611,-12.30927753,-1.597209096,12.69008925
40.5601847,2.324028969,-11.97547913,-1.344766378,12.2727995
40.56251605,2.042274237,-11.61176968,-1.2352947,11.85453635
40.56483444,1.734796405,-11.35035419,-1.28315115,11.55363734
40.56713991,1.383051515,-11.05603695,-1.202393413,11.20689674
40.56947126,1.036690354,-10.80957603,-1.025324464,10.90747226
40.57178965,0.6520441771,-10.60618591,-0.7728816867,10.65428024
40.57409517,0.2428714931,-10.3226366,-0.6215356588,10.34418289
40.57642647,-0.1896311939,-10.05882835,-0.4313062727,10.06985665
40.57874491,-0.7124629617,-9.806983948,-0.2949153781,9.837251278
40.58105038,-1.188036442,-9.529416084,-0.1579262912,9.604485525
40.58338168,-1.628315806,-9.361918449,-0.005383851007,9.502471174
40.58570012,-2.08235383,-9.180064201,0.1609173268,9.414651911
40.58800558,-2.435893536,-8.88993454,0.4797609448,9.230096641
40.59033694,-2.783450842,-8.586046219,0.5557330847,9.043043046
40.59265532,-3.049054146,-8.2701931,0.5270192027,8.830094809
40.59496084,-3.197409153,-8.033902168,0.4289134443,8.657423178
40.59729215,-3.175275564,-7.7838521,0.4031906128,8.416251606
40.59961058,-3.031108141,-7.61755085,0.3128615618,8.204424408
40.60191605,-2.79421854,-7.554141045,0.3098705411,8.060317855
40.60424735,-2.569891453,-7.543971539,0.3164508045,7.97596325
40.60656579,-2.335394859,-7.562515736,0.2949153781,7.92039699
40.60888418,-2.078166485,-7.551748276,0.2871387303,7.83773734
40.61120262,-1.684547186,-7.596015453,0.07178468257,7.78089346
40.613521,-1.459023595,-7.557132244,-0.1322034448,7.697822767
40.61583944,-1.065404296,-7.558328629,-0.4863412082,7.648525723
40.61815782,-0.5491527915,-7.5421772,-0.7345965505,7.597738993
40.62047621,-0.02093719877,-7.558926582,-1.072582722,7.634673741
40.62278173,0.4097708762,-7.352545738,-1.347757339,7.486273496
40.62511303,0.8596215248,-7.077969551,-1.736590981,7.338416067
40.62743147,1.197009563,-6.643074036,-1.841875196,6.996839913
40.62973694,1.395015597,-6.187241077,-1.876571178,6.614343509
40.63206829,1.55892396,-5.866004944,-1.939382792,6.371927772
40.63438668,1.676172256,-5.595017433,-1.973480463,6.165095186
40.63669215,1.826920033,-5.471786976,-2.19242382,6.171289308
40.6390235,1.974676847,-5.559723377,-2.420340061,6.377140323
40.64134188,2.054836512,-5.812764645,-2.699103832,6.730211542
40.64364741,2.191227436,-6.223133564,-2.894717216,7.204738496
40.64597871,2.207977057,-6.530013084,-2.76371026,7.426595988
40.64829715,2.128415823,-6.68016243,-2.48195529,7.437393768
40.65061553,2.036292076,-6.830910206,-2.414956331,7.525944043
40.65293397,1.962712765,-6.97627449,-2.218744755,7.579147409
40.65525235,1.861017823,-7.198806763,-1.913061738,7.677630582
40.65757074,1.777867198,-7.44048214,-1.52542448,7.800545243
40.65988918,1.665404558,-7.663612843,-1.090528965,7.917940867
40.66220756,1.526620865,-7.804789066,-0.513858676,7.969275649
40.66451308,1.314856052,-8.044071198,-0.08015955985,8.15121791
40.66684439,1.112064362,-8.365307808,0.09272187948,8.43941107
40.66916282,0.8452646136,-8.448458672,0.3200400174,8.4966671
40.67146829,0.6317051649,-8.376075745,0.4983053207,8.414630383
40.67379959,0.5252245665,-8.353941917,0.6687939167,8.397112105
40.67611803,0.4319044948,-8.448458672,0.6640082598,8.485511321
40.67843642,0.3056831062,-8.561519623,0.7734799385,8.601821413
40.68075485,0.1363908947,-8.675776482,0.8350951076,8.716942347
40.68307324,-0.05204389244,-8.804390907,0.9583254457,8.856545347
40.68539168,-0.2039881349,-9.009575844,0.9822536707,9.065257322
40.68771006,-0.3439682424,-9.137591362,0.9816554785,9.196604674
40.69002845,-0.4887340367,-9.098110199,1.022931695,9.168470941
40.69234688,-0.6951149702,-9.040681839,1.001994491,9.122560271
40.69466527,-0.8703892231,-8.900702477,1.013360381,9.000387838
40.69698371,-1.007976532,-8.610571861,1.144367456,8.744572107
40.69930209,-1.109073281,-8.449654579,1.351944804,8.628699833
40.70162053,-1.173081279,-8.388039589,1.417747378,8.587510434
40.70393892,-1.270588875,-8.322834969,1.468594909,8.546388068
40.7062573,-1.280758262,-8.303692818,1.478166223,8.530922079
40.70857574,-1.256830096,-8.284550667,1.387837172,8.493497139
40.71089412,-1.238883972,-8.193024635,1.277169108,8.384011397
40.71321256,-1.189232826,-8.048258781,1.124028444,8.212927862
40.71553095,-1.096511006,-7.907082558,0.9661021233,8.040997716
40.71784938,-0.9834501147,-7.784450054,0.7375875711,7.880918233
40.72016777,-0.8081758618,-7.661220074,0.513858676,7.72084788
40.72248621,-0.6185446382,-7.54157877,0.2380858511,7.570646781
40.72480459,-0.4073780477,-7.460821152,-0.1040877849,7.472659727
40.72712298,-0.1926222295,-7.398607731,-0.3984049559,7.411830151
40.72944142,0.03290131316,-7.369893551,-0.6634100676,7.399765291
40.7317598,0.2404786795,-7.403393269,-0.8524430394,7.456186761
40.73407824,0.4253242314,-7.495516777,-1.00737834,7.574858651
40.73639663,0.6185446382,-7.567899704,-1.119242787,7.675181289
40.73871501,0.77108711,-7.718049526,-1.164706469,7.843430689
40.74103345,0.8871390224,-7.931608677,-1.224527001,8.074459624
40.74335183,0.9732806087,-8.145168304,-1.188634634,8.288781222
40.74567027,1.033699393,-8.494520187,-1.037886858,8.619896564
40.74798866,1.030708313,-8.815756798,-0.7680960894,8.908978569
40.75030709,1.006780148,-9.104091644,-0.4229314029,9.169349045
40.75262548,0.8907282352,-9.369695663,0.02632104978,9.411975691
40.75493095,0.717248559,-9.628120422,0.5180460811,9.66868761
40.7572623,0.5300102234,-9.924231529,1.004985452,9.989057916
40.75958069,0.366700083,-10.21017456,1.487737536,10.3245095
40.76188621,0.1609173268,-10.47876835,1.873580098,10.64616282
40.76421751,-0.06640082598,-10.63190937,2.154138565,10.84814357
40.76653595,-0.2703889608,-10.72343445,2.334796667,10.97799763
40.76884142,-0.4666004181,-10.74257755,2.390429735,11.01520961
40.77117277,-0.5641079545,-10.64327526,2.360519648,10.91648199
40.77349116,-0.6275177598,-10.54457092,2.234896421,10.79706055
40.77580954,-0.6107679605,-10.39561844,2.014158487,10.60654301
40.77812798,-0.5066801906,-10.28794098,1.761715651,10.44998069
40.78044636,-0.3308077157,-10.15454102,1.462014675,10.26458104
40.7827648,-0.0568295382,-9.947562218,1.11445713,10.00995696
40.78508319,0.2410768867,-9.720243454,0.6909275651,9.747750088
40.78740162,0.6287141442,-9.461818695,0.2344966233,9.485582911
40.78970709,1.093519926,-9.197412491,-0.2452643216,9.265437763
40.79203845,1.576870084,-8.946763992,-0.7292127013,9.113882617
40.79435683,2.108675003,-8.719446182,-1.13120687,9.041840575
40.7966623,2.6087749,-8.592626572,-1.419542074,9.091426598
40.79899366,3.071786165,-8.721838951,-1.614557028,9.386859929
40.80131204,3.471985579,-8.520243645,-1.616949916,9.341507515
40.80361756,3.876372576,-8.337192535,-1.552941918,9.324519951
40.80594887,4.205385685,-8.517251968,-1.453639746,9.609470244
40.8082673,4.420739651,-8.813961983,-1.234696507,9.937471527
40.81057277,4.555934429,-9.108279228,-1.040279627,10.23716126
40.81290407,4.548755646,-9.636494637,-0.8171489239,10.68741967
40.81522251,4.42672205,-10.16710377,-0.537786901,11.10203053
40.81752798,4.299304008,-10.66899776,-0.2446661144,11.50527661
40.81985933,4.185046673,-11.1128664,0.03469592705,11.87483133
40.82217772,4.035495281,-11.49033451,0.2225325108,12.18041584
40.82448319,3.889533281,-11.772089,0.3086741269,12.40184778
40.82681454,3.74536562,-11.91984558,0.3326023519,12.49884421
40.82913293,3.601796389,-11.91864967,0.3978067636,12.45734312
40.83143845,3.54018116,-12.14536953,0.494716078,12.66047502
40.83376975,3.451646566,-12.65145111,0.6352944374,13.12922992
40.83608819,3.262015581,-11.96411324,0.7100701332,12.42114933
40.83840657,3.122035265,-11.74158096,0.7597211599,12.1732906
40.84072501,3.016751051,-11.94556904,0.8985049129,12.3533282
40.8430434,2.868396044,-11.98744297,1.016351461,12.36767784
40.84536178,2.687737942,-12.06820107,1.240080357,12.42590888
40.84768022,2.528017044,-12.24407387,1.521237016,12.59453759
40.8499986,2.370688915,-12.52044487,1.850848317,12.8766201
40.85230412,2.183450699,-12.55334568,2.097309113,12.91327419
40.85463543,2.012962103,-12.68674564,2.345564365,13.0578407
40.85695386,1.868794441,-12.86261845,2.52682066,13.24100331
40.85925933,1.715055585,-13.04866028,2.598007202,13.4148646
40.86159069,1.607976794,-13.32981682,2.613560438,13.67846131
40.86390907,1.490728498,-13.59183121,2.595614433,13.91751994
40.86621454,1.449452281,-13.81855106,2.534597397,14.12364859
40.8685459,1.34237349,-14.07159138,2.440080881,14.34453363
40.87086428,1.309472203,-14.24507141,2.340778828,14.49537935
40.8731698,1.222732425,-14.34796238,2.19780755,14.56672431
40.8755011,1.137188911,-14.331213,2.096112728,14.52826738
40.87781954,1.143171072,-14.35514164,2.063211441,14.54763806
40.88013793,1.107278705,-14.27916908,2.085943222,14.47314392
40.88245631,1.084546804,-14.13560009,2.118246317,14.33451775
40.88477475,1.112064362,-13.95673656,2.222932339,14.17633983
40.88709314,1.115055323,-13.74018574,2.344966173,13.98338009
40.88941157,1.177268744,-13.60917854,2.483151674,13.88386634
40.89172996,1.275972724,-13.41894913,2.668595552,13.74109545
40.8940484,1.360319614,-13.09053421,2.938386202,13.48505353
40.89636678,1.494915962,-12.82194042,3.128615618,13.28251353
40.89868517,1.668395638,-12.58744335,3.352942705,13.13276433
40.9010036,1.913061738,-12.50907898,3.583251953,13.15205523
40.90332199,2.185245275,-12.54078388,3.628715515,13.23684757
40.90564043,2.587239504,-12.62752342,3.747758389,13.42363025
40.90795881,2.992822886,-12.79083347,3.728615999,13.65521831
40.91027725,3.415156126,-13.05045509,3.62452817,13.96835259
40.91259564,3.830909014,-13.38664627,3.392424345,14.33131903
40.9149011,4.202992916,-13.65703487,3.134597778,14.62892526
40.91723246,4.596612453,-13.8735857,2.896511793,14.89949686
40.91955084,4.896911621,-13.99621773,2.709273338,15.07361987
40.92185637,5.248656273,-14.21994686,2.44247365,15.3532068
40.92418767,5.583651543,-14.35633755,2.140379906,15.55193938
40.9265061,5.888138294,-14.43111324,1.843669891,15.69478642
40.92881157,6.138188362,-14.45444298,1.67437768,15.79277742
40.93114293,6.357729912,-14.40658665,1.523031592,15.82055921
40.93346131,6.51445961,-14.36471272,1.467398524,15.84097263
40.93576678,6.588637352,-14.28634739,1.45782721,15.7998457
40.93809814,6.565905571,-14.13320732,1.475175142,15.65358767
40.94041652,6.476772785,-14.04826164,1.555334687,15.54738907
40.94273496,6.319444656,-13.92203999,1.691127419,15.38240846
40.94505334,6.064609051,-13.73061466,1.925624013,15.13331721
40.94737178,5.787041664,-13.58285809,2.175673962,14.92372079
40.94969017,5.427519798,-13.51466274,2.233700037,14.73409298
40.95200855,4.999803066,-13.53440285,2.00099802,14.56647123
40.95432699,4.560121536,-13.53141212,1.558325768,14.36392014
40.95664538,4.115056515,-13.50389481,1.096511006,14.15949157
40.95896381,3.676572084,-13.40459251,0.6717849374,13.91587503
40.9612822,3.287140131,-13.36690521,0.3200400174,13.76887326
40.96358772,2.988037348,-13.36451244,0.1549352705,13.6953483
40.96591902,2.746960402,-13.29332638,0.2003988922,13.57565753
40.96823746,2.554338217,-13.09591866,0.4067798555,13.34890254
40.97054293,2.337787628,-13.11924839,0.6765705943,13.343076
40.97287428,2.054836512,-13.11625767,0.8841479421,13.30564865
40.97519267,1.775474429,-13.12223911,1.192223907,13.29537012
40.97749814,1.439880967,-13.19163132,1.647458434,13.37185527
40.97982949,1.001994491,-13.18146133,2.163111687,13.39529649
40.98214788,0.4671986103,-13.14078331,2.668595552,13.41714809
40.9844534,-0.08195417374,-13.22931862,3.065205812,13.58002483
40.9867847,-0.5952146053,-13.37587833,3.214159012,13.76950325
40.98910308,-0.9936196208,-13.58225918,3.083750248,13.96332911
40.9914086,-1.250249863,-13.87657642,2.711666346,14.19421123
40.99373991,-1.377069473,-14.31805229,2.136192322,14.5418795
40.99605834,-1.445863128,-14.72423458,1.308874011,14.85283661
40.99836381,-1.479362607,-15.14477253,0.2907279432,15.21963112
41.00069517,-1.557727575,-15.45165253,-0.9290133715,15.55773592
41.00301355,-1.579262972,-15.72323799,-2.148156643,15.94769141
41.00531907,-1.59840548,-16.07199097,-3.439084291,16.51336109
41.00765038,-1.529013634,-16.49073601,-4.689932346,17.21271978
41.00996881,-1.436890006,-16.92742538,-5.859424591,17.97039898
41.01227428,-1.402792215,-17.38445473,-6.876374245,18.74757624
41.01460558,-1.35912323,-17.90369797,-7.66839838,19.52418886
41.01692402,-1.345962763,-18.43729591,-8.203792572,20.22492791
41.01922949,-1.307677627,-18.95115471,-8.337790489,20.7454823
41.02156084,-1.287936807,-19.37289047,-8.206185341,21.0786419
41.02387923,-1.328614831,-19.76232147,-7.826324463,21.29708717
41.02618475,-1.405783296,-20.05604172,-7.353144169,21.40770341
41.02851605,-1.554736495,-20.216959,-6.742375851,21.36825376
41.03083449,-1.737189293,-20.21456528,-5.95214653,21.14413688
41.03313996,-1.890329838,-20.12543297,-4.995615482,20.82216543
41.03547126,-2.108675003,-19.93639946,-3.915854216,20.4264644
41.0377897,-2.374876499,-19.71087646,-2.961117983,20.07303936
41.04009517,-2.644667149,-19.51825523,-2.058425665,19.80388012
41.04242652,-2.900100946,-19.30170441,-1.223330617,19.55665913
41.04474491,-3.176471949,-18.9996109,-0.4977070987,19.26974055
41.04705043,-3.484548092,-18.81895256,-0.0484546572,19.13889753
41.04938173,-3.843471289,-18.64966011,0.0239282269,19.04160357
41.05170017,-4.24666214,-18.49532318,-0.1196411327,18.97697112
41.05400564,-4.663611412,-18.385252,-0.2243271172,18.96884512
41.05633694,-4.984249592,-18.13879204,-0.3672982752,18.81471309
41.05865538,-5.257629395,-17.84327888,-0.4815555513,18.60798656
41.06096084,-5.399404526,-17.59143448,-0.2841476798,18.40361041
41.0632922,-5.572285652,-17.27259064,0.05563312769,18.14926582
41.06561058,-5.691328526,-17.06860161,0.5629115105,18.00125692
41.0679161,-5.695516109,-16.94238091,1.26341033,17.91868801
41.07024741,-5.519643784,-16.77368736,2.031506538,17.7749845
41.07256584,-5.253442287,-16.53141403,2.528615236,17.5294096
41.07487131,-4.918447018,-16.4273262,2.611765862,17.34558988
41.07720262,-4.560719967,-16.44287872,2.72961235,17.28060216
41.07952105,-4.287938118,-16.45065498,2.579462767,17.1948856
41.08182652,-4.058227062,-16.5026989,2.65364027,17.20029315
41.08415788,-3.811766386,-16.46321869,2.740978241,17.11958219
41.08647626,-3.508476257,-16.1389904,2.603390932,16.71987025
41.0887947,-3.278167009,-15.82792377,1.968096614,16.28321081
41.09111308,-3.133401155,-15.63889027,1.10010016,15.98759869
41.09343147,-3.126821041,-15.57308769,0.05024927482,15.8839729
41.09573699,-3.211766243,-15.44267941,-1.0863415,15.81050054
41.09806829,-3.310470104,-15.14417458,-2.272583246,15.66747812
41.10038673,-3.394218922,-14.71645737,-3.321237803,15.46368197
41.1026922,-3.499503136,-14.23550034,-4.231706619,15.25789412
41.10502355,-3.509672642,-13.7856493,-5.032105923,15.08920206
41.10734194,-3.457030535,-13.4590292,-5.548955917,14.96286867
41.10964741,-3.362514019,-13.21675587,-5.650052547,14.76185049
41.11197876,-3.218346357,-13.12702465,-5.525625706,14.60168034
41.1142972,-3.023331404,-12.99183083,-5.267200947,14.34125541
41.11660267,-2.773281336,-12.8315115,-4.8849473,14.00719411
41.11893397,-2.414358139,-12.5623188,-4.015156269,13.4075523
41.12125241,-1.950748682,-12.37627697,-2.94377017,12.87025388
41.12355788,-1.465005636,-12.27218914,-1.929213285,12.50898604
41.12588923,-0.9864411354,-12.07657623,-0.9912267923,12.15727314
41.12820762,-0.5276173949,-11.76670551,-0.3984049559,11.78526475
41.13051314,-0.2596212626,-11.46221828,-0.2123630047,11.46712472
41.13284444,-0.1262213886,-11.14816093,-0.6616154313,11.16848956
41.13516282,-0.005383851007,-10.84845924,-1.225723386,10.91748573
41.13746834,0.04486542568,-10.69412231,-1.469791293,10.79474647
41.13979965,0.4007977843,-10.78205872,-1.584646821,10.90525261
41.14211808,0.6693921089,-10.81555843,-2.278565407,11.07322222
41.14442355,0.8733802438,-10.69232845,-3.050250769,11.15314801
41.14675491,1.039681435,-10.48714352,-3.642474174,11.15027958
41.14907329,1.135992527,-10.15035343,-4.330410957,11.09380966
41.15137881,1.213759303,-9.870991707,-4.799404144,11.04282432
41.15371012,1.452443361,-9.784252167,-5.117649555,11.13694389
41.15602855,1.769492388,-9.748957634,-5.568098068,11.36560576
41.15833402,2.021935225,-9.623334885,-5.900700569,11.46800172
41.16066532,2.145763636,-9.313464165,-6.28355217,11.43800438
41.16298376,2.191825628,-8.895915985,-6.873383045,11.45359399
41.16528923,2.10209465,-8.399405479,-7.421339512,11.4037316
41.16762058,1.877169371,-7.704290867,-7.776075363,11.10617894
41.16993897,1.651047587,-6.931408882,-7.702496052,10.49279909
41.17224449,1.779661894,-6.245266914,-6.910471916,9.482888663
41.17457579,1.842473388,-5.704489231,-6.31226635,8.705206031
41.17689418,1.793420553,-5.21994257,-6.035296917,8.178567514
41.1791997,1.752144337,-4.946562767,-5.922834396,7.913182689
41.181531,1.694716692,-4.770689964,-5.87258482,7.753631399
41.18384944,1.648654819,-4.646861553,-5.888138294,7.679945155
41.18615491,1.535593987,-4.481756687,-5.990431309,7.63737253
41.18848626,1.350150228,-4.29392004,-6.064609051,7.552492164
41.19080465,1.164706469,-3.9625144,-5.992824078,7.278186722
41.19311017,0.8410771489,-3.488735437,-5.83669281,6.851690936
41.19544147,0.5120640397,-3.025724173,-5.603990555,6.389203901
41.19775991,0.2793620527,-2.583052158,-4.822733879,5.478043782
41.20006538,0.1561316848,-2.204387903,-3.729214191,4.334828903
41.20239673,0.05563312769,-1.802991867,-3.165106058,3.643044205
41.20471512,0.001794616925,-1.400399446,-3.149552822,3.446854335
41.20702058,-0.06041877344,-0.97926265,-3.253042459,3.397777363
41.20935194,-0.02153540403,-0.6664010882,-3.169293642,3.23866892
41.21167032,0.06161518395,-0.4666004181,-2.89830637,2.936271819
41.21397584,0.1196411327,-0.2434697002,-2.565704107,2.580005632
41.21630715,0.1495514214,-0.03110669367,-2.213959217,2.219222537
41.21862558,0.1962114573,0.1142572835,-1.937588096,1.950846301
41.22093105,0.2590230405,0.1980060786,-1.7138592,1.744595283
41.22326241,0.3296113312,0.3008974493,-1.332203984,1.404973438
41.22558079,0.4049852192,0.4139583111,-0.9888339639,1.145935041
41.22788626,0.4067798555,0.524028182,-0.9798609018,1.183301641
41.23021762,0.4630111754,0.6753742099,-0.7280163169,1.095681263
41.232536,0.4767699242,0.8105686903,-0.5288137794,1.078876812
41.23484152,0.4648058116,0.9062815905,-0.5198407173,1.143514379
41.23717282,0.3792623878,0.9469595551,-0.6975077987,1.235754623
41.23949126,0.1190429255,1.104287624,-0.8201399446,1.380670817
41.24180965,-0.01674975827,1.20179522,-0.8554341197,1.475249077
41.24412808,-0.1178465188,1.204187989,-0.7417750359,1.419220462
41.24644647,-0.204586342,1.183250785,-0.6233302951,1.352951828
41.24876485,-0.3852444589,1.145563841,-0.5623133183,1.333013906
41.25108329,-0.5736792088,1.054636598,-0.6017948985,1.342953196
41.25340168,-0.7734799385,0.9008977413,-0.7453642488,1.401947153
41.25572012,-1.013360381,0.813559711,-0.8422735929,1.548613403
41.2580385,-1.268794179,0.7351947427,-0.8626125455,1.701308432
41.26035694,-1.45782721,0.6592226624,-0.8542376757,1.813713511
41.26267532,-1.66600275,0.5575276613,-0.8123632669,1.935545488
41.26499376,-1.823929071,0.4384847581,-0.87517488,2.070004157
41.26731215,-1.972284079,0.2955136001,-0.9469595551,2.207705862
41.26963053,-2.039283037,0.1405783296,-1.032503009,2.290087342
41.27194897,-2.073979139,0.0005982056609,-1.021735311,2.311997594
41.27426741,-2.136192322,-0.1878365725,-0.9355936646,2.339644357
41.27658579,-2.157129526,-0.3613162339,-0.7674978375,2.317932299
41.27890418,-2.143969059,-0.5623133183,-0.5371887088,2.280651508
41.28122262,-2.157129526,-0.7208378315,-0.1495514214,2.279293882
41.283541,-2.190629244,-0.8691928387,0.304486692,2.376355365
41.28585944,-2.138585329,-1.010967612,0.8398807645,2.510179759
41.28817782,-2.073979139,-1.104287624,1.442872047,2.757303098
41.29048329,-1.966900229,-1.220937729,2.126022816,3.143144677
41.29281465,-1.828116536,-1.292722464,2.900699139,3.664313978
41.29513303,-1.661815286,-1.344766378,3.75673151,4.322390345
41.29743855,-1.459621787,-1.472782373,4.661218643,5.101621597
41.29976985,-1.240678549,-1.566700578,5.593821049,5.940089889
41.30208829,-1.022333503,-1.660618901,6.665207386,6.94462457
41.30439376,-0.784845829,-1.764108539,7.692924976,7.931529273
41.30672512,-0.6735795736,-1.908874273,8.563314438,8.799310461
41.3090435,-0.6490531564,-2.012363911,9.408578873,9.643248152
41.31134902,-0.6370890141,-2.140379906,10.13061333,10.37383415
41.31368032,-0.6562315822,-2.317448616,10.79402256,11.0594815
41.31599876,-0.6514459848,-2.54117775,11.4831562,11.77900007
41.31830423,-0.7441678643,-2.821736097,12.09930801,12.44625385
41.32063558,-0.9834501147,-3.128615618,12.61496067,13.03428719
41.32295397,-1.28315115,-3.581457376,12.8440733,13.3956535
41.32525944,-1.79521513,-4.10309267,12.87218952,13.62906563
41.32759079,-2.25104785,-4.723432064,12.90628719,13.92660318
41.32990918,-2.89830637,-5.444868088,12.67179012,14.09329746
41.3322147,-3.608974695,-6.235695839,12.27577877,14.23388019
41.334546,-4.332205296,-7.122236729,11.9030962,14.53196332
41.33686444,-4.861617565,-8.076972961,11.41914749,14.80775969
41.33916991,-5.28155756,-9.029315948,10.96451187,15.15400664
41.34150121,-5.413761139,-10.07019424,10.60857964,15.5967812
41.34381965,-5.255236626,-11.15713406,10.41715336,16.14361287
41.34612512,-5.030909538,-12.30987644,9.960124016,16.61466759
41.34845647,-4.491328239,-13.53201008,9.677771568,17.23213825
41.35077485,-3.877569199,-14.77209091,9.158528328,17.80811203
41.35308038,-3.327818155,-15.94158268,8.647063255,18.43855024
41.35541168,-2.891726255,-16.96511269,8.109873772,19.02490951
41.35773012,-2.593221426,-17.86182213,7.727620602,19.63378739
41.36003558,-2.575275421,-18.47139359,7.522436142,20.10998434
41.36236688,-2.621935368,-19.03011894,7.368697166,20.57468517
41.36468532,-2.772683144,-19.41775513,7.189235687,20.89071793
41.36699079,-3.00837636,-19.64986038,6.959524632,21.06186897
41.36932215,-3.286541939,-19.67139435,6.632306099,21.01791135
41.37164053,-3.670589924,-19.45484543,6.312864304,20.78019482
41.37394605,-4.019941807,-18.97867203,6.001199245,20.30675544
41.37627735,-4.249054909,-18.25484467,5.487938881,19.52975408
41.37859579,-4.531407833,-17.33540154,4.987838745,18.59914887
41.38090126,-4.749752998,-16.28555107,4.420141697,17.53045863
41.38323262,-4.905884743,-15.27697659,3.876971006,16.50710825
41.385551,-4.999204636,-14.30010605,3.36849618,15.51875789
41.38785647,-4.990829945,-13.39262867,2.994617462,14.60269222
41.39018782,-5.026721954,-12.49113274,2.725425005,13.7376953
41.39250621,-5.047659397,-11.63210869,2.547159672,12.93340018
41.39481173,-5.170291424,-10.75693417,2.50169611,12.19434416
41.39714303,-5.32163763,-9.885947227,2.474776745,11.49679519
41.39946147,-5.58843708,-9.119047165,2.404786825,10.96223745
41.40176694,-5.944967747,-8.3641119,2.147558212,10.48394085
41.40409829,-6.198606968,-7.5924263,2.082952023,10.02029713
41.40641668,-6.376274109,-6.823133945,2.108675003,9.573846595
41.40872215,-6.595217228,-6.088537216,2.059023857,9.20905831
41.4110535,-6.882954121,-5.433502197,1.903490424,8.973364996
41.41337189,-7.171289444,-4.825126648,1.901695848,8.850180029
41.41567741,-7.381857872,-4.253840446,1.942971945,8.738542451
41.41800871,-7.615158081,-3.664009571,1.774876237,8.635148197
41.42032715,-7.981858253,-3.034697294,1.485344648,8.667508152
41.42263262,-8.456234932,-2.306680918,1.133001566,8.838120763
41.42496397,-8.96889782,-1.565504193,0.7501499057,9.135352011
41.42728235,-9.433105469,-0.7316055298,0.5970092416,9.480250285
41.42958782,-9.767501831,0.05324030295,0.5359922647,9.782341962
41.43191918,-9.951150894,0.8703892231,0.5760720372,10.00574038
41.43423756,-9.87398243,1.752144337,1.119242787,10.09050262
41.43654308,-9.552147865,2.577069998,1.764706731,10.04982629
41.43887439,-9.184251785,3.215355396,2.044667006,9.943322098
41.44119282,-8.704490662,3.477369547,2.595614433,9.726123119
41.44349829,-8.422736168,3.580260992,2.845066071,9.584109467
41.44582965,-8.412566185,3.326621771,3.000001431,9.530880904
41.44814803,-8.288737297,2.840280533,3.357728481,9.383213737
41.4504535,-7.846663475,1.833500385,3.917648792,8.95990086
41.45278485,-7.18445015,0.5186443329,4.118646145,8.297503357
41.45510324,-6.674180508,-1.034297585,4.454239368,8.090408228
41.45740876,-6.479165554,-2.858226538,5.06560564,8.706859693
41.45974006,-6.607181549,-4.611567497,6.574878216,10.39953972
41.4620585,-6.978667259,-6.509075642,8.560322762,12.81986693
41.46436397,-7.755736351,-8.755936623,11.06441212,16.10090333
41.46669532,-8.629117012,-11.1003046,13.96929836,19.8196801
41.46901371,-9.433105469,-13.66002655,16.13241005,23.14809837
41.47131918,-9.591629982,-16.46620941,17.65843201,25.97990837
41.47365053,-9.050851822,-19.52543259,18.51566124,28.38996561
41.47596892,-7.950153351,-22.52423859,18.9242363,30.47413627
41.47827444,-6.25543642,-25.46860695,18.20220184,31.92335472
41.48060574,-3.775275946,-28.31845856,16.78565025,33.13526608
41.48292418,-0.9463613629,-31.31546783,14.5758791,34.55445524
41.48522965,1.554736495,-33.80220795,11.67757225,35.79625904
41.487561,3.502494097,-35.38147354,8.267202377,36.50291454
41.48987938,5.240880013,-35.82713699,4.651049137,36.50592865
41.49218491,6.711269379,-34.74318695,0.9302098155,35.397676
41.49451621,7.879564762,-32.33002472,-2.215753794,33.35007652
41.49683459,8.73559761,-28.92444038,-5.271388054,30.67118272
41.49914012,9.123234749,-25.23171616,-7.923233986,27.97589229
41.50147142,8.753543854,-21.37807655,-10.06780148,25.19935145
41.50378985,7.876574039,-17.67518234,-11.5764761,22.54921924
41.50609532,6.629314899,-14.52084446,-11.98265743,19.95962973
41.50842668,5.0763731,-11.80499077,-11.62493038,17.32819602
41.51074506,3.32063961,-9.428917885,-10.88016415,14.7752872
41.51305058,1.523629785,-7.490133286,-9.665208817,12.32232956
41.51538189,-0.1806581169,-5.822933674,-8.333004951,10.16750537
41.51770027,-1.65164578,-4.328018188,-6.997809887,8.392199857
41.52000579,-2.821137905,-3.061018467,-5.705087185,7.062341887
41.52233709,-3.742972851,-2.109871387,-4.355535507,6.118177228
41.52465553,-4.472185612,-1.341177106,-2.769692183,5.428664197
41.526961,-5.062614441,-0.8003991842,-1.128215909,5.248197307
41.52929235,-5.557330608,-0.4719842672,0.7154539824,5.623038951
41.53161074,-5.998208046,-0.2243271172,2.570489645,6.529643132
41.53391626,-6.332605362,-0.0747757107,4.517050743,7.778896419
41.53624756,-6.522834301,-0.04785645381,6.165705681,8.975833337
41.538566,-6.405586243,-0.2009970993,7.565506935,9.915080944
41.54087147,-5.958128452,-0.6891329288,8.131409645,10.10415863
41.54320277,-5.20917511,-1.329811215,7.727022648,9.413330027
41.54552121,-4.259224415,-2.006979942,6.290730953,7.857624134
41.54782668,-3.162115097,-2.599801779,4.052843571,5.760510584
41.55015803,-1.940579176,-3.113660574,1.415354609,3.932423983
41.55247642,-1.00737834,-3.490530014,-1.354935765,3.877429796
41.55478194,-0.1477568001,-3.868596077,-3.79621315,5.422093872
41.55711324,0.7417750359,-4.245465755,-5.874977589,7.286259078
41.55943168,1.715055585,-5.022534847,-7.601399422,9.270843819
41.56173715,2.621935368,-6.084349632,-8.997611046,11.17366816
41.5640685,3.376272678,-7.264609337,-9.993623734,12.80805533
41.56638688,4.063013077,-8.51844883,-10.75633621,14.30981532
41.56869235,4.575675011,-9.524630547,-11.30788136,15.47654902
41.57102371,5.066203594,-10.31605625,-11.6267252,16.34833858
41.57334209,5.446662426,-10.96092224,-11.72363472,16.94849725
41.57564762,5.703292847,-11.71286678,-11.55852985,17.41603887
41.57797892,5.876772404,-12.41456223,-11.2695961,17.76686819
41.58029735,6.02811861,-13.09173107,-10.65822983,17.92566594
41.58260282,6.089733601,-13.77488136,-9.626923561,17.874839
41.58493418,6.076572895,-14.35454273,-8.449056625,17.73031847
41.58725256,5.860620975,-14.78465271,-7.403393269,17.54260716
41.58955808,5.730810165,-15.43011665,-6.340980053,17.6391245
41.59188938,5.565107346,-16.20419502,-5.153541565,17.89148811
41.59420782,5.403591633,-16.95554161,-3.947559118,18.22834103
41.59651329,5.199603558,-17.5441761,-2.781058073,18.50860006
41.59884459,4.942375183,-17.92822456,-2.164906263,18.72258336
41.60116303,4.698905468,-18.04846382,-1.780260086,18.73488951
41.6034685,4.554139614,-17.95514297,-1.238883972,18.5650796
41.60579985,4.428516388,-17.65484428,-0.8315058947,18.22077622
41.60811824,4.291527271,-17.19602013,-0.6640082598,17.73587386
41.61042376,4.153940201,-16.68096542,-0.6358926296,17.20215644
41.61275506,4.021736622,-16.19881058,-0.6831508875,16.70456598
41.6150735,3.8668015,-15.64128304,-0.994217813,16.14281134
41.61737897,3.803989887,-15.04247952,-1.084546804,15.55386675
41.61971027,3.66101861,-14.44128323,-1.205384374,14.94679464
41.62202871,3.54018116,-13.93998623,-1.453041553,14.45570574
41.62433418,3.396013498,-13.59841156,-1.838286042,14.13608858
41.62666553,3.221337557,-13.23829174,-2.076371908,13.7818977
41.62898392,3.065804005,-12.91526031,-2.123031855,13.44285563
41.63128944,2.931805849,-12.72622681,-2.201396942,13.24380922
41.63362074,2.841476917,-12.56471157,-2.127219439,13.05645551
41.63593918,2.810370207,-12.49352551,-2.075773716,12.97286386
41.63824465,2.647658348,-12.35892868,-2.431705952,12.87114629
41.640576,2.525026083,-12.21296692,-2.481357098,12.71571668
41.64289439,2.382055044,-12.09093285,-2.282752752,12.53298861
41.64519991,2.213959217,-11.97906876,-1.87956214,12.32608849
41.64753121,2.013560295,-11.8971138,-1.529013634,12.16279674
41.64984959,1.861616015,-11.83250809,-1.225723386,12.04060877
41.65216803,1.613958836,-11.63091278,-0.7902296782,11.76891916
41.65448642,1.345364571,-11.52084255,-0.3308077157,11.60384646
41.65680485,1.029511929,-11.28754234,0.2895315289,11.33809223
41.65911032,0.6113662124,-11.00339508,0.8847461939,11.05582416
41.66144168,0.2039881349,-10.55533886,1.465005636,10.65847227
41.66376006,-0.2937189937,-10.26341438,1.996810555,10.45998079
41.66606558,-0.8039883971,-9.918848038,2.581855536,10.28085219
41.66839688,-1.321436286,-9.570692062,2.984447956,10.11193701
41.67071532,-1.832902193,-9.226723671,3.125624657,9.91269336
41.67302079,-2.379662037,-8.994022369,3.400799274,9.90558759
41.67535209,-2.861815929,-8.779864311,3.270390272,9.796502451
41.67767053,-3.169293642,-8.730213165,2.814557552,9.704781209
41.679976,-3.316452265,-8.566903114,2.17806673,9.441115362
41.68230735,-3.271586657,-8.461619377,1.619342685,9.215451832
41.68462574,-3.010170937,-8.40299511,0.9194421172,8.973117055
41.68693126,-2.544168711,-8.402397156,0.5186443329,8.794433713
41.68926256,-2.044068813,-8.29531765,0.2500499785,8.54710695
41.691581,-1.666600943,-8.018348694,-0.1830509305,8.191763065
41.69388647,-1.25503552,-7.563114166,-0.6209374666,7.691643087
41.69621782,-0.8835497499,-6.867999077,-1.004387259,6.997061186
41.69853621,-0.5760720372,-6.17946434,-1.164108157,6.314490187
41.70084168,-0.3696911037,-5.632106304,-1.247856975,5.780522465
41.70317303,-0.1423729509,-5.199603558,-1.301695466,5.361954709
41.70549147,-0.06340979785,-4.889732838,-1.431506157,5.095362392
41.70779694,-0.08554340899,-4.588237286,-1.462612867,4.816479572
41.71012824,-0.06819544733,-4.511068821,-1.520040631,4.76076843
41.71244668,-0.02632104978,-4.644468784,-1.552343726,4.8970965
41.71475215,0.01196411345,-4.648656368,-1.546959877,4.899309546
41.7170835,-0.0765703246,-4.59242487,-1.357926846,4.789592312
41.71940188,-0.1722832322,-4.670789719,-1.047458172,4.789898405
41.72172032,-0.2129612118,-4.82034111,-0.879960537,4.904627554
41.72403871,-0.1770688742,-4.785645485,-0.6939185858,4.838933674
41.72635715,-0.1459621787,-4.976472855,-0.3822534084,4.993265935
41.72867553,-0.08015955985,-5.373681545,-0.1262213886,5.375761411
41.73099392,-0.0580259487,-5.61715126,0.2291127741,5.622121304
41.73331235,-0.0568295382,-5.727221012,0.4923232496,5.748623514
41.73563074,-0.06819544733,-5.875576019,0.5790630579,5.904435469
41.73794918,-0.1746760458,-6.071189404,0.2267199457,6.077931756
41.74026756,-0.3068794906,-6.195017815,-0.1028913707,6.203467367
41.742586,-0.4061816335,-6.370890141,-0.2458625287,6.388557982
41.74490439,-0.4277170599,-6.683153629,-0.2105683982,6.700136071
41.74722282,-0.4671986103,-6.996015072,-0.2225325108,7.015128092
41.74954121,-0.5024927258,-7.289734364,-0.1639083475,7.308870773
41.75185965,-0.589232564,-7.661818027,-0.08554340899,7.684918228
41.75417803,-0.7028916478,-7.918448448,0.09750752151,7.950181772
41.7564835,-0.8075776696,-8.151150703,0.2602194548,8.195190885
41.75881485,-0.9272187948,-8.369495392,0.3990031779,8.430147765
41.76113324,-1.066002488,-8.574680328,0.5659025311,8.659200293
41.76343876,-1.211366415,-8.740981102,0.8093722463,8.861559832
41.76577006,-1.316650629,-8.810373306,1.057029366,8.970705533
41.7680885,-1.360917926,-8.820542336,1.275972724,9.015662543
41.77040688,-1.347159147,-9.01675415,1.368096352,9.218914296
41.77272532,-1.324427366,-9.217152596,1.608574986,9.449736679
41.77504371,-1.268794179,-9.360123634,1.676770449,9.593399411
41.77736215,-1.19880414,-9.497113228,1.721037745,9.725958151
41.77968053,-1.151545882,-9.505488396,1.745564103,9.732798241
41.78199897,-1.115055323,-9.457033157,1.850250125,9.700631425
41.78431735,-0.9978070259,-9.406186104,1.889133453,9.64576493
41.78663574,-0.8817551732,-9.297312737,1.898704767,9.530088987
41.78895418,-0.760917604,-9.155537605,1.837089539,9.368978728
41.79127256,-0.6388836503,-9.037691116,1.708475351,9.219919797
41.793591,-0.4863412082,-8.804390907,1.555334687,8.953931707
41.79590938,-0.2955136001,-8.535796165,1.345364571,8.646221735
41.79822782,-0.09571290761,-8.23370266,0.9870393276,8.29320608
41.80054621,0.1920240223,-7.968697548,0.5347958803,7.988931122
41.80286465,0.4953143001,-7.765307903,0.05443671346,7.781279229
41.80517012,0.8404789567,-7.676773071,-0.4061816335,7.733319674
41.80750147,1.118046403,-7.594220638,-0.8291130662,7.720728161
41.80981985,1.356132269,-7.483552933,-1.141974568,7.690693411
41.81212532,1.53080833,-7.331010342,-1.414158225,7.62147822
41.81445668,1.711466432,-7.268796921,-1.551147223,7.626964254
41.81677506,1.858624935,-7.207779884,-1.616949916,7.617158561
41.81908058,1.974676847,-7.262814999,-1.649253011,7.705054565
41.82141188,2.053640127,-7.362715244,-1.624128342,7.81439738
41.82373032,2.132603168,-7.494918823,-1.507478237,7.936894549
41.82604871,2.139183521,-7.792226791,-1.39561379,8.200161118
41.82836715,2.060220242,-8.115258217,-1.164706469,8.453310862
41.83068553,1.898106575,-8.569893837,-0.8721838593,8.820804591
41.83300397,1.704886079,-8.967700958,-0.5132604837,9.142742113
41.83532235,1.449452281,-9.347561836,-0.1459621787,9.460397939
41.83764074,1.19880414,-9.717850685,0.1794617027,9.793158827
41.83994626,0.9236295223,-10.02173901,0.4654040039,10.07496626
41.84227756,0.604187727,-10.28315544,0.6598208547,10.3220004
41.844596,0.3553341627,-10.48056316,0.7639086246,10.51437221
41.84690147,0.2183450609,-10.53200912,0.8207381964,10.56619619
41.84923282,0.1178465188,-10.54397297,0.8626125455,10.57985606
41.85155121,0.1076770201,-10.53440189,0.9002995491,10.57335126
41.85386965,0.1878365725,-10.48475075,0.8913264275,10.52424551
41.85618803,0.2943171859,-10.37647533,0.9056833982,10.42008279
41.85850647,0.513858676,-10.18863869,0.8871390224,10.2400891
41.86082485,0.8620143533,-9.993623734,0.912861824,10.07218451
41.86314324,1.235892892,-9.711270332,0.9332008362,9.833975112
41.86546168,1.63788712,-9.388837814,0.8865407705,9.571776442
41.86778006,2.069193363,-9.06700325,0.8404789567,9.338014456
41.8700985,2.523231506,-8.715856552,0.7704889178,9.10639917
41.87241688,2.998805046,-8.455039024,0.6867401004,8.997340083
41.87472241,3.443271875,-8.276175499,0.6035895348,8.984181789
41.87705371,3.951746702,-8.221140862,0.5934200287,9.140875581
41.87937215,4.378267288,-8.292924881,0.6167500615,9.397989581
41.88167762,4.78385067,-8.485547066,0.6077769399,9.760078332
41.88400897,5.154139996,-8.788837433,0.6227321029,10.20767446
41.88632735,5.438885689,-9.247661591,0.5808576941,10.74421324
41.88863282,5.671587944,-9.760921478,0.5629115105,11.30306893
41.89096418,5.808577061,-10.23828983,0.5006981492,11.7818863
41.89328256,5.849255085,-10.67019463,0.37986058,12.17419946
41.89558808,5.804987907,-11.12243748,0.2159522474,12.54803313
41.89791938,5.726622581,-11.54716396,0.08973085135,12.88950167
41.90023782,5.587839127,-12.03589821,0.001794616925,13.26976997
41.90254329,5.336592674,-12.26261806,-0.05144568533,13.37361843
41.90487465,5.099104881,-12.32124233,-0.06759724021,13.33485855
41.90719303,4.804787636,-12.55813122,-0.08315058798,13.44617261
41.90949855,4.445864677,-12.71067429,0.001196411322,13.46576975
41.91182985,4.161118507,-12.8129673,0.185443759,13.47298882
41.91414829,3.823730469,-12.95534039,0.4408775866,13.51503356
41.91645376,3.424129248,-13.04626751,0.6622136831,13.50438018
41.91878512,3.004188776,-13.07498074,0.8063812256,13.4398855
41.9211035,2.587837696,-13.10369492,0.9601200819,13.39124919
41.92340897,2.207378864,-13.17428303,1.110269666,13.40399021
41.92574032,1.921436548,-13.23350525,1.289731383,13.43432122
41.92805871,1.651047587,-13.35972691,1.426122308,13.53669406
41.93036423,1.418943882,-13.45603848,1.567897081,13.62118477
41.93269553,1.220339537,-13.57089329,1.73898387,13.73617261
41.93501397,0.9960124493,-13.57627773,1.808375716,13.73235525
41.93731944,0.8578268886,-13.62712479,1.92203474,13.7887133
41.93965079,0.7794619799,-13.7294178,1.969891191,13.89190215
41.94196918,0.7298108935,-13.69232941,2.093121529,13.87060439
41.94427465,0.70348984,-13.64447308,2.173281193,13.83436643
41.946606,0.7112665176,-13.58704472,2.240280151,13.78885562
41.94892444,0.6466603279,-13.50688553,2.248655081,13.70804785
41.95124282,0.590429008,-13.36870003,2.25703001,13.57073805
41.95356121,0.5120640397,-13.27956772,2.222334146,13.47397111
41.95587965,0.5258227587,-13.23111248,2.188236237,13.42114767
41.95819803,0.5270192027,-13.1204443,2.245065928,13.32156631
41.96051647,0.546759963,-12.95713425,2.229512453,13.15891333
41.96283485,0.5485545993,-12.82194042,2.185843468,13.01848609
41.96515329,0.5108676553,-12.68375492,2.241476536,12.89041666
41.96747168,0.5443671346,-12.54317665,2.379063845,12.77840212
41.96979012,0.6059823632,-12.40259838,2.545365095,12.67558853
41.9721085,0.7339983582,-12.38943768,2.679961443,12.69720886
41.97442694,0.8656035662,-12.51625729,2.772683144,12.8488808
41.97674532,1.07497561,-12.70768261,2.857030153,13.06917714
41.97906371,1.320239902,-12.97627735,2.866003275,13.35442931
41.98138215,1.604985833,-13.28136253,2.813361168,13.67060976
41.98370053,1.914856315,-13.57209015,2.646461725,13.9596585
41.98601897,2.132603168,-13.81256866,2.416750908,14.1836432
41.98833735,2.371885538,-14.15294743,2.221137524,14.52119877
41.99065579,2.658426046,-14.4879427,2.020140409,14.86770594
41.99296126,2.9491539,-14.79302788,1.853839397,15.1976282
41.99529262,3.280559778,-15.0161581,1.748555183,15.46947064
41.997611,3.594617844,-15.1531477,1.704287887,15.66664482
41.99991652,3.926023722,-15.24168205,1.688734531,15.82954069
42.00224782,4.28614378,-15.30030632,1.645065546,15.97424936
42.00456621,4.575077057,-15.19322777,1.536790371,15.94136835
42.00687173,4.785047054,-14.99581909,1.403988719,15.80324175
42.00920303,4.980660439,-14.80379581,1.371087432,15.67926113
42.01152147,5.108078003,-14.56092358,1.351346612,15.48996753
42.01382694,5.102096081,-14.33540058,1.373480201,15.27813935
42.01615829,5.056632519,-14.07219028,1.447059512,15.02298416
42.01847668,4.905286312,-13.77787304,1.500898004,14.7018473
42.02079512,4.697110653,-13.47996616,1.520638824,14.35564971
42.0231135,4.485944271,-13.22632694,1.441077471,14.04051725
42.02543194,4.331008911,-13.08096313,1.328614831,13.8432096
42.02775032,4.200600147,-13.03609753,1.341775298,13.76173104
42.03006876,4.092923164,-13.11087322,1.326820135,13.79882127
42.03238715,3.935595036,-13.27298737,1.183848977,13.89469684
42.03470558,3.720839262,-13.48056412,0.7489534616,14.0046844
42.03702397,3.504886866,-13.64507103,0.2237289101,14.0897924
42.03934235,3.247658491,-13.71386433,-0.1507478207,14.09397337
42.04164788,2.974876642,-13.6103754,-0.3726821244,13.93668187
42.04397918,2.727219582,-13.46740437,-0.4001995921,13.74659473
42.04629762,2.488535643,-13.30469227,-0.2985046208,13.53871305
42.048616,2.261815548,-13.10309696,-0.0197407864,13.29689247
42.05093444,2.030908108,-12.76152134,0.380458802,12.927713
42.05325282,1.763510346,-12.37328625,0.8715856671,12.52868081
42.05555834,1.456032634,-12.25484085,1.368694544,12.41670166
42.05788965,1.106680512,-12.3104744,1.704886079,12.47714543
42.06020808,0.7573283911,-12.35175037,2.011765718,12.53740344
42.06251355,0.3876372576,-12.3984108,2.410170555,12.6364463
42.06484491,-0.04127619043,-12.48455238,2.683550596,12.76977665
42.06716329,-0.3990031779,-12.57906818,3.000599623,12.93815126
42.06946876,-0.718445003,-12.84527016,3.190230846,13.2549878
42.07180012,-0.9864411354,-13.15932846,3.137588739,13.56412381
42.0741185,-1.176072359,-13.46680546,2.876172781,13.82064996
42.07642402,-1.247856975,-13.87238884,2.429911375,14.13876899
42.07875532,-1.253839016,-14.31625748,1.636690736,14.46395855
42.08107376,-1.258624673,-14.74517155,0.5952146053,14.81075624
42.08337923,-1.17068851,-15.03350639,-0.5659025311,15.08963458
42.08571058,-1.073779106,-15.2596283,-1.784447432,15.40108795
42.08802897,-0.8919246197,-15.48335743,-2.964707375,15.78985043
42.09033449,-0.6334998012,-15.75733566,-4.019343853,16.27421501
42.09266579,-0.3128615618,-16.0636158,-4.877768993,16.79077917
42.09498423,-0.01794617064,-16.36092567,-5.63090992,17.30281357
42.0972897,0.3146561682,-16.67558098,-6.265007973,17.81640633
42.09962105,0.6029912829,-17.02014732,-6.603592396,18.26626524
42.10193944,0.8464609981,-17.32164383,-6.789634228,18.6240429
42.10424491,0.985244751,-17.69372749,-6.857829571,19.00180324
42.10657626,1.022931695,-18.06700706,-6.7734828,19.32209106
42.10889465,1.012163997,-18.43191338,-6.617949009,19.61012891
42.11120017,0.8937192559,-18.69392776,-6.460022926,19.79882738
42.11353147,0.6514459848,-18.81954956,-6.20817852,19.82779131
42.11584991,0.3565305769,-18.7872467,-5.820540905,19.67146281
42.11815538,0.04307080805,-18.62094498,-5.294718266,19.359119
42.12048673,-0.2961117923,-18.42533302,-4.607379913,18.99496062
42.12280512,-0.6059823632,-18.17647934,-3.757927895,18.57077376
42.12511064,-0.9780662656,-17.91027832,-2.775674343,18.15045595
42.12744194,-1.282552958,-17.66561127,-1.816750646,17.80503711
42.12976038,-1.585245013,-17.51306915,-0.9332008362,17.60941387
42.13206584,-1.894517303,-17.38864136,-0.1932204217,17.49260924
42.1343972,-2.235494614,-17.29472351,0.4474578202,17.44434338
42.13671558,-2.587837696,-17.25404549,0.8590233326,17.4681685
42.1390211,-2.982653379,-17.19123459,1.050449133,17.47965135
42.14135241,-3.277568817,-17.08714676,1.223928809,17.44164681
42.14367084,-3.632902861,-16.91246986,1.520040631,17.36491128
42.14597631,-3.909274101,-16.70249939,1.95015049,17.26438521
42.14830767,-4.217350006,-16.52662849,2.356332064,17.21824007
42.15062605,-4.405186653,-16.4147625,2.845066071,17.23207759
42.15293152,-4.490131855,-16.1886425,3.806382656,17.22561985
42.15526288,-4.43748951,-15.98525143,4.315455437,17.14184156
42.15758126,-4.422534466,-15.85962868,4.453640938,17.05642256
42.15988678,-4.406383038,-15.74417496,4.385445595,16.92711994
42.16221808,-4.309473515,-15.75673676,4.28614378,16.88837895
42.16453652,-4.266402721,-15.64606953,3.88056016,16.67514411
42.16685491,-4.328018188,-15.41336727,3.067598581,16.30072983
42.16917334,-4.292723656,-15.19382572,2.073979139,15.92423329
42.17149173,-4.269991875,-14.97368622,0.932602644,15.598521
42.1737972,-4.273581028,-14.81815243,-0.3996013701,15.42727511
42.17612855,-4.24367094,-14.53161144,-1.512862086,15.21398126
42.17844699,-4.259224415,-14.1685009,-2.502892494,15.00506185
42.18075246,-4.307080746,-13.58584881,-3.862613916,14.76638137
42.18308376,-4.331607342,-13.19043446,-5.067399979,14.77934118
42.1854022,-4.311866283,-12.90329647,-6.075974941,14.89982289
42.18770767,-4.214358807,-12.662817,-7.140780926,15.13600036
42.19003902,-4.053441525,-12.45882893,-7.70788002,15.20079672
42.19235741,-3.676572084,-12.27218914,-7.672585964,14.93292952
42.19466293,-3.152543783,-12.05264759,-7.140780926,14.35951247
42.19699423,-2.548356056,-11.86361504,-6.296712875,13.67070127
42.19931267,-1.984846354,-11.80080318,-5.419145107,13.13642663
42.20161814,-1.444068432,-11.70509052,-4.709673405,12.69942917
42.20394949,-0.9499505758,-11.48076344,-3.986442566,12.19024444
42.20626788,-0.575473845,-11.22592735,-3.335594654,11.72513568
42.20857334,-0.2225325108,-10.94836044,-2.967698336,11.34563134
42.2109047,0.03469592705,-10.6103735,-2.843869686,10.98493625
42.21322314,0.2847459018,-10.32084274,-2.848655462,10.71054215
42.2155286,0.471386075,-10.04267693,-2.715255499,10.41394148
42.21785996,0.5694918036,-9.727422714,-2.244467735,9.99923542
42.22017834,0.4037888348,-9.490532875,-1.980658889,9.703415343
42.22248381,0.3750749528,-9.289535522,-2.00099802,9.510002341
42.22481517,0.4444667995,-9.245866776,-2.497508526,9.58755193
42.22713355,0.6323033571,-9.327820778,-2.495115757,9.676448245
42.22943907,1.009172916,-9.386445045,-2.801397085,9.847416219
42.23177043,1.234696507,-9.397212982,-3.61017108,10.14225924
42.23408881,1.475175142,-9.393025398,-4.51406002,10.52529362
42.23639428,1.730010748,-9.278169632,-5.161916733,10.75745106
42.23872564,2.029711723,-8.983254433,-5.313860893,10.63276575
42.24104402,2.197209358,-8.619544983,-5.443671703,10.428703
42.24334954,2.276172638,-8.315058708,-5.531009674,10.24271601
42.24568084,2.29052949,-8.127222061,-5.599205017,10.13160207
42.24799928,2.288734913,-7.868198872,-5.596213818,9.922926488
42.25030475,2.234896421,-7.572087288,-5.780461311,9.784937449
42.2526361,2.127219439,-7.176673412,-6.13220644,9.67644871
42.25495449,1.993819475,-6.637091637,-6.156732559,9.269932972
42.25726001,1.88255322,-5.971288681,-5.666203976,8.44429764
42.25959131,1.738385677,-5.338985443,-4.656432629,7.294457838
42.2619097,1.689332843,-4.829314232,-3.763311863,6.351270549
42.26421522,1.735992789,-4.534399033,-3.406781197,5.931323939
42.26654657,1.601396561,-4.220340729,-3.133999348,5.495243281
42.26886496,1.540977836,-4.121038914,-3.054438114,5.356040199
42.27117043,1.569691658,-4.134199142,-2.973082066,5.328672576
42.27350178,1.593619823,-4.138985157,-2.967698336,5.336483457
42.27582017,1.594218135,-4.158127785,-2.982055187,5.359497297
42.27812569,1.616351724,-4.061816216,-3.082553864,5.349119758
42.28045699,1.612164259,-3.878765583,-3.19382,5.276777638
42.28277543,1.619940877,-3.634099483,-3.162115097,5.08230847
42.2850809,1.621137381,-3.340978622,-3.035295486,4.796169644
42.28741225,1.612164259,-3.043072224,-2.928216696,4.520377769
42.28973064,1.581655741,-2.659024239,-2.740380049,4.133004669
42.29203616,1.472782373,-2.195414782,-2.511267424,3.646285515
42.29436746,1.37886405,-1.77009058,-2.309073925,3.219675313
42.2966859,1.262812138,-1.40697968,-2.132004976,2.849514263
42.29899136,1.127019525,-1.15094769,-2.08235383,2.632688943
42.30132272,0.9732806087,-0.9385846853,-1.985444546,2.402125392
42.3036411,0.7908278704,-0.769890666,-1.802393675,2.113471863
42.30594663,0.5976074338,-0.5766702294,-1.581057549,1.785896461
42.30827793,0.456430912,-0.3870390654,-1.202393413,1.343085379
42.31059636,0.314057976,-0.1830509305,-0.784845829,0.8649410562
42.31290183,0.1537388563,-0.09092725813,-0.7010970116,0.7234918257
42.31523314,0.009571290575,-0.0747757107,-0.6263213158,0.6308418241
42.31755157,-0.2069791555,-0.04127619043,-0.5042873621,0.5466716
42.31985704,-0.4348955154,0.2416750938,-0.3655036688,0.6173604233
42.3221884,-0.499501735,0.4229314029,-0.0765703246,0.6589658333
42.32450678,-0.5928218365,0.5072783828,0.04187439755,0.781359426
42.32682522,-0.7447660565,0.4749752879,0.04067798331,0.8842695864
42.3291436,-0.8458628058,0.3810569942,-0.09870393574,0.9329688023
42.33146204,-0.9882357717,0.233300209,-0.3230310678,1.065545869
42.33378043,-1.168295622,0.06580262631,-0.4899304509,1.26857262
42.33609887,-1.405783296,-0.09391828626,-0.6909275651,1.569212611
42.33841725,-1.672582984,-0.2536391914,-0.8733802438,1.903853915
42.34072277,-1.962114573,-0.4384847581,-1.065404296,2.27535685
42.34305407,-2.23728919,-0.6095715761,-1.296311617,2.656588834
42.34537251,-2.733799934,-0.8961120844,-2.089532375,3.555674971
42.34767798,-2.809173822,-0.9684949517,-1.369890928,3.272008739
42.35000933,-2.902493954,-1.143171072,-1.054038405,3.292766043
42.35232772,-2.961117983,-1.479960799,-0.9762716293,3.451320033
42.35463319,-3.012563705,-1.847259045,-1.126421213,3.709006714
42.35696454,-3.035893679,-2.188834429,-1.229910851,3.939584659
42.35928298,-3.132802963,-2.459821701,-1.390828133,4.218954859
42.36158845,-3.190829039,-2.758924484,-1.455434322,4.462212829
42.36391975,-3.203391314,-3.03350091,-1.434497118,4.639140616
42.36623819,-3.202194929,-3.282952785,-1.347159147,4.779818943
42.36854366,-3.192025423,-3.517449379,-1.231107235,4.90684231
42.37087501,-3.122035265,-3.736392498,-0.927816987,4.956669997
42.3731934,-2.995813847,-3.934996843,-0.5581258535,4.977007658
42.37549892,-2.888735056,-4.133002758,-0.2123630047,5.046939673
42.37783022,-2.76909399,-4.278367043,0.2243271172,5.101237961
42.38014866,-2.596810818,-4.427320004,0.7226324677,5.183318099
42.38245412,-2.378465652,-4.564907551,1.331605792,5.316827418
42.38478548,-2.104487419,-4.691727161,2.035693884,5.530390641
42.38710386,-1.792822361,-4.826921463,2.845664263,5.883127393
42.38940938,-1.49431777,-4.966901779,3.636492252,6.334601391
42.39174069,-1.164108157,-5.106881618,4.54217577,6.933018707
42.39405913,-0.9104689956,-5.214558601,5.384449005,7.550686478
42.39636459,-0.7148557901,-5.285745144,6.22193718,8.19528052
42.39869595,-0.5198407173,-5.375475883,7.182655334,8.986462763
42.40101433,-0.2925225794,-5.565107346,8.078168869,9.813908574
42.40331985,-0.1561316848,-5.7571311,8.953942299,10.64622085
42.40565116,-0.209371984,-5.963512421,9.741779327,11.42407902
42.40796959,-0.4941178858,-6.21894598,10.31844902,12.0577706
42.41027506,-0.8919246197,-6.448058605,10.79342461,12.60440415
42.41260636,-1.51106751,-6.639484406,11.29053402,13.1849246
42.4149248,-2.16131711,-6.913462639,11.74457169,13.79863114
42.41723027,-2.827120066,-7.360322475,12.31466198,14.62251191
42.41956162,-3.622733593,-7.925028801,12.95055389,15.60920005
42.42188001,-4.573880672,-8.528019905,13.29930782,16.44746474
42.42418553,-5.603990555,-9.17109108,13.62473202,17.35358592
42.42651683,-6.577869415,-9.750752449,13.82991695,18.15522355
42.42883527,-7.306483746,-10.32502937,13.68455315,18.63485796
42.43114074,-7.753942013,-10.86461163,13.58465195,19.04484631
42.43347209,-7.633702278,-11.44247818,13.54218006,19.30270339
42.43579048,-7.12762022,-12.02692509,13.05464172,19.12782182
42.438096,-6.357131481,-12.69691563,12.44626713,18.88211727
42.4404273,-5.305486202,-13.28854084,11.70150089,18.48400997
42.44274574,-4.101297855,-13.67438316,10.87478065,17.94631587
42.44505121,-2.825923443,-14.06860065,10.18804073,17.59850964
42.44738256,-1.700698733,-14.24985695,9.650852203,17.29421139
42.44970095,-0.7812566161,-14.40658665,9.111868858,17.06418046
42.45200642,-0.4348955154,-14.55793285,8.63390255,16.93123789
42.45433777,-0.4247260094,-14.57228947,8.534002304,16.89263768
42.45665621,-0.7860422134,-14.39821243,8.490931511,16.7338669
42.45896168,-1.379462242,-14.11944866,8.459824562,16.51757786
42.46129303,-2.057827473,-13.71266842,8.379665375,16.20156538
42.46361142,-2.737389088,-13.20060444,8.164909363,15.76118655
42.46591694,-3.306880951,-12.62871933,7.78325367,15.19865294
42.46824824,-3.692723513,-11.966506,7.331608772,14.51158021
42.47056663,-3.949951887,-11.2815609,6.795018196,13.74947303
42.47287215,-4.034298897,-10.61216831,6.188437462,12.93021431
42.47520345,-4.045664787,-10.01336479,5.69252491,12.20818241
42.47752188,-3.894917011,-9.458230019,5.279164791,11.51078079
42.47982735,-3.775275946,-8.985647202,4.942973614,10.92829137
42.48215871,-3.640679598,-8.550751686,4.583451748,10.36233238
42.48447709,-3.390629768,-8.199604988,4.301696777,9.860754908
42.48678262,-3.153740168,-7.863413334,4.039084435,9.385816394
42.48911392,-2.916252613,-7.575078487,3.819543123,8.970800024
42.49143235,-2.688934565,-7.301100254,3.652643681,8.59524519
42.49373782,-2.595614433,-6.938587666,3.422334671,8.160489426
42.49606918,-2.562713146,-6.506084919,3.266202927,7.717818422
42.49838756,-2.598605394,-5.997610092,3.133401155,7.248605357
42.50069303,-2.672782898,-5.514857769,3.000599623,6.823563785
42.50302438,-2.798406124,-5.071587563,2.94377017,6.497527226
42.50534282,-3.068196774,-4.611567497,2.976073265,6.28787709
42.50764829,-3.315854073,-4.113262177,3.151347399,6.151813098
42.50997959,-3.519842148,-3.699303865,3.476173162,6.177209539
42.51229803,-3.795016766,-3.354737282,3.890729666,6.387033099
42.5146035,-4.169493675,-3.021536827,4.33340168,6.72998755
42.51693485,-4.670191765,-2.633301258,4.860421181,7.236619424
42.51925324,-5.258227825,-2.266601324,5.554339409,7.977288242
42.52155876,-5.733202934,-2.04586339,6.410970211,8.840571924
42.52389006,-6.20758009,-1.863410592,7.293323517,9.756993262
42.5262085,-6.643074036,-1.838884234,7.995018482,10.55614742
42.52851397,-7.017550468,-2.000399828,8.288737297,11.04313271
42.53084532,-7.252645493,-2.313261271,8.24147892,11.21935912
42.53316371,-7.380063057,-2.908475876,7.590631485,10.97917342
42.53546923,-7.441080093,-3.670589924,6.364908218,10.45729219
42.53780053,-7.337590694,-4.584050179,4.70787859,9.849765178
42.54011897,-7.14197731,-5.586642742,2.651845694,9.447259
42.54242444,-6.826124668,-6.533602238,0.7962117195,9.482504378
42.54475579,-6.427719593,-7.425527096,-0.8871390224,9.86108754
42.54707418,-6.060421467,-8.303094864,-2.25104785,10.52317961
42.5493797,-5.773283005,-9.254241943,-3.362514019,11.4139516
42.551711,-5.714060307,-10.43988514,-3.926023722,12.53217256
42.55402938,-5.813362598,-11.68056393,-3.570091486,13.52687368
42.55633491,-6.14357233,-13.06540966,-2.542374134,14.65987984
42.55866626,-6.693323135,-14.54357624,-0.5276173949,16.01856937
42.56098465,-7.644470215,-15.96850204,2.011765718,17.81791749
42.56329012,-8.796015739,-17.46042633,4.794020176,20.13005241
42.56562147,-9.933204651,-18.83091545,7.746165276,22.65557344
42.56793985,-11.09671497,-20.217556,10.44586754,25.31803315
42.57024538,-11.98086262,-21.36730766,12.63589859,27.56390464
42.57257668,-12.2297163,-22.48954201,14.01595879,29.18548545
42.57489512,-11.84806156,-23.57947159,14.55673695,30.1374623
42.57720058,-10.60917759,-24.41995239,14.52144241,30.32756195
42.57953194,-8.701499939,-24.85245323,13.55414391,29.61545795
42.58185032,-6.516254425,-24.74178696,11.9216404,28.22663819
42.58415584,-4.317848682,-23.92523575,9.931410789,26.26201902
42.58648715,-2.417947292,-22.36212349,7.6426754,23.7554525
42.58880558,-1.003789067,-20.1918335,5.049454212,20.83781947
42.59111105,-0.1190429255,-17.770298,2.20618248,17.90711879
42.59344241,0.3672982752,-15.25723553,-0.6747759581,15.27656593
42.59576079,0.494716078,-12.89611721,-3.505485058,13.37321983
42.59806631,0.3361915946,-10.82991505,-5.925825119,12.34971611
42.60039762,0.09631111473,-8.38923645,-7.7868433,11.44654938
42.60271605,0.1459621787,-5.658427238,-9.195018768,10.79756796
42.60502152,0.5024927258,-3.807579041,-10.3214407,11.01282412
42.60735288,0.87517488,-2.940180779,-10.748559,11.17775087
42.60967126,0.9248259664,-2.227717876,-10.34357452,10.62109052
42.61197673,0.6233302951,-1.617548108,-9.296115875,9.456361505
42.61430808,0.1848455518,-1.140179992,-7.843672752,7.928264661
42.61662647,-0.4492524564,-0.9649057388,-6.071787357,6.164371222
42.61893199,-1.141974568,-0.9583254457,-4.140779495,4.400971302
42.62126329,-1.869392633,-0.9906286001,-1.929213285,2.863186641
42.62358173,-2.502892494,-1.159920812,0.35174492,2.780937183
42.6258872,-3.031108141,-1.447059512,2.343171597,4.095369449
42.62821855,-3.431905985,-1.876571178,3.830909014,5.474975977
42.63053694,-3.582653761,-2.430509567,4.763511658,6.436911374
42.63284246,-3.515056372,-3.086741209,5.045864582,6.880722489
42.63517376,-3.051447153,-3.854238987,4.435695171,6.621320076
42.6374922,-2.369492531,-4.695914268,2.987439156,6.049041112
42.63979767,-1.496710539,-5.534000397,0.9978070259,5.819013807
42.64212902,-0.5706881881,-6.299703598,-1.459023595,6.491586885
42.64444741,0.5252245665,-6.960721016,-3.963112593,8.027064179
42.64675293,1.724626899,-7.623532772,-6.314060688,10.04788297
42.64908423,2.883949518,-8.234300613,-8.531609535,12.20283707
42.65140267,3.284747362,-8.574081421,-10.38604641,13.86269806
42.65370814,3.75134778,-9.102895737,-11.58006477,15.19977701
42.65603944,4.2071805,-9.919445992,-12.18066406,16.26236002
42.65835788,4.680959225,-10.87896824,-12.31226921,17.08377307
42.6606634,5.067399979,-11.64227867,-12.20818138,17.61422402
42.6629947,5.279763222,-12.20877934,-11.82054424,17.7948155
42.66531314,5.424529076,-12.78485107,-11.31446171,17.91354171
42.6676186,5.56630373,-13.40459251,-10.34058285,17.82118097
42.66994991,5.669195175,-14.02971745,-9.242277145,17.73111481
42.67226834,5.693721294,-14.58365536,-8.112266541,17.63264966
42.67457381,5.669793129,-14.98026657,-6.778268337,17.39252317
42.67690517,5.577669621,-15.47019672,-5.516652584,17.34562887
42.67922355,5.468796253,-15.8931284,-4.283750534,17.3450218
42.68152907,5.367101192,-16.18624878,-3.113660574,17.33480046
42.68386038,5.293521881,-16.60858154,-1.99501586,17.54555337
42.68617881,5.280361176,-17.10210228,-1.113858938,17.9333432
42.68848428,5.324030399,-17.70509338,-0.4749752879,18.49435679
42.69081564,5.379663467,-18.12084579,-0.08075776696,18.90270756
42.69313402,5.520840168,-18.28953934,0.09870393574,19.10488597
42.69543954,5.627320766,-18.33081627,-0.0,19.17512879
42.69777084,5.725426197,-17.98804474,-0.2404786795,18.87877349
42.70008928,5.727221012,-17.45085526,-0.4211367965,18.37146608
42.70239475,5.679962635,-16.88495255,-0.5300102234,17.82258424
42.7047261,5.622535229,-16.12762451,-0.5647061467,17.08894578
42.70704449,5.496313572,-15.47797298,-0.6376872063,16.43726728
42.70936293,5.334797859,-14.90070438,-0.7908278704,15.84665479
42.71168131,5.217549801,-14.40419388,-0.8715856671,15.34481309
42.71399975,4.91067028,-13.80598831,-0.8979067206,14.68081171
42.71630522,4.617549419,-13.1838541,-0.8572286963,13.99537826
42.71863657,4.220340729,-12.59761333,-0.8177471161,13.31089208
42.72095496,3.845864296,-12.02513027,-0.5772684813,12.63834123
42.72326043,3.49531579,-11.66740322,-0.2584248483,12.18245927
42.72559178,3.123231649,-11.31565857,-0.1926222295,11.74034957
42.72791022,2.773879766,-10.9304142,-0.1794617027,11.27832302
42.73021569,2.414358139,-10.52542877,-0.04247260094,10.79886938
42.73254699,2.125424623,-10.25324535,0.04366901144,10.4713121
42.73486543,1.835893154,-9.948160172,0.0484546572,10.11626128
42.7371709,1.595414519,-9.728020668,0.1399801224,9.858971957
42.73950225,1.328614831,-9.691530228,0.0185443759,9.782193998
42.74182064,1.075573802,-9.668798447,-0.07537391037,9.728730834
42.74412616,0.822532773,-9.626923561,-0.1585244983,9.663298993
42.74645746,0.5407779217,-9.590433121,-0.2949153781,9.610193717
42.7487759,0.3032902777,-9.624530792,-0.2584248483,9.632775372
42.75108137,0.0185443759,-9.496515274,-0.233300209,9.499398677
42.75341272,-0.2967100143,-9.441479683,-0.37986058,9.45377541
42.7557311,-0.5264210105,-9.514460564,-0.6628118753,9.552036353
42.75803662,-0.8015955687,-9.593423843,-0.5928218365,9.64509068
42.76036793,-1.009172916,-9.458827972,-0.7148557901,9.539333068
42.76268636,-1.162313581,-9.352945328,-1.007976532,9.478637869
42.76499183,-1.320239902,-9.246464729,-1.301695466,9.430511888
42.76732319,-1.537388563,-9.011369705,-1.214357495,9.221876798
42.76964157,-1.68574357,-8.894122124,-0.8967102766,9.096770254
42.77194709,-1.813161373,-8.863015175,-0.6071787477,9.066932126
42.7742784,-1.952543259,-8.712266922,-0.35174492,8.935308869
42.77659683,-2.067996979,-8.55134964,-0.1304088384,8.798818025
42.77891522,-2.041077614,-8.526823044,-0.01495514158,8.767721067
42.78123366,-2.11645174,-8.600402832,0.151944235,8.858294638
42.78355204,-2.310270309,-8.681160927,0.2027917206,8.985601172
42.78587048,-2.264806747,-8.78584671,0.2470589429,9.076424965
42.78818886,-2.00638175,-8.842078209,0.2733799815,9.070978525
42.7905073,-1.70249331,-8.753543854,0.1752742529,8.919290024
42.79282569,-1.396211982,-8.55493927,-0.008973085321,8.668129806
42.79514407,-1.071984529,-8.325826645,-0.1417747438,8.39575132
42.79746251,-0.6675975323,-8.081160545,-0.2213360965,8.111709554
42.7997809,-0.4594219327,-7.66839838,-0.1794617027,7.684244188
42.80209933,-0.2961117923,-7.309474945,-0.262014091,7.320161033
42.80441772,-0.1686939895,-6.888338089,-0.2829512656,6.896210605
42.80672324,0.0580259487,-6.422336102,-0.2841476798,6.428880767
42.80905454,0.1579262912,-6.035296917,-0.3577269912,6.04795157
42.81137298,0.2189432681,-5.890531063,-0.6921239495,5.935092916
42.81367845,0.2667997181,-5.947958946,-1.172483087,6.068287592
42.8160098,0.3451646566,-6.06700182,-1.586441398,6.280481353
42.81832819,0.4695914388,-6.213562012,-1.77009058,6.477815191
42.82064662,0.5629115105,-6.317051888,-1.787438512,6.589153994
42.82296501,0.643071115,-6.3343997,-1.653440475,6.578147568
42.82528345,0.6861419082,-6.42413044,-1.395015597,6.609562099
42.82760183,0.656829834,-6.471987247,-1.088734269,6.595709717
42.82992027,0.6215356588,-6.472585201,-0.8464609981,6.557222124
42.83223866,0.5479564071,-6.468996048,-0.5796613097,6.517988442
42.83455709,0.4671986103,-6.556932449,-0.3702892959,6.583976902
42.83687548,0.3457628787,-6.554539204,-0.08015955985,6.564142114
42.83919392,0.1668993831,-6.519843578,0.151944235,6.523749132
42.8415123,0.02871387079,-6.537191391,0.1986042857,6.540270593
42.84383074,-0.111864455,-6.655636311,0.2602194548,6.661660643
42.84614913,-0.1806581169,-6.777071953,0.3272185028,6.787371624
42.84846756,-0.2051845491,-6.979265213,0.4618147612,6.997536458
42.85078595,-0.2470589429,-7.253243446,0.6017948985,7.28235784
42.85310438,-0.2829512656,-7.576274872,0.7657032609,7.620124923
42.85542277,-0.3170489967,-7.922635555,0.8584251404,7.975309896
42.85774121,-0.3966103494,-8.18345356,0.9074779749,8.243162513
42.86005959,-0.484546572,-8.315058708,0.9361918569,8.381613323
42.86237798,-0.5395814776,-8.426922798,1.012762189,8.504696542
42.86469642,-0.6029912829,-8.59142971,1.109671474,8.683756891
42.8670148,-0.6346961856,-8.693124771,1.248455167,8.80521992
42.86933324,-0.670588553,-8.799007416,1.334596872,8.924873631
42.87165163,-0.7250252366,-8.925228119,1.396810174,9.062915493
42.87397006,-0.7411768436,-9.055039406,1.430907965,9.197313703
42.87628845,-0.7076773047,-9.083154678,1.488933921,9.231545391
42.87860688,-0.6586244106,-9.139386177,1.49431777,9.284134392
42.88092527,-0.6089733839,-9.214759827,1.51944232,9.359025174
42.88324371,-0.5431707501,-9.194420815,1.581655741,9.345268507
42.88556209,-0.4360919297,-9.09571743,1.615155339,9.248295979
42.88788053,-0.2961117923,-8.962915421,1.610967875,9.111352947
42.89019897,-0.1788634956,-8.686544418,1.566700578,8.828510451
42.89251735,-0.02871387079,-8.351549149,1.37048912,8.46329948
42.89483574,0.1310070455,-7.983652592,1.077966571,8.057163488
42.89715418,0.3577269912,-7.613961697,0.7196413875,7.656256595
42.89947256,0.6287141442,-7.262216568,0.2279163599,7.292942947
42.901791,0.9170492887,-6.978068829,-0.3200400174,7.045342404
42.90409647,1.217946768,-6.808776855,-0.9050851464,6.975816491
42.90642782,1.449452281,-6.766304016,-1.447657704,7.069617725
42.90874621,1.592423439,-6.816553593,-1.889133453,7.250520016
42.91105173,1.641476393,-6.940382004,-2.183450699,7.45860604
42.91338303,1.603191137,-7.080960274,-2.311466694,7.619258396
42.91570147,1.492523074,-7.251449108,-2.282752752,7.747393073
42.91800694,1.315454245,-7.466803074,-2.09671092,7.866369219
42.92033824,1.100698471,-7.744968891,-1.743769526,8.014787109
42.92265668,0.8207381964,-8.09671402,-1.36211431,8.251408637
42.92497512,0.5270192027,-8.496912956,-0.9086744189,8.561598462
42.9272935,0.2452643216,-8.992227554,-0.4163511395,9.005201788
42.92961188,-0.0765703246,-9.4307127,0.1136590764,9.431708405
42.93191741,-0.4534398913,-9.765707016,0.5563312769,9.792045024
42.93424876,-0.7405785918,-10.01156998,0.9080761671,10.07991034
42.93656715,-0.9768698215,-10.18026352,1.160519004,10.29265973
42.93887262,-1.17068851,-10.26580715,1.283749342,10.41178757
42.94120397,-1.223330617,-10.27178955,1.302293777,10.42603316
42.94352235,-1.138983607,-10.20778179,1.316650629,10.3551756
42.94584079,-0.8931210637,-10.10130119,1.213161111,10.21301674
42.94815918,-0.5276173949,-10.0019989,1.091725349,10.07522835
42.95047762,-0.04366901144,-9.860821724,0.9421738982,9.905826755
42.952796,0.4731806815,-9.681360245,0.7118647099,9.719021942
42.95511444,1.013360381,-9.442676544,0.4283152521,9.506550033
42.95743282,1.597209096,-9.252447128,0.1417747438,9.390365
42.95973834,2.216950178,-9.128020287,-0.1597209126,9.394739657
42.96206965,2.823530674,-9.089735031,-0.4073780477,9.526886442
42.96438808,3.372683525,-8.885149002,-0.5706881881,9.520848279
42.96669355,3.85244441,-8.763712883,-0.6963114142,9.598376999
42.96902491,4.259224415,-8.788239479,-0.7304090858,9.793244773
42.97134329,4.599603176,-8.880961418,-0.6598208547,10.02313268
42.97364881,4.846662045,-9.06700325,-0.55154562,10.2958673
42.97598012,4.966303349,-9.318249702,-0.4390829504,10.56819475
42.97829855,4.97826767,-9.649057388,-0.2554338276,10.86060329
42.98060402,4.909473896,-9.996016502,-0.009571290575,11.13657809
42.98293538,4.826921463,-10.37228775,0.1974078715,11.44213677
42.98525376,4.700101852,-10.66839981,0.3415754437,11.66286353
42.98755923,4.563112736,-10.93998528,0.456430912,11.86227655
42.98989058,4.415356159,-11.13081264,0.485144794,11.98439509
42.99220902,4.321437836,-11.56451225,0.5114658475,12.35614689
42.99451449,4.10249424,-11.59382439,0.5431707501,12.31025009
42.99684579,3.95653224,-11.30429268,0.5204389095,11.98799554
42.99916423,3.815355778,-11.35573769,0.4719842672,11.98884845
43.00148262,3.722035646,-11.77567863,0.3505485058,12.35487924
43.00380105,3.583251953,-11.77448177,0.4253242314,12.31499153
43.00611944,3.442075491,-11.87378407,0.5533402562,12.37500776
43.00843788,3.296711445,-12.04008579,0.7680960894,12.50687586
43.01075626,3.111865759,-12.14477158,0.9864411354,12.57585986
43.0130747,2.902493954,-12.25484085,1.205384374,12.6514247
43.01539308,2.74396944,-12.46481133,1.476969719,12.84843684
43.01771152,2.558525562,-12.55035496,1.652842283,12.91469513
43.02002991,2.379662037,-12.86142159,1.805982947,13.20380744
43.02234834,2.112862349,-12.92064381,1.956730723,13.23767422
43.02466673,1.897508383,-12.90628719,2.02612257,13.20143779
43.02698517,1.698904037,-12.97867012,1.957927108,13.23501536
43.02930355,1.579262972,-13.13001633,1.933998942,13.36531901
43.03162199,1.500898004,-13.22333622,1.914856315,13.44529621
43.03394038,1.449452281,-13.28196049,1.986641049,13.50770628
43.03625881,1.412363529,-13.37348557,2.1302104,13.61553096
43.0385772,1.362712502,-13.31246853,2.20618248,13.56267101
43.04089564,1.399203062,-13.28734398,2.301297188,13.55755317
43.04321402,1.364507079,-13.24487114,2.367697954,13.52384874
43.04553246,1.351944804,-13.13480186,2.380858421,13.41712568
43.04785084,1.393221021,-13.08574867,2.414358139,13.37935007
43.05016923,1.42971158,-13.04148197,2.443071842,13.34514621
43.05248767,1.505683661,-13.03968716,2.486740828,13.35980555
43.05480605,1.605584025,-13.02772331,2.516052961,13.36525336
43.05712449,1.667199135,-13.01635742,2.531008244,13.36454699
43.05944288,1.758126378,-13.04806232,2.560320139,13.41261265
43.06176131,1.871187329,-12.97807217,2.575275421,13.36277451
43.0640797,2.017747641,-12.93141174,2.571087837,13.33803613
43.06639814,2.169692039,-12.8889389,2.524427891,13.31183856
43.06871657,2.405385017,-12.96550941,2.489133835,13.41961619
43.07103496,2.62851572,-13.06122208,2.382055044,13.5343564
43.07335334,2.95752883,-13.19342613,2.248056889,13.70646671
43.07567178,3.290729284,-13.49312687,2.094916344,14.04571274
43.07797725,3.623331785,-13.74975681,1.894517303,14.34480887
43.0803086,3.914059639,-14.04586887,1.694716692,14.67918117
43.08262699,4.152743816,-14.35753441,1.484148264,15.01954632
43.08493251,4.418346882,-14.60638809,1.288534999,15.31432939
43.08726381,4.636094093,-14.85583973,1.134796143,15.60375291
43.08958225,4.847260475,-15.07179165,1.061815023,15.86764913
43.09188772,5.089533806,-15.20100403,1.021137118,16.0628951
43.09421907,5.303691387,-15.19143295,1.057029366,16.12532445
43.09653746,5.490929604,-15.05205059,1.052842021,16.05686804
43.09884298,5.675775528,-14.81217003,1.042672515,15.89660262
43.10117428,5.819942951,-14.52084446,1.123430252,15.68402867
43.10349272,5.927021503,-14.27318668,1.227517962,15.5035558
43.10579819,5.960521221,-13.94537067,1.349551916,15.22571728
43.10812954,5.870192051,-13.64447308,1.518245935,14.93103717
43.11044793,5.671587944,-13.38963699,1.662413478,14.63601405
43.11276637,5.404788017,-13.26162148,1.816152334,14.43539909
43.11508475,5.049454212,-13.18804169,1.841277003,14.24119842
43.11740319,4.701298237,-13.1772747,1.809572101,14.10735003
43.11972157,4.345366001,-13.24786282,1.85443759,14.06509913
43.12204001,3.998406649,-13.32323647,1.880758643,14.03684932
43.1243584,3.769293785,-13.48714447,1.875374794,14.12896572
43.12667683,3.546163082,-13.6606245,1.669592023,14.21180748
43.12899522,3.336791277,-13.73779297,1.325025558,14.19918393
43.13131366,3.149552822,-13.73360538,0.8697910309,14.11694501
43.13361912,2.882154942,-13.64925861,0.509073019,13.95952124
43.13595043,2.627917528,-13.49731445,0.2147558331,13.75243862
43.13826886,2.406581402,-13.39262867,0.1453639716,13.60791194
43.14057433,2.198405743,-13.30588818,0.24765715,13.48855003
43.14290569,1.980060697,-13.21914864,0.4839483798,13.37537802
43.14522413,1.676172256,-13.0384903,0.8087740541,13.17064532
43.14752959,1.35074842,-12.77109241,1.300499082,12.90800607
43.14986095,1.013958573,-12.63888931,1.85443759,12.81438933
43.15217933,0.6125625968,-12.57547951,2.308475733,12.80027257
43.1544848,0.1920240223,-12.63769245,2.64825654,12.91361322
43.15681616,-0.2799602449,-12.7250309,2.940778971,13.06342107
43.15913454,-0.7375875711,-12.83629704,3.195016384,13.24849753
43.16144006,-1.140179992,-12.99482155,3.354737282,13.46921155
43.16377136,-1.472782373,-13.19940758,3.33439827,13.6934897
43.1660898,-1.743769526,-13.39801216,3.199203968,13.88460904
43.16839527,-1.905883193,-13.6851511,2.956930637,14.13008104
43.17072662,-2.020140409,-14.14038563,2.592025042,14.51723344
43.17304501,-2.059622049,-14.66082478,2.046461582,14.94556225
43.17535053,-2.084148407,-15.16212082,1.377667665,15.3665725
43.17768183,-2.103889227,-15.61556053,0.5796613097,15.76731074
43.18000027,-2.049452543,-15.97568035,-0.342771858,16.11024863
43.18230574,-1.953141451,-16.25384521,-1.356132269,16.42684816
43.18463709,-1.844268084,-16.47458458,-2.340778828,16.74193858
43.18695548,-1.630708575,-16.70668793,-3.290729284,17.10559941
43.189261,-1.400399446,-17.00997734,-4.169493675,17.56943725
43.1915923,-1.200598717,-17.28993797,-5.009972572,18.04115344
43.19391074,-1.054038405,-17.55733681,-5.794219971,18.51874882
43.19621621,-0.950548768,-17.85344887,-6.482156754,19.01755861
43.19854756,-0.8859425783,-18.16032791,-6.966104984,19.47072219
43.20086595,-0.8679963946,-18.41934967,-7.193423271,19.79321092
43.20317147,-0.9110672474,-18.57966995,-7.240083218,19.96128713
43.20550277,-0.9918249846,-18.62932014,-7.135396957,19.97371211
43.20782121,-1.137188911,-18.61795425,-6.893722057,19.8857945
43.21012668,-1.329213023,-18.50549126,-6.428318024,19.63525621
43.21245803,-1.548754454,-18.34158325,-5.830710411,19.30827544
43.21477642,-1.77009058,-18.11546135,-5.128417015,18.91041569
43.21709485,-1.992623091,-17.8696003,-4.320839405,18.49223661
43.21941324,-2.237887383,-17.64826393,-3.528217077,18.13608766
43.22173168,-2.475374937,-17.40718651,-2.668595552,17.783673
43.22403715,-2.743371248,-17.21994781,-2.014158487,17.55304882
43.2263685,-3.020340443,-16.99980927,-1.469791293,17.32848112
43.22868688,-3.27577424,-16.83231163,-1.091127157,17.18278121
43.23099241,-3.579064369,-16.81496239,-0.798604548,17.21018393
43.23332371,-3.847658873,-16.80658722,-0.6867401004,17.2550707
43.23564215,-4.05523634,-16.70549202,-0.6364908218,17.20242791
43.23794762,-4.295714855,-16.66301918,-0.5150550604,17.21553531
43.24027897,-4.537389755,-16.60618973,-0.3032902777,17.21759066
43.24259735,-4.66540575,-16.41596031,0.1764706671,17.06695361
43.24490288,-4.6935215,-16.10788345,0.8985049129,16.80179647
43.24723418,-4.706083775,-15.75554085,1.921436548,16.55524721
43.24955262,-4.543970108,-15.48634815,2.842075109,16.3875573
43.25185808,-4.317250252,-15.4612236,3.096312523,16.34855456
43.25418944,-4.14257431,-15.57248974,3.055634499,16.40122742
43.25650782,-3.999004841,-15.58864117,2.995215654,16.36976145
43.25881334,-3.870988846,-15.46002674,3.262613773,16.26780963
43.26114465,-3.676572084,-15.31645775,3.05324173,16.04472952
43.26346308,-3.474976778,-15.27996731,2.167299032,15.81929359
43.26578147,-3.287738323,-15.23390579,1.210768223,15.6316048
43.26809991,-3.171088219,-15.00718498,0.2033899277,15.33990773
43.27041829,-2.976073265,-14.73021603,-0.6891329288,15.04364253
43.27272381,-2.955734253,-14.44846153,-1.740180254,14.85000448
43.27505512,-3.031706333,-14.22293758,-3.144767046,14.87860063
43.27737355,-3.01974225,-13.98365593,-4.267599106,14.92896107
43.27967902,-3.072384357,-13.62592888,-4.84845686,14.78556787
43.28201038,-3.18843627,-13.3220396,-4.999204636,14.58200645
43.28432876,-3.220141172,-12.939188,-5.288137913,14.34420782
43.28663428,-3.190230846,-12.67956734,-5.686542988,14.25783195
43.28896558,-3.157329559,-12.56889915,-5.968297958,14.26767453
43.29128402,-3.037090063,-12.58983612,-6.071787357,14.30365308
43.29358949,-2.812762976,-12.65205002,-5.92642355,14.25161399
43.29592079,-2.549552441,-12.59701443,-5.532804012,13.99274492
43.29823923,-2.194218397,-12.5060873,-4.963312149,13.63272832
43.30055767,-1.859223247,-12.36251831,-4.311866283,13.22424897
43.30287605,-1.399801254,-12.15793228,-3.374478102,12.69495425
43.30519449,-0.9828519225,-11.9593277,-2.461616278,12.24953353
43.30749996,-0.6454638839,-11.67637634,-2.073979139,11.87669052
43.30983126,-0.3924229145,-11.38684464,-1.792822361,11.53379549
43.3121497,-0.2147558331,-11.15653515,-1.506880045,11.25988828
43.31445517,0.03349951655,-10.91486073,-1.138385415,10.97411628
43.31678652,0.2105683982,-10.71386337,-1.219741344,10.78512755
43.31910491,0.3702892959,-10.54696369,-1.520040631,10.6623675
43.32141043,0.665802896,-10.42433167,-1.299302697,10.52607105
43.32374173,0.8697910309,-10.328619,-1.431506157,10.46356138
43.32606017,1.01036942,-10.2592268,-1.936391711,10.48914647
43.32836564,1.016351461,-10.17428207,-2.981456995,10.65073105
43.33069699,1.067198873,-10.12762165,-4.11685133,10.984357
43.33301538,1.552941918,-10.02173901,-5.005186558,11.30923401
43.3353209,1.810170293,-9.724431038,-5.930611134,11.53314458
43.3376522,1.606182218,-9.231510162,-7.152146816,11.78786687
43.33997064,1.557129383,-8.603992462,-7.204789162,11.32970984
43.3422761,1.835893154,-7.999206066,-5.809773445,10.05540993
43.34460746,2.046461582,-7.51645422,-4.417748928,8.955534302
43.34692584,2.155334949,-7.152146816,-3.728017569,8.348460206
43.34923136,2.298306227,-6.74476862,-3.271586657,7.840752164
43.35156267,2.379662037,-6.358926296,-3.335594654,7.564715907
43.3538811,2.319243431,-6.087340832,-3.882354736,7.583355906
43.35618657,2.21216464,-5.802595139,-4.514657974,7.677624591
43.35851793,2.09671092,-5.489135265,-4.79521656,7.584253721
43.36083631,2.02073884,-5.164309502,-4.735994339,7.29267581
43.36314183,1.928016901,-4.935196877,-4.600201607,7.016785033
43.36547314,1.825125456,-4.702494621,-4.473381996,6.742083141
43.36779157,1.655235052,-4.456632137,-4.319643021,6.423448366
43.37009704,1.431506157,-4.182653904,-4.070789337,6.009586457
43.3724284,1.231107235,-3.922434568,-3.698107481,5.529657938
43.37474678,1.084546804,-3.68075943,-3.40498662,5.130123355
43.3770523,0.9613165259,-3.390031576,-3.255435228,4.797322386
43.37938366,0.7770691514,-2.986242771,-3.045464993,4.335474527
43.38170204,0.6125625968,-2.619542599,-2.744567633,3.84316118
43.38400751,0.5018945336,-2.314457655,-2.466402054,3.41932032
43.38633887,0.4749752879,-2.084148407,-2.234298229,3.092145644
43.38865725,0.522831738,-1.924427629,-2.177468538,2.952650328
43.39096277,0.5204389095,-1.728216171,-2.475374937,3.063505977
43.39329407,0.4887340367,-1.440479279,-2.449054003,2.883003125
43.39561251,0.5946164131,-1.143769264,-1.75334084,2.176230896
43.39791798,0.6580262184,-0.9684949517,-1.310668588,1.757507645
43.40024933,0.7154539824,-0.837487936,-1.105484009,1.560562507
43.40256777,0.7208378315,-0.7657032609,-1.430907965,1.775783283
43.40487324,0.7836494446,-0.7645068169,-1.497308731,1.854861332
43.40720454,0.8428717852,-0.641874671,-0.9152546525,1.400045363
43.40952298,0.6305087805,-0.1274178028,-0.5491527915,0.8457809451
43.41182845,0.3906283081,0.4432703853,-0.4504488707,0.7429557824
43.4141598,0.185443759,0.7704889178,-0.2877369225,0.8431103705
43.41647819,0.06161518395,0.9068797827,-0.1561316848,0.9222822096
43.41878371,-0.1106680483,0.950548768,-0.2727817893,0.9950880775
43.42111501,-0.3290131092,0.9834501147,-0.4941178858,1.148728096
43.42343345,-0.5102694035,0.9936196208,-0.5623133183,1.250540316
43.42575183,-0.6340979934,0.9810572863,-0.5635097623,1.29695679
43.42807027,-0.7417750359,0.8925228715,-0.4971089065,1.262515166
43.43038866,-0.8560323119,0.6975077987,-0.4677968323,1.199225719
43.43270709,-0.9601200819,0.4833501875,-0.4576273263,1.168281107
43.43502548,-1.115055323,0.2255235314,-0.5814558864,1.277615037
43.43734392,-1.194018483,0.01196411345,-0.7046862841,1.386508578
43.4396623,-1.304088354,-0.1585244983,-0.6993024349,1.48822053
43.44198074,-1.428515077,-0.2913261652,-0.7854440212,1.656033988
43.44429912,-1.549352646,-0.418743968,-0.866201818,1.823772388
43.44661756,-1.668395638,-0.5856433511,-0.9284151793,1.997117144
43.44893595,-1.748555183,-0.7890332937,-0.9511470199,2.141191122
43.45125439,-1.859223247,-0.950548768,-0.9559326172,2.296532432
43.45357277,-1.940579176,-1.11984098,-0.9218349457,2.422740396
43.45589121,-1.940579176,-1.311864972,-0.8919246197,2.506464995
43.45820959,-1.921436548,-1.512862086,-0.8620143533,2.593017325
43.46052803,-1.883151412,-1.71924305,-0.8027920127,2.673299632
43.46284642,-1.865205288,-1.901097536,-0.6675975323,2.745696464
43.46516485,-1.780260086,-2.109871387,-0.484546572,2.802796572
43.46748324,-1.713261008,-2.33838582,-0.3152543902,2.915938418
43.46980168,-1.551147223,-2.598007202,-0.08315058798,3.026980864
43.47212006,-1.410568953,-2.757129908,0.2344966233,3.105874879
43.47442558,-1.275972724,-2.91266346,0.5850451589,3.233263469
43.47675688,-1.117448211,-3.066402197,0.9882357717,3.410003354
43.47907532,-0.917647481,-3.214159012,1.52542448,3.674209425
43.48138079,-0.7286145091,-3.352942705,2.181656122,4.066045662
43.48371215,-0.5335994363,-3.515056372,2.761317253,4.501691085
43.48603053,-0.3451646566,-3.629313707,3.48933363,5.04643496
43.48833605,-0.185443759,-3.748954773,4.254438877,5.673561618
43.49066735,-0.1028913707,-3.851248026,4.938187599,6.26325752
43.49298579,-0.08494520187,-4.032504559,5.717649937,6.99713009
43.49529126,-0.08853443712,-4.146163464,6.543173313,7.746717164
43.49762262,-0.2189432681,-4.339982033,7.41176796,8.591721858
43.499941,-0.3996013701,-4.467400074,8.379665375,9.504532417
43.50224652,-0.6364908218,-4.682155609,9.418747902,10.53757628
43.50457782,-0.9200403094,-4.902893543,10.4291172,11.56076662
43.50689626,-1.295713425,-5.203192711,11.33001518,12.53480481
43.50920173,-1.761117458,-5.553741455,12.11486149,13.44304459
43.51153308,-2.274976015,-6.0927248,12.60598755,14.18477118
43.51385147,-2.883949518,-6.654439926,13.02891922,14.91145438
43.51615699,-3.588635683,-7.309474945,13.21316624,15.52077614
43.51848829,-4.310669899,-7.974081516,13.22632694,16.03444964
43.52080673,-5.120640278,-8.709276199,13.0576334,16.50982249
43.5231122,-5.840281963,-9.543772697,12.74237919,16.95761534
43.52544355,-6.637091637,-10.33579731,12.32662582,17.40187908
43.52776194,-7.228118896,-11.01775169,12.06341553,17.86512103
43.53006746,-7.405188084,-11.72303677,12.06221867,18.3783438
43.53239876,-7.226324558,-12.33380413,11.9348011,18.62208281
43.5347172,-6.706483841,-13.09591866,11.54895878,18.70450373
43.53702267,-5.928816319,-13.87059498,11.05125141,18.69958357
43.53935402,-4.987240791,-14.7140646,10.49312592,18.74785212
43.54167241,-4.070191383,-15.62094402,9.792028427,18.88025876
43.54397793,-3.324228764,-16.24726486,9.217152596,18.97313929
43.54630923,-2.869592667,-16.64208221,8.484351158,18.89914488
43.54862767,-2.553740025,-16.88495255,8.021938324,18.86729194
43.55093314,-2.495713949,-17.00878143,7.736593723,18.85158127
43.55326449,-2.727219582,-16.88973808,7.585845947,18.71486142
43.55558288,-3.114258766,-16.6779747,7.576274872,18.58099536
43.5578884,-3.508476257,-16.36092567,7.532007694,18.34994372
43.5602197,-3.930809498,-15.86202145,7.414759159,17.94529579
43.56253814,-4.23230505,-15.22134304,7.207779884,17.36530394
43.5648436,-4.503292084,-14.40718555,6.84646368,16.5747006
43.56717496,-4.60379076,-13.55474186,6.519245148,15.72979572
43.56949334,-4.504488468,-12.68375492,6.160920143,14.80287108
43.57179887,-4.326821327,-11.86421299,5.684748173,13.84909002
43.57413017,-4.040280819,-11.01296616,5.222933769,12.84088509
43.5764486,-3.724428415,-10.14197922,4.752145767,11.80313513
43.57875407,-3.399004459,-9.337990761,4.33340168,10.84111032
43.58108543,-3.187239647,-8.55134964,3.867399693,9.911652618
43.58340381,-3.081955671,-7.867600918,3.391227961,9.104835091
43.58570933,-3.041277647,-7.281359196,2.914458036,8.411993052
43.58804064,-3.23330164,-6.753741741,2.584846735,7.921407681
43.59035907,-3.362514019,-6.296114445,2.341975212,7.512150526
43.59266454,-3.532404423,-5.963512421,2.237887383,7.283508861
43.5949959,-3.710669756,-5.694319725,2.196611166,7.142789916
43.59731428,-3.86081934,-5.458028316,2.221735716,7.045005938
43.5996198,-4.071985722,-5.232504845,2.280359983,7.011434683
43.6019511,-4.372285366,-4.931009293,2.452044964,7.031661004
43.60426954,-4.567898273,-4.647459984,2.748754978,7.072498347
43.60657501,-4.752145767,-4.454239368,3.093321562,7.210532299
43.60890636,-5.03689146,-4.234697819,3.361915827,7.389547972
43.61122475,-5.43649292,-3.955934048,3.55154705,7.603838235
43.61353027,-5.860620975,-3.671786308,3.803391695,7.892697973
43.61586157,-6.210571289,-3.535395384,4.066003799,8.222080221
43.61818001,-6.55394125,-3.553341627,4.201796532,8.557772883
43.62048548,-6.984051228,-3.678366661,4.084548473,8.887681873
43.62281683,-7.420143127,-3.914657831,3.857828379,9.233954178
43.62513522,-7.676773071,-4.24367094,3.648456335,9.500148497
43.62744074,-7.800601959,-4.683950424,3.292523861,9.676233558
43.62977204,-7.855636597,-5.181059361,2.818745136,9.823427435
43.63209048,-7.724031448,-5.846263885,2.280958176,9.951996455
43.63439595,-7.567899704,-6.573681831,1.78684032,10.18229822
43.6367273,-7.378268719,-7.395616531,1.60378933,10.56911223
43.63904569,-7.232904434,-8.236693382,1.649253011,11.08503766
43.64135121,-7.154539585,-9.199206352,2.18644166,11.85720715
43.64368251,-7.137191772,-10.23529911,2.895315409,12.80951621
43.64600095,-7.343572617,-11.31446171,3.483351469,13.93121818
43.64830642,-7.454838753,-12.51565838,4.616951466,15.28177236
43.65063777,-7.540382385,-13.94656658,5.742774487,16.86248928
43.65295616,-7.716853142,-15.33679676,7.258627415,18.64014027
43.65526168,-7.792226791,-16.71386528,8.694320679,20.38782242
43.65759298,-8.023732185,-17.95574188,10.14676476,22.13020063
43.65991142,-8.048258781,-19.09651947,11.5334053,23.71647029
43.66221688,-7.954938889,-20.32762718,12.23928738,25.02585933
43.66454824,-7.574480057,-21.33620071,12.72263813,25.97059356
43.66686663,-6.870391846,-22.2753849,12.47318649,26.43814362
43.66917215,-5.792425632,-22.98605347,11.77687454,26.46895583
43.67150345,-4.49970293,-23.46222496,10.88554859,26.25297116
43.67382188,-3.120838881,-23.53221512,9.91047287,25.72396268
43.67612735,-1.7670995,-23.11885452,8.626724243,24.73912784
43.67845871,-0.6089733839,-22.19163513,6.913462639,23.2515695
43.68077709,0.4295116663,-20.78824425,4.908875465,21.36428416
43.68308262,1.155733347,-18.79203224,2.401197433,18.98004069
43.68541392,1.533201098,-16.48774529,-0.5078766346,16.56666499
43.68773235,1.582253933,-13.62473202,-3.471387386,14.14875897
43.69003782,1.551745534,-10.74915791,-6.082555294,12.4478829
43.69236918,1.386640668,-8.78225708,-7.954340458,11.92989287
43.69468756,0.9882357717,-6.839285374,-9.212367058,11.51608185
43.69699308,0.5270192027,-5.035695076,-9.939785004,11.15505715
43.69932439,-0.0,-3.550350666,-10.29930687,10.89406774
43.70164282,-0.5330012441,-2.367099762,-10.18863869,10.4735672
43.70394829,-1.042672515,-1.527219057,-9.4307127,9.610302079
43.70627965,-1.541576028,-0.865005374,-8.228319168,8.416051763
43.70859803,-1.86580348,-0.3702892959,-6.832705021,7.092545008
43.71090355,-2.268395901,-0.08853443712,-5.091926575,5.575049287
43.71323485,-2.745764017,-0.1010967568,-3.230908871,4.241251316
43.71555329,-3.169891834,-0.285344094,-1.454237938,3.49920612
43.71785876,-3.555734396,-0.6089733839,0.1764706671,3.61181915
43.72019012,-3.896113396,-0.9888339639,1.60678041,4.328883861
43.7225085,-4.147359848,-1.44347024,2.962314367,5.297122469
43.72481402,-4.201796532,-2.085943222,4.092324734,6.225220875
43.72714532,-4.077968121,-3.008974552,4.782654285,6.968323605
43.72946376,-3.787838221,-3.851846218,4.634299278,7.117665873
43.73176923,-3.095116138,-4.630710125,3.467798233,6.561161845
43.73410058,-2.143370867,-5.293521881,1.730010748,5.967273227
43.73641897,-1.028315544,-5.86181736,-0.4743770957,5.970206801
43.73872449,0.1154536903,-6.541378975,-3.006581545,7.200173681
43.74105579,1.293320656,-7.378268719,-5.608178139,9.357520486
43.74337423,2.427518606,-8.253443718,-8.001599312,11.74894767
43.7456797,3.437887907,-9.074181557,-10.05643559,13.97468214
43.74801105,4.351946354,-9.958329201,-11.72124195,15.98421942
43.75032944,5.253442287,-11.02493,-12.969697,17.81462258
43.75263496,5.85882616,-11.85344505,-13.89332676,19.1795342
43.75496626,5.976074696,-12.42233849,-14.14576912,19.75172768
43.7572847,6.241677761,-13.03968716,-13.76650715,19.96268272
43.75959017,6.315257072,-13.52602863,-13.01336575,19.8036262
43.76192152,6.372684956,-14.05603886,-11.85942745,19.46353928
43.76423991,6.422336102,-14.68176174,-10.61456108,19.22158775
43.76654543,6.416952133,-15.23211098,-9.298508644,18.96461817
43.76887673,6.31226635,-15.68315792,-7.922037601,18.66989096
43.77119517,6.08135891,-16.07917023,-6.328417778,18.31861111
43.77350064,5.811567783,-16.47219086,-4.672584534,18.08149435
43.77583199,5.50169754,-16.89452362,-3.317050457,18.07474558
43.77815038,5.152943611,-17.27438545,-2.024926186,18.1399434
43.7804559,4.899902344,-17.5812645,-0.9373882413,18.27535502
43.78278725,4.737788677,-17.71765518,0.09750752151,18.34043223
43.78510564,4.677370071,-17.67458534,0.9690931439,18.30868371
43.78741116,4.655236244,-17.53939056,1.473978758,18.20642906
43.78974246,4.67976284,-17.25464439,1.662413478,17.95512606
43.7920609,4.6935215,-16.82273865,1.506880045,17.53009889
43.79436636,4.641477585,-16.33041573,1.03549397,17.00876361
43.79669772,4.687539577,-15.77288914,0.6071787477,16.46589582
43.7990161,4.6432724,-15.18904018,0.1016949639,15.8832384
43.80133454,4.515256405,-14.49631786,-0.4384847581,15.18957013
43.80365293,4.325026989,-13.84367561,-0.8697910309,14.52961628
43.80597137,4.162913322,-13.24786282,-1.013360381,13.9234556
43.80827683,3.973282099,-12.75254822,-1.085743308,13.4012423
43.81060819,3.723830223,-12.16271782,-1.006181955,12.7597421
43.81292657,3.466003656,-11.63510036,-0.8596215248,12.170772
43.81523209,3.052045345,-11.29472065,-0.927816987,11.73654718
43.8175634,2.677568436,-10.95374393,-1.186241865,11.33847647
43.81988183,2.306082726,-10.5732851,-1.259821177,10.89493115
43.8221873,1.920240164,-10.23170948,-1.227517962,10.48246162
43.82451866,1.582253933,-9.927821159,-1.170090318,10.12098176
43.82683704,1.304686546,-9.732208252,-1.054636598,9.875745177
43.82914256,1.061216831,-9.565308571,-1.019940615,9.677891716
43.83147386,0.7950153351,-9.421739578,-0.956530869,9.503482381
43.8337923,0.5150550604,-9.318249702,-0.955334425,9.381243153
43.83609777,0.314057976,-9.312865257,-0.8949156404,9.361034436
43.83842913,0.06759724021,-9.361918449,-0.8919246197,9.404552938
43.84074751,-0.1836491376,-9.410971642,-0.917647481,9.457388178
43.84305303,-0.4073780477,-9.459425926,-0.8237292171,9.503958415
43.84538433,-0.6622136831,-9.416953087,-0.7262216806,9.468100672
43.84770277,-0.8482556343,-9.291928291,-0.5479564071,9.346642457
43.85000824,-1.111466169,-9.072386742,-0.5419743061,9.156270768
43.85233959,-1.300499082,-8.797810555,-0.4648058116,8.905549554
43.85465798,-1.537388563,-8.52981472,-0.3637090325,8.674882536
43.8569635,-1.636092424,-8.450253487,-0.2368894368,8.610441279
43.8592948,-1.668395638,-8.522636414,-0.07896314561,8.68476313
43.86161324,-1.715055585,-8.595617294,-0.02572284266,8.765084939
43.86393162,-1.776670814,-8.61655426,0.02632104978,8.797855381
43.86625006,-1.718644857,-8.657830238,0.09391828626,8.827263745
43.86856845,-1.589432478,-8.674580574,0.0568295382,8.819176454
43.87088689,-1.600798368,-8.588438988,0.01794617064,8.736370054
43.87320527,-1.594218135,-8.472985268,0.002991028363,8.621659919
43.87552371,-1.409372568,-8.395816803,-0.04366901144,8.513399897
43.87784209,-0.9409775138,-8.447860718,0.008374879137,8.500109383
43.88016053,-0.5425725579,-8.370692253,0.006580262445,8.388260671
43.88247892,-0.2787638307,-8.210970879,-0.05443671346,8.2158819
43.88479735,-0.07716853172,-8.178069115,-0.3248256743,8.184881254
43.88711574,0.2303091735,-8.200202942,-0.5461617708,8.221597368
43.88943418,0.6442674994,-7.984251022,-0.5772684813,8.030976522
43.89173965,0.7770691514,-7.452445984,-0.3702892959,7.501993187
43.894071,0.8069794178,-7.00439024,-0.1686939895,7.052741033
43.89638939,0.9212366939,-6.80997324,-0.1734796464,6.874191426
43.89869491,0.985244751,-6.678966045,-0.3026920557,6.758026127
43.90102621,1.067198873,-6.681957245,-0.3684946895,6.77666986
43.90334465,1.121635556,-6.733402729,-0.4725824594,6.842522401
43.90566303,1.117448211,-6.757929325,-0.4869394004,6.866979631
43.90798147,1.134796143,-6.68076086,-0.4875376225,6.79396945
43.91029985,1.209571838,-6.78484869,-0.5862415433,6.916712725
43.91261829,1.194018483,-6.866802692,-0.7621139884,7.011381967
43.91493668,1.18743825,-6.881757736,-1.03848505,7.060244354
43.91725512,1.211366415,-7.045068264,-1.17068851,7.243680489
43.9195735,1.250848055,-7.264609337,-1.20717907,7.469702202
43.92189194,1.271187067,-7.33639431,-1.091725349,7.525321406
43.92421032,1.307079315,-7.339983463,-0.8434699774,7.503016405
43.92652876,1.212562919,-7.269395351,-0.5539384484,7.390620097
43.92884715,1.159920812,-7.304090977,-0.3726821244,7.405001908
43.93116558,1.111466169,-7.463811874,-0.3768695593,7.555519533
43.93348397,0.9834501147,-7.687541008,-0.3762713671,7.759319623
43.93580241,0.879960537,-7.929814339,-0.313459754,7.984644201
43.93812079,0.7872386575,-8.109275818,-0.06939185411,8.147693798
43.94043923,0.7190431952,-8.143971443,0.2117647976,8.178394605
43.94275762,0.6424728632,-8.212765694,0.4450650215,8.249871186
43.94507605,0.5084748268,-8.258827209,0.6681957245,8.301401029
43.94739444,0.342771858,-8.382058144,0.8871390224,8.435840617
43.94971288,0.2536391914,-8.456833839,0.9918249846,8.518573133
43.95203131,0.1633101404,-8.506484032,1.077368379,8.575993436
43.9543497,0.07597211748,-8.455636978,1.133599758,8.531624516
43.95666814,0.006580262445,-8.38923645,1.242473125,8.480747077
43.95898652,-0.04785645381,-8.328219414,1.260419369,8.423193327
43.96130496,-0.07417750359,-8.395816803,1.250848055,8.488808099
43.96362334,-0.1148554832,-8.498109818,1.232303619,8.587760736
43.96594173,-0.17587246,-8.547760963,1.275374413,8.644173095
43.96826017,-0.2488535494,-8.520243645,1.369890928,8.63325437
43.97057855,-0.342771858,-8.406583786,1.453639746,8.538220658
43.97289699,-0.4067798555,-8.355138779,1.514656782,8.501058701
43.97521538,-0.4241278172,-8.254639626,1.514058471,8.403054969
43.97753381,-0.4175475538,-8.115856171,1.460818172,8.256843045
43.97985225,-0.3146561682,-8.021938324,1.432104349,8.154840639
43.98217064,-0.204586342,-7.813164234,1.312463164,7.925272896
43.98448907,-0.09451649338,-7.585247993,1.140179992,7.671044968
43.98680746,0.1262213886,-7.41236639,0.9445667267,7.473373645
43.9891259,0.456430912,-7.376473904,0.7280163169,7.426352011
43.99144428,0.7537391186,-7.360322475,0.4875376225,7.414860925
43.99376272,1.034297585,-7.421339512,0.2135594189,7.496109609
43.9960811,1.325623751,-7.558926582,-0.01136590727,7.674293361
43.99839954,1.589432478,-7.778468132,-0.09391828626,7.939753317
44.00071793,1.771286964,-7.980661869,-0.1525424421,8.176288313
44.00303636,1.8628124,-8.16610527,-0.1794617027,8.377801133
44.00535475,1.881356835,-8.333602905,-0.1304088384,8.544322524
44.00767319,1.868196249,-8.593224525,-0.003589233849,8.793956894
44.00999157,1.785045743,-8.796614647,0.2398804724,8.979106871
44.01231001,1.597209096,-9.00179863,0.5401797295,9.158343169
44.0146284,1.336989641,-9.189635277,0.8823533654,9.328209114
44.01694683,1.059422255,-9.4307127,1.220937729,9.568249917
44.01926522,0.7058826685,-9.684351921,1.448255897,9.817453214
44.02158366,0.3343969584,-9.918250084,1.585245013,10.04970188
44.02390204,-0.08315058798,-10.03789139,1.697109461,10.18068554
44.02622048,-0.4594219327,-10.08514881,1.784447432,10.25209967
44.02853886,-0.6969096065,-10.12463093,1.758724689,10.29985179
44.03084438,-0.8685946465,-10.09531879,1.680957913,10.27110207
44.03317569,-0.9661021233,-9.987043381,1.588235974,10.15858663
44.03549412,-0.9517452121,-9.93918705,1.426122308,10.08598448
44.03781251,-0.8446664214,-9.806983948,1.302293777,9.929066653
44.04013095,-0.6472585201,-9.653842926,1.159920812,9.744795694
44.04244933,-0.3924229145,-9.470193863,1.016949654,9.532720186
44.04476777,-0.08195417374,-9.270991325,0.8703892231,9.312119739
44.04708616,0.327816695,-9.050253868,0.7962117195,9.091122701
44.04940459,0.7752745152,-8.78584671,0.6981059909,8.847570568
44.05172298,1.233500123,-8.434102058,0.6089733839,8.545551396
44.05404142,1.709671736,-8.197212219,0.5066801906,8.388920695
44.0563598,2.145763636,-8.028517723,0.394815743,8.319692175
44.05866532,2.612364054,-7.993822098,0.3367897868,8.416594623
44.06099662,3.040679455,-8.108677864,0.3128615618,8.665695045
44.06331506,3.456432343,-8.33898735,0.342173636,9.03342224
44.06562053,3.781257868,-8.566903114,0.4085744619,9.373189058
44.06795188,4.097708702,-8.986245155,0.457029134,9.886996219
44.07027027,4.370490551,-9.595218658,0.5072783828,10.55588651
44.07257579,4.573880672,-10.28614616,0.5760720372,11.27195841
44.07490709,4.750949383,-10.8682003,0.5958128572,11.87620692
44.07722553,4.835296154,-11.33659554,0.524028182,12.33584585
44.079531,4.874777794,-11.6961174,0.3553341627,12.67631189
44.08186235,4.886742115,-11.93659592,0.185443759,12.89949456
44.08418074,4.853840828,-12.10110188,0.04307080805,13.03833933
44.08648626,4.762913704,-12.21356487,-0.09092725813,13.10972088
44.08881756,4.671986103,-12.36969662,-0.1716850251,13.22370312
44.091136,4.515854359,-12.59880924,-0.1471585929,13.38449067
44.09345438,4.331008911,-12.29611778,-0.1274178028,13.03719241
44.09577282,4.166502476,-12.18485069,-0.1202393398,12.87807388
44.09809126,3.997808456,-12.35653591,-0.02452643216,12.98718806
44.10040965,3.819543123,-12.52822113,0.1800599098,13.09876544
44.10272803,3.606581926,-12.48933792,0.4307080805,13.00678686
44.10504647,3.406183004,-12.58026505,0.7633104324,13.05556564
44.10736485,3.141177893,-12.58564854,1.109671474,13.01909822
44.10968329,2.883351326,-12.51446247,1.450050473,12.9239364
44.11200168,2.638685226,-12.55274773,1.758126378,12.94701292
44.1143072,2.388635159,-12.54856014,2.042274237,12.93610543
44.1166385,2.142174482,-12.65504074,2.241476536,13.02932019
44.11895694,1.895713687,-12.76152134,2.349751949,13.11379013
44.12126241,1.665404558,-12.74237919,2.400001049,13.0729417
44.12359376,1.485942841,-12.81416321,2.465803623,13.13358262
44.12591215,1.335793257,-12.91406345,2.489133835,13.21942381
44.12821767,1.183250785,-12.92722416,2.516052961,13.22284876
44.13054902,1.033101201,-12.99781227,2.438884497,13.26493798
44.13286741,0.9188438654,-12.98644638,2.395215511,13.23741368
44.13518579,0.8009973764,-12.99422359,2.241476536,13.21043757
44.13750423,0.7160521746,-12.97747326,2.078166485,13.16230674
44.13982267,0.6299105883,-12.92722416,1.881356835,13.07858614
44.14214105,0.5629115105,-12.86082363,1.680359721,12.98234427
44.14445949,0.4815555513,-12.77707481,1.464407444,12.86973293
44.14677788,0.4558327198,-12.662817,1.305882931,12.73813362
44.14909631,0.4773681164,-12.55693531,1.247856975,12.62781263
44.1514147,0.5575276613,-12.50668621,1.214955688,12.57792329
44.15373314,0.6628118753,-12.51386452,1.192223907,12.58799121
44.15605152,0.8446664214,-12.67298698,1.104287624,12.74902003
44.15836996,1.111466169,-12.83988667,1.05523479,12.93103117
44.16068834,1.419542074,-13.10668564,0.9786644578,13.21961014
44.16300678,1.772483349,-13.4590292,0.8841479421,13.60400242
44.16532517,2.179861546,-13.87179089,0.8428717852,14.06729582
44.1676436,2.534597397,-14.2624197,0.7154539824,14.50354005
44.16994907,2.893520832,-14.64347649,0.5353940725,14.93621482
44.17228043,3.256033421,-14.92822266,0.3164508045,15.28246467
44.17459881,3.592225075,-15.14118385,0.1591227055,15.56228934
44.17690433,3.925425529,-15.27817249,0.08195417374,15.77460734
44.17923564,4.216751575,-15.28116322,0.05623133108,15.85238484
44.18155407,4.515256405,-15.21595955,0.1250249892,15.87225871
44.18385954,4.761716843,-15.0221405,0.2255235314,15.76037796
44.1861909,5.012963295,-14.81934929,0.3409772217,15.64797686
44.18850928,5.215157032,-14.54118347,0.4456632137,15.45452993
44.1908148,5.249254704,-14.22772312,0.5437689424,15.17492882
44.1931461,5.317450047,-13.97109318,0.7286145091,14.96654932
44.19546454,5.269593716,-13.8041935,0.8554341197,14.80054538
44.19778293,5.150550842,-13.71506119,1.020538807,14.68579507
44.20010136,4.990231514,-13.63250923,1.152742267,14.5628477
44.20241975,4.751547337,-13.63789272,1.222134113,14.49354794
44.20473819,4.484149456,-13.61994648,1.200598717,14.38930074
44.20705657,4.198207378,-13.58883953,1.092921734,14.26450079
44.20937501,3.932005882,-13.59541988,0.8991031051,14.18113178
44.2116934,3.744169235,-13.59541988,0.5880361795,14.11382413
44.21401183,3.58504653,-13.63310719,0.3194418252,14.10022033
44.21633022,3.478565931,-13.69831181,0.0951147005,14.13340773
44.21864866,3.349951744,-13.81256866,-0.1202393398,14.2135037
44.22096704,3.195614576,-13.86939812,-0.3451646566,14.23696932
44.22328548,2.983251572,-13.860425,-0.6334998012,14.19198693
44.22560387,2.746960402,-13.86162186,-0.9738788009,14.16470232
44.2279223,2.475973129,-13.78684616,-1.301695466,14.0677639
44.23024069,2.18105793,-13.58764362,-1.434497118,13.83614306
44.23254621,1.878963947,-13.38844109,-1.276570916,13.57978253
44.23487751,1.549352646,-13.13599777,-0.9469595551,13.26090734
44.23719595,1.220339537,-12.89731407,-0.4606183469,12.96310565
44.23950142,0.8398807645,-12.71845055,0.02632104978,12.74617891
44.24183277,0.4630111754,-12.54856014,0.5796613097,12.57047128
44.24415116,0.1082752272,-12.44088268,1.143769264,12.49381821
44.24645668,-0.2350948304,-12.26501083,1.77846539,12.39551126
44.24878798,-0.5359922647,-12.12682533,2.485544443,12.39052507
44.25110642,-0.7782655358,-12.02572823,3.236292601,12.47787748
44.25341189,-1.020538807,-12.21775246,3.769891977,12.82681021
44.25574324,-1.191625714,-12.49950695,4.013959885,13.18216673
44.25806168,-1.308275819,-12.82373428,4.196412563,13.55616557
44.26036715,-1.355534077,-13.24247837,4.303491592,13.99002308
44.2626985,-1.393819213,-13.74796295,4.144967079,14.42671028
44.26501688,-1.39022994,-14.11884975,3.723232031,14.66755312
44.26732241,-1.355534077,-14.52263927,3.063411236,14.90399317
44.26965371,-1.313659668,-14.94556999,2.189432621,15.16210339
44.27197215,-1.21854496,-15.33440399,1.110269666,15.42275904
44.27427762,-1.054636598,-15.63051605,-0.01196411345,15.66605992
44.27660897,-0.8273184299,-15.94876099,-1.171286702,16.01309918
44.27892735,-0.5982056856,-16.36331749,-2.225325108,16.52477174
44.28123288,-0.3649054468,-16.76291847,-3.245863914,17.07817977
44.28356418,-0.1531406492,-17.09611893,-4.219742775,17.60985416
44.28588262,0.03230310604,-17.35215187,-5.127220631,18.09382794
44.28818808,0.1633101404,-17.58664894,-5.816353798,18.52422367
44.29051944,0.2344966233,-17.65245056,-6.192026615,18.70842572
44.29283782,0.3026920557,-17.65604019,-6.34875679,18.76523622
44.29514334,0.2380858511,-17.54716682,-6.364310265,18.66719565
44.29747465,0.1477568001,-17.41017723,-6.261418819,18.50247197
44.29979308,-0.02931207791,-17.26421547,-6.020939827,18.28402886
44.30209855,-0.2069791555,-17.11885071,-5.746961594,18.05894398
44.30442991,-0.4432703853,-16.95135307,-5.439484119,17.80822414
44.30674829,-0.6867401004,-16.8412838,-5.127819061,17.61802998
44.30906673,-0.9643075466,-16.74138451,-4.730610371,17.42361956
44.31138512,-1.234696507,-16.58345795,-4.252045631,17.16436556
44.31370355,-1.530210137,-16.37827301,-3.736392498,16.86860986
44.31602194,-1.811964989,-16.17727661,-3.14895463,16.58021143
44.31834038,-2.09072876,-16.09113503,-2.569891453,16.42863705
44.32065876,-2.40598321,-16.06421471,-2.01475668,16.36786467
44.32296428,-2.742174864,-16.14317703,-1.48295188,16.44143649
44.32529558,-3.065205812,-16.30409622,-1.079162955,16.62478971
44.32761402,-3.390031576,-16.41655731,-0.685543716,16.77693769
44.32991949,-3.743571043,-16.49611855,-0.3349951804,16.91887919
44.33225084,-4.124029636,-16.53799438,0.2392822653,17.04611788
44.33456928,-4.365705013,-16.47937012,1.047458172,17.0799938
44.33687475,-4.530211449,-16.3519516,2.176272154,17.10687866
44.3392061,-4.502095699,-16.31546211,3.297309637,17.24341673
44.34152449,-4.491926193,-16.38126373,4.051048756,17.4623652
44.34383001,-4.530211449,-16.53440475,4.576871395,17.74421337
44.34616131,-4.639683247,-16.67079544,5.053641319,18.02723972
44.34847975,-4.646861553,-16.56431389,5.577669621,18.08535914
44.35078522,-4.700700283,-16.47458458,5.480760098,17.98741926
44.35311657,-4.742574692,-16.24128342,4.577469826,17.52782165
44.35543496,-4.801796913,-15.75554085,3.227917671,16.78433119
44.3577534,-4.755136967,-15.14178181,1.921436548,15.9867696
44.36007178,-4.776672363,-14.48674679,0.6765705943,15.26892855
44.36239022,-4.701298237,-14.08893967,-0.575473845,14.8637679
44.36469569,-4.633102894,-13.74377537,-1.884347796,14.62558616
44.36702704,-4.552345276,-13.4087801,-3.574877024,14.60475871
44.36934543,-4.362713814,-13.0761776,-5.149952412,14.715356
44.37165095,-4.031308174,-12.82493114,-6.217151642,14.81159272
44.37398225,-3.678964853,-12.49113274,-6.597609997,14.59765862
44.37630069,-3.323630571,-12.1663065,-6.7734828,14.31592132
44.37860616,-2.997608662,-11.8468647,-6.882954121,14.02529566
44.38093751,-2.708076954,-11.56570816,-7.001997471,13.78866399
44.3832559,-2.394617319,-11.38086224,-6.838088989,13.49139275
44.38556142,-2.027318954,-11.12662506,-6.450451851,13.01998988
44.38789272,-1.615753531,-10.97647572,-5.980261803,12.60385694
44.39021116,-1.186840057,-10.91306591,-5.466403484,12.26316288
44.39251663,-0.9332008362,-10.60259724,-4.798805714,11.67537872
44.39484798,-0.6652047038,-10.22512913,-3.768695593,10.91782164
44.39716637,-0.185443759,-10.01037312,-2.945564747,10.43639358
44.39947189,0.3296113312,-9.867402077,-2.221735716,10.11980123
44.40180319,0.7555337548,-9.736394882,-1.594218135,9.894935473
44.40412162,0.9672985673,-9.465408325,-0.8787640929,9.55520003
