Time (s),Acceleration x (m/s^2),Acceleration y (m/s^2),Acceleration z (m/s^2),Absolute acceleration (m/s^2)
10.00145446,7.282356262,-14.74014771,2.709216156,16.66266843
10.01153646,6.398594055,-13.01259018,-1.156495056,14.54671749
10.02161846,4.55517746,-11.45148651,-1.073717194,12.37089543
10.03170146,2.130070496,-10.20667511,0.3718267822,10.43320048
10.04178346,0.4074526978,-8.660540314,-0.6581813049,8.695066351
10.05186546,-0.9192384338,-7.533983002,-1.685195618,7.774688639
10.06194808,-1.300196228,-6.66010025,-1.714384918,6.999040021
10.07203108,-0.2685415649,-6.21312973,-1.844314728,6.486647241
10.08211308,0.7902067566,-6.135740662,-2.23605011,6.578119813
10.09219508,1.321302338,-5.989345093,-2.275118866,6.541732214
10.10227808,1.168470154,-5.855673065,-2.155667267,6.348317172
10.11236008,1.139729919,-6.052962799,-2.302661591,6.575681967
10.12244208,0.9129515076,-5.906267853,-2.343526611,6.419470179
10.13252508,0.3146456909,-5.352419586,-2.221530304,5.803670755
10.14260708,0.1011895752,-4.550237732,-2.192041626,5.051727352
10.15268908,0.1230441284,-3.500770111,-2.312690735,4.197507554
10.16277208,0.2038760376,-2.279010773,-2.432142334,3.339277148
10.17285408,0.4805007935,-1.147064667,-2.739602966,3.008664617
10.18293608,0.7680528259,-0.4010160828,-2.868634644,2.996628732
10.19301808,1.193767548,-0.0809815979,-2.419418793,2.699115831
10.20310108,1.932032318,-0.2186952209,-1.695374451,2.579703666
10.21318308,2.681374054,-0.365539856,-0.7982899475,2.821462926
10.22326508,3.239114227,-0.6035449219,0.2303709412,3.30290754
10.23334808,3.540737,-1.487756195,1.330583038,4.064564948
10.24343008,3.668122101,-3.288511505,2.453248444,5.503440341
10.25351208,3.440595245,-6.281986542,4.40533905,8.408808637
10.26359508,2.721790009,-10.9937384,8.858428802,14.37853211
10.27367708,1.073268127,-17.04086334,17.81325714,24.67498851
10.28375908,-0.3594026184,-25.32628372,26.56016785,36.70139416
10.29384208,0.4150868225,-35.36964844,30.41854431,46.65267587
10.30392408,-2.474504242,-36.59470093,19.05058411,41.33061894
10.31400608,-4.790637817,-23.27719482,6.638545074,24.67485137
10.32408808,-3.724255371,-11.79592026,4.692442017,13.22999716
10.33417108,-3.150797882,-4.500690765,3.96779892,6.776958973
10.34425308,-1.619631958,-0.02978805542,1.893412628,2.491807855
10.35433508,2.470163269,-1.61469223,-4.171974335,5.110215986
10.36441808,7.017407227,-8.824000397,-12.14813782,16.57360068
10.37450008,7.306755524,-13.77914612,-18.47922226,24.18129855
10.38458208,8.333171082,-14.49974762,-16.58925247,23.55605482
10.39466508,8.700656891,-12.64570312,-9.383536835,17.99071987
10.40474708,8.374634857,-11.50702103,8.100255432,16.37559709
10.41482908,4.494403839,-11.23518631,27.20472748,29.77459109
10.42491208,2.418820038,-5.788013763,0.5270539856,6.295202904
10.43499408,-0.8431965637,-2.628384247,-9.151818695,9.559036019
10.44507608,-2.793939972,-3.250191193,-5.610033875,7.059909591
10.45515808,-1.495989075,-6.831044769,-4.089196472,8.100782909
10.46524108,-0.3385958862,-10.02061203,-7.811954956,12.7103876
10.47532308,0.3809577942,-11.3853241,-8.886270905,14.44771761
10.48540508,0.6387217712,-12.10966782,-6.474186859,13.74653104
10.49548808,0.6845265198,-12.70063889,-2.529140625,12.96808995
10.50557008,0.2127076721,-13.15614166,0.1100212097,13.15832104
10.51565208,-0.2649490356,-13.27274918,1.492396545,13.35901629
10.52573508,-0.456101532,-12.74330017,2.246228943,12.94779025
10.53581708,-0.4830455017,-11.72960815,2.522853699,12.00757391
10.54589908,-0.1640588379,-10.22553589,2.28754303,10.47956834
10.55598208,0.7538323975,-8.805888062,2.05238205,9.073268425
10.56606408,1.566492462,-7.795638885,1.496438141,8.091057494
10.57614608,1.93652298,-7.011569366,0.1410067749,7.275445632
10.58622808,1.731599121,-6.654112701,-1.165775757,6.973857216
10.59631108,1.202150116,-6.889722748,-1.102457428,7.080173502
10.60639308,0.4158352661,-7.241191864,-0.1766326904,7.255272406
10.61647508,-0.1140628052,-7.796686707,0.2065704346,7.800256744
10.62655808,-0.1016386414,-8.055348816,-0.04879852295,8.0561378
10.63664008,0.076640625,-8.114625549,0.1115180969,8.115753685
10.64672208,0.3549119568,-8.082442474,0.8541238403,8.135193076
10.65680508,0.8165519714,-7.882009277,1.516197052,8.067941551
10.66688708,0.9542655945,-7.537575531,1.64747406,7.774306303
10.67696908,0.5450166321,-7.311246185,1.059796143,7.407734591
10.68705208,0.06242019653,-7.397766266,-0.2327659607,7.401690482
10.69713408,-0.05553451538,-7.754923553,-1.453776855,7.890208524
10.70721608,0.1851649475,-8.319250031,-1.431323547,8.44351196
10.71729808,0.7206015015,-9.322164459,0.1821711731,9.351748663
10.72738108,1.1864328,-10.42357407,2.397115173,10.7612583
10.73746308,1.370250549,-11.11558502,3.851041718,11.84332467
10.74754508,1.244362335,-11.47648453,4.089046783,12.24656843
10.75762808,0.3927832031,-11.93078979,3.209924927,12.36129612
10.76771008,-0.3948788452,-12.81290543,1.960173798,12.96798967
10.77779208,-1.4730867,-13.27274918,1.346000977,13.42190649
10.78787508,-3.108435974,-13.16796707,1.654359741,13.63065065
10.79795708,-4.225562897,-13.15195038,2.714754639,14.07831926
10.80803908,-4.363426208,-13.09701462,3.999532928,14.37245782
10.81812208,-3.748504944,-12.52011429,4.557722168,13.84114816
10.82820408,-2.953208771,-12.40530304,4.208049316,13.42835301
10.83828608,-3.263513489,-11.93034073,3.457061005,12.84269524
10.84836808,-3.88232666,-11.92330536,3.811074829,13.10579881
10.85845108,-4.039799194,-13.40133179,5.21395752,14.93656668
10.86853308,-2.899769897,-14.93908401,4.863087158,15.97606063
10.87861508,-0.5998027039,-17.2139035,1.490600281,17.2887283
10.88869808,1.292113037,-19.97221756,-5.868546295,20.85662643
10.89878008,3.478915558,-21.19741974,-10.42192749,23.87572051
10.90886208,5.823789368,-19.6505365,-8.921747131,22.35302394
10.91894508,7.780520325,-17.48888168,-5.049150238,19.79624705
10.92902708,8.702453156,-15.62331116,-0.1079255676,17.88385278
10.93910908,8.203840027,-14.66635117,4.351151733,17.35907167
10.94919208,8.110733643,-14.14558411,5.145400085,17.09844121
10.95927408,7.522307281,-12.81574951,2.394121399,15.05192213
10.96935608,5.863007812,-11.00167191,-0.4812492371,12.47570624
10.97943808,2.967728577,-9.953252106,-1.58894577,10.50711136
10.98952108,-0.03847000122,-9.29986084,-1.864822083,9.485064733
10.99960308,-1.494941254,-8.722361755,-1.359023895,8.953289334
11.00968508,-1.880539398,-8.292755127,-1.053209839,8.568282616
11.01976808,-1.514999542,-8.384364624,-0.9226812744,8.569955338
11.02985008,-0.7050338745,-8.582851868,-1.102307739,8.682021729
11.03993208,0.3121009827,-8.646020508,-1.536704407,8.787066523
11.05001508,0.9912387085,-8.180189209,-1.522783356,8.379553617
11.06009708,1.197958832,-7.353308716,-1.586401062,7.61727791
11.07017963,1.280137939,-6.560557251,-1.999242554,6.976864294
11.08026263,1.412612457,-5.310357056,-2.088756409,5.878628186
11.09034463,1.435963898,-3.990401917,-2.01136734,4.693708379
11.10042662,1.278641052,-2.712060242,-2.028731232,3.620213268
11.11050862,1.114881592,-1.559457092,-2.328408051,3.016015822
11.12059162,1.181493073,-0.6487509155,-2.65487915,2.977446378
11.13067362,1.671573944,-0.09610015869,-2.893482971,3.342998414
11.14075563,1.803000641,0.2251318359,-2.752625885,3.298248765
11.15083863,1.984573059,-0.06601272583,-2.113305359,2.89981852
11.16092062,2.658172302,-0.7201524353,-1.556313629,3.163322878
11.17100262,3.132236481,-1.200653229,-0.8566685486,3.462131504
11.18108562,3.470233612,-1.827250214,0.1703457642,3.925605984
11.19116762,3.57112381,-2.960393829,1.105002136,4.76842601
11.20124962,3.430416412,-4.812791748,2.081870728,6.26617163
11.21133163,3.227288818,-7.793842621,3.922293549,9.302890013
11.22141463,2.762205963,-12.09245361,8.634644165,15.11338136
11.23149662,1.148112488,-17.84529053,18.50541779,25.73369472
11.24157862,0.3483256531,-25.8494458,25.82235214,36.53914407
11.25166162,-0.7726931763,-34.98854095,29.10742081,45.51963311
11.26174362,-4.483177185,-34.76954636,21.13440079,40.93510875
11.27182563,-5.588778076,-21.05671234,5.720653839,22.5243303
11.28190862,-4.773423615,-9.97375946,2.600991211,11.3589879
11.29199063,-4.646038513,-2.914589081,4.406237183,7.03529882
11.30207262,-3.441044312,0.5604345703,1.824855194,3.935094578
11.31215562,0.9292675781,-1.590742035,-5.513185272,5.812848725
11.32223762,7.221432953,-8.878786469,-12.30516129,16.80472961
11.33231962,11.36736145,-14.63656311,-17.51238281,25.49763593
11.34240163,13.11512695,-15.5590947,-15.15463577,25.37232682
11.35248463,12.60633499,-13.59038864,-8.005053406,20.19156322
11.36256663,10.24589355,-13.16976334,15.42392578,22.72264262
11.37264862,3.424578552,-13.96895142,27.90961166,31.39754393
11.38273162,1.282532959,-7.688012695,-4.480033722,8.990057405
11.39281362,-1.864822083,-3.371738434,-12.09724365,12.69604212
11.40289562,-2.883004761,-2.768941956,-6.953939209,8.020974163
11.41297862,0.07334747314,-5.273234253,-4.553381195,6.967471539
11.42306063,2.24652832,-7.586374054,-7.791746979,11.1045613
11.43314262,2.71580246,-8.778794403,-8.992250519,12.85703634
11.44322462,2.877765656,-9.898615723,-6.927294617,12.41980431
11.45330762,2.308349762,-11.44699585,-3.808380432,12.28275027
11.46338962,0.7008425903,-13.16257828,-0.9196875,13.2132688
11.47347162,-0.9548643494,-14.41038345,0.7107220459,14.45946206
11.48355462,-2.162403259,-14.61261292,1.86392395,14.88887694
11.49363663,-2.753374329,-13.7740567,2.431543579,14.25545904
11.50371862,-2.375859375,-11.86283112,2.113754425,12.28167039
11.51380162,-1.162632294,-9.776320038,1.445843353,9.950809532
11.52388362,0.2573149109,-8.090076599,0.570763092,8.114266501
11.53396562,1.769620056,-6.765630798,-0.5650749207,7.01602629
11.54404862,2.910098419,-6.155499573,-1.566941528,6.986712643
11.55413063,2.817141724,-6.088588715,-1.841320953,6.956842882
11.56421263,2.270328827,-6.73269928,-0.6530918884,7.135135709
11.57429462,1.288071442,-8.013136597,0.6105802917,8.138936936
11.58437762,0.4195774841,-8.701105957,1.037492523,8.772780681
11.59445962,-0.2478845215,-8.918603668,1.664837952,9.076046691
11.60454162,-0.8949888611,-9.112151184,2.254162445,9.429398315
11.61462462,-1.205293579,-8.713230743,2.315684509,9.095906626
11.62470663,-1.278790741,-8.083639984,1.40288269,8.303530634
11.63478863,-1.011296997,-7.707771606,-0.09744735718,7.774442793
11.64487163,-0.5355862427,-7.583979034,-1.85105072,7.824958747
11.65495362,0.1369651794,-7.461982727,-2.918480988,8.013580782
11.66503562,0.597557373,-7.456893311,-2.219584351,7.803133175
11.67511862,0.7942483521,-7.74594223,-0.433049469,7.798588547
11.68520062,0.7223977661,-8.468489685,1.026265869,8.560981119
11.69528263,0.5126838684,-9.661508789,1.925446014,9.86483346
11.70536462,0.4179309082,-11.00032471,2.703827362,11.33545289
11.71544762,0.6090834045,-11.81582886,3.185076599,12.25273468
11.72552962,0.4040098572,-12.06101898,3.093916168,12.45807851
11.73561162,-0.2462379456,-12.49451752,2.512974243,12.74710323
11.74569462,-1.165326691,-13.16108139,1.848506012,13.34125272
11.75577662,-2.512674866,-13.69666763,1.541344757,14.01028133
11.76585863,-3.855981445,-13.93542114,1.669627991,14.55514387
11.77594163,-4.276307373,-14.08241547,2.884801025,14.99744335
11.78602362,-3.362457733,-13.848452,4.807402954,15.03984268
11.79610562,-1.777104492,-12.88834854,5.497318268,14.12402693
11.80618762,-1.080602875,-11.86253174,4.240831146,12.6440504
11.81627062,-1.821711731,-10.92368408,2.531685333,11.36023495
11.82635263,-1.996099091,-10.9353598,3.74311615,11.72934031
11.83643463,-2.485581207,-12.17807556,5.748346252,13.69405429
11.84651763,-1.827100525,-13.74651398,4.754562836,14.65983665
11.85659962,-0.6689588928,-15.83766541,-2.234403534,16.00848871
11.86668162,0.705333252,-19.22377396,-10.12090347,21.73668943
11.87676462,3.010838928,-21.31148254,-12.7269841,25.00441088
11.88684662,6.370452576,-20.7134761,-7.861501923,23.05285169
11.89692863,10.04650818,-19.72777588,0.4575984192,22.1433255
11.90701063,10.73298065,-17.66566406,6.302942963,21.6101747
11.91709363,9.961634674,-15.32872375,6.564449158,19.42410693
11.92717562,10.07300308,-14.0208934,3.093467102,17.53911006
11.93725762,9.038504333,-12.54630981,-1.035396881,15.49762876
11.94734062,6.375991058,-10.91380463,-2.957549744,12.98119771
11.95742262,2.496508484,-9.91418335,-1.950593719,10.4080931
11.96750463,-0.2188449097,-9.145531769,-0.7262896729,9.176935279
11.97758763,-1.650168457,-8.257129211,-0.9313632202,8.471757563
11.98766962,-2.114652557,-7.787106628,-1.360969849,8.183093792
11.99775162,-1.466500397,-7.823780365,-1.653461609,8.129950671
12.00783462,-0.189206543,-7.914641418,-1.715732117,8.100684205
12.01791662,0.9014254761,-7.514523468,-1.955832825,7.817027113
12.02799862,1.492695923,-6.753056946,-2.130519562,7.236783321
12.03808063,1.801653442,-6.114335175,-2.43723175,6.824305705
12.04816363,1.697619781,-5.641468506,-2.666405182,6.466668108
12.05824562,1.361269226,-4.568499756,-2.485730896,5.376160527
12.06832712,1.018482056,-3.341950378,-2.237397308,4.148720856
12.07841012,0.5414241028,-1.988914032,-2.406695251,3.168769654
12.08849212,0.3034190369,-0.795894928,-2.713108063,2.843671431
12.09857413,0.4176315308,0.1074765015,-3.209326172,3.238169509
12.10865713,0.2781216431,0.8717871094,-3.548520813,3.664609716
12.11873912,0.7845185852,1.04961731,-3.135679321,3.398477705
12.12882112,1.804497528,0.5532495117,-2.244432678,2.932537195
12.13890312,2.724933472,0.0007484436035,-1.201850739,2.978205531
12.14898612,3.452121277,-0.9153465271,-0.1224453735,3.57351276
12.15906812,3.675007782,-2.501747589,0.8283773804,4.52223753
12.16915013,3.572471008,-4.790787506,1.875449982,6.263505941
12.17923313,3.004402313,-8.461454315,4.800666962,10.18179973
12.18931512,2.140848083,-13.61987732,11.51226013,17.96152616
12.19939712,0.2646496582,-21.05401794,24.71555374,32.46845096
12.20948012,0.02185455322,-32.00404724,33.42234787,46.27432176
12.21956212,0.146844635,-39.94054321,28.99724991,49.35695552
12.22964413,-2.664159851,-31.48627396,12.64854721,34.0362886
12.23972613,-3.333118744,-16.61320267,4.019441528,17.41447942
12.24980913,-2.742297363,-7.523504791,2.683320007,8.445325656
12.25989112,-1.940265198,-1.452579346,2.193538513,3.268979505
12.26997312,0.1288819885,2.177372131,-0.53004776,2.24466269
12.28005612,4.088747406,0.3553610229,-4.941374359,6.423497284
12.29013812,8.332422638,-8.333620148,-8.541388092,14.55451141
12.30022013,9.242679749,-15.9996286,-15.34593796,24.01901447
12.31030313,8.704848175,-17.31584152,-17.18426514,25.90196359
12.32038513,7.918683014,-14.80152008,-9.628128204,19.35178002
12.33046712,6.666237488,-13.39534424,9.214687958,17.57226348
12.34055012,2.039658508,-12.71725433,25.22793823,28.32556499
12.35063212,1.013841705,-6.524931335,-1.620081024,6.799063646
12.36071412,-1.506766663,-2.896327057,-9.46721283,10.01434845
12.37079613,-2.570005646,-3.248245239,-5.860762482,7.176667961
12.38087913,-1.797462158,-5.863606567,-5.845045166,8.472148794
12.39096112,0.01616638184,-8.286617889,-9.335187378,12.48254865
12.40104312,1.860181732,-9.618697815,-9.336534576,13.53331082
12.41112612,2.7988797,-10.75513458,-5.901178436,12.58294697
12.42120812,2.110161896,-12.67489243,-2.080523529,13.01669157
12.43129013,0.4252656555,-14.48882034,0.2327659607,14.49692884
12.44137312,-0.8840615845,-15.08098892,0.9198371887,15.13485686
12.45145513,-1.286873932,-14.4867247,1.40288269,14.61127362
12.46153712,-1.046473846,-12.54571106,2.119891663,12.76651535
12.47161912,-0.001796264648,-10.25397675,2.258353729,10.49972399
12.48170212,1.565145264,-8.293653259,1.427581329,8.559927134
12.49178412,3.138373718,-6.887327728,0.8629554749,7.617700768
12.50186613,3.522774353,-6.032754822,-0.5989045715,7.011615831
12.51194913,2.950813751,-5.483546906,-1.745370483,6.467063212
12.52203113,2.428699493,-6.292315063,-0.6164181519,6.772870988
12.53211312,1.713786163,-7.70732254,0.5218148804,7.91278551
12.54219612,0.807121582,-8.211474152,1.185983734,8.335844913
12.55227812,0.02784210205,-8.104147339,1.674567719,8.275394632
12.56236012,-0.4590953064,-7.943381653,2.247426453,8.267950547
12.57244213,-0.9345066833,-7.641609192,2.458786926,8.081653725
12.58252513,-1.110241241,-7.33639389,1.516346741,7.573283196
12.59260712,-0.9647438049,-7.216792603,-0.569715271,7.303245961
12.60268912,-0.6917115784,-7.582781525,-3.071612549,8.210471619
12.61277212,0.1074765015,-8.160280609,-4.237238617,9.195429404
12.62285412,0.8587641907,-8.571176147,-3.290607147,9.221205555
12.63293612,0.8711883545,-9.104517059,-1.153052216,9.218499305
12.64301912,0.6186634827,-9.802665253,0.9791139221,9.870848729
12.65310113,0.7595205688,-10.67460205,2.619402924,11.01749845
12.66318312,1.33267868,-11.28608047,3.6190242,11.92681773
12.67326612,1.666334839,-11.85863983,3.904779968,12.59568645
12.68334812,1.36905304,-12.62414795,3.566034393,13.18939039
12.69343012,0.4014651489,-13.12126419,2.38693634,13.34264641
12.70351213,-1.405128021,-13.33337311,1.398092651,13.47990676
12.71359512,-3.419339447,-13.31406326,1.589394836,13.83771436
12.72367713,-4.394711151,-13.40297836,3.040926361,14.42915619
12.73375912,-4.104464722,-13.19820419,4.7364505,14.61072168
12.74384212,-2.80935791,-12.42596008,5.08866806,13.71829138
12.75392412,-1.69312912,-12.00398758,4.327201538,12.87194924
12.76400612,-1.811682587,-11.60476776,3.445235596,12.24019922
12.77408912,-1.90957901,-11.76912598,3.948339386,12.55978512
12.78417113,-2.099983063,-12.94163773,4.935237122,14.00901429
12.79425313,-1.394350433,-14.39406738,4.740192719,15.21850242
12.80433512,-0.1820214844,-16.42863647,-0.05703140259,16.42974378
12.81441812,0.6929090881,-19.40384949,-8.204289093,21.07842161
12.82450012,2.686912537,-21.03246277,-10.79225739,23.7919484
12.83458212,5.405559082,-19.85111938,-7.219936066,21.80400162
12.84466512,8.164172516,-18.26157486,-2.203867035,20.12450892
12.85474713,9.062155151,-16.6274231,1.465302887,18.99318213
12.86482912,8.984167328,-15.45700699,3.520379333,18.22161898
12.87491213,9.137298889,-14.54181015,3.36515213,17.50082062
12.88499412,8.890162811,-12.75317963,1.334924011,15.60322427
12.89507612,7.116650848,-10.85392914,-0.5026547241,12.98873199
12.90515812,3.200045471,-9.488917694,-1.107995911,10.0750933
12.91524112,0.2544708252,-8.504115601,-1.807940369,8.697895488
12.92532313,-1.848206635,-7.798482971,-1.921703796,8.241671548
12.93540512,-2.761307831,-7.439978485,-1.427880707,8.063308509
12.94548812,-2.087558899,-7.660619659,-1.370400238,8.057356423
12.95557012,-0.7851173401,-7.886499939,-1.810784454,8.12971284
12.96565212,0.2468367004,-7.912845154,-2.150278473,8.203520238
12.97573512,0.8933422852,-7.622149658,-2.166594543,7.974293559
12.98581713,1.514999542,-7.30480957,-2.257754974,7.794416206
12.99589913,1.688339081,-6.613547058,-2.447260895,7.251108841
13.00598112,1.560953979,-5.58129364,-2.444865875,6.290054465
13.01606412,1.654359741,-4.246369629,-2.144290924,5.036521096
13.02614612,1.386865997,-2.740501099,-2.033221893,3.683440624
13.03622812,1.019978943,-1.205742645,-2.265389099,2.761550315
13.04631112,0.9779164124,-0.08502319336,-2.474055176,2.661672118
13.05639313,0.9403445435,0.6508465576,-2.655777283,2.891539742
13.06647508,0.9116043091,0.9327104187,-2.481389923,2.803260083
13.07655808,1.469943237,0.6481521606,-1.846709747,2.447686915
13.08664008,2.404000854,0.03143463135,-1.055904236,2.62586024
13.09672208,3.362906799,-0.9113049316,-0.04610412598,3.484500597
13.10680408,3.869603119,-2.407743073,0.689765625,4.609428557
13.11688708,3.835923157,-4.454886017,1.39360199,6.041725117
13.12696908,3.602558441,-7.572602692,3.153192902,8.959093945
13.13705108,3.222199402,-12.07883194,7.54116806,14.59965636
13.14713408,1.697470093,-17.68048325,16.64373917,24.34121907
13.15721608,0.1860630798,-25.4288205,26.75161972,36.90946612
13.16729808,0.01841171265,-34.99886948,31.13450546,46.84312793
13.17738108,-2.169588318,-35.58295486,22.70912613,42.26769688
13.18746308,-4.0742276,-22.35002289,6.855743408,23.73023538
13.19754508,-3.686384125,-11.44998962,1.96226944,12.18778863
13.20762708,-3.749253387,-4.529880066,1.992805939,6.208702754
13.21771008,-2.370320892,0.05942642212,1.134191437,2.628372661
13.22779208,0.9372010803,0.7723937988,-4.287534027,4.45621881
13.23787408,6.658753052,-5.504802704,-9.744885406,13.02323449
13.24795708,10.26131149,-12.42506195,-15.75743225,22.53826411
13.25803908,12.21594681,-14.76035568,-14.99866013,24.33222682
13.26812108,12.07329346,-13.84186569,-9.315578156,20.59469973
13.27820408,9.309889984,-12.71725433,6.638994141,17.10201311
13.28828608,1.12790451,-13.45417191,29.33509735,32.29295352
13.29836808,-1.027164001,-8.826245728,-1.861828308,9.078771072
13.30845008,-3.174149323,-4.874762878,-10.4204306,11.93414894
13.31853308,-3.566633148,-4.375251617,-3.966152344,6.898845059
13.32861508,-1.626517639,-6.410718842,-2.794239349,7.17987808
13.33869708,0.3444337463,-9.222471771,-7.714208221,12.02836766
13.34878008,2.030377808,-10.96110626,-9.351952515,14.55085222
13.35886208,2.093546448,-11.80430283,-8.095016327,14.46560719
13.36894408,2.161056061,-12.77683044,-5.71706131,14.16341588
13.37902708,2.172282715,-13.43605957,-3.340752869,14.01453312
13.38910908,2.07109314,-13.2446077,-1.611099701,13.50202585
13.39919108,2.185605011,-12.58013947,0.4337979126,12.77595237
13.40927308,2.095193024,-11.59473862,2.762355652,12.10200009
13.41935608,2.021995239,-10.27882507,4.095184021,11.24781053
13.42943808,2.081271973,-9.070238342,3.925886078,10.10017317
13.43952008,2.916535034,-7.719746704,2.708617401,8.685463373
13.44960308,3.185375977,-6.465055847,0.3073109436,7.213737397
13.45968508,2.090702362,-5.401517487,-1.466500397,5.974784593
13.46976708,1.382824402,-5.439089355,-1.489402771,5.806394489
13.47985008,0.7502398682,-6.15819397,-1.03554657,6.28956036
13.48993208,0.04939727783,-7.177424469,-0.6902146912,7.210704433
13.50001408,-0.3968247986,-8.167016602,-0.3673361206,8.18489865
13.51009608,-0.5409750366,-8.863967285,-0.04161346436,8.880557511
13.52017908,-0.6828799438,-9.285640411,0.7340734863,9.339609561
13.53026108,-0.5801934814,-9.285939789,1.225800934,9.38444938
13.54034308,-0.5369334412,-8.80259491,1.175655212,8.896973634
13.55042608,-0.2600093079,-8.233029327,0.4629872131,8.250135387
13.56050808,-0.0513432312,-7.713459778,-0.7605683899,7.751036198
13.57059008,-0.1440005493,-7.556136932,-1.762584686,7.76032514
13.58067308,-0.2369572449,-8.056546326,-1.713935852,8.24024657
13.59075508,-0.3022215271,-9.085506592,-0.8174501038,9.127211653
13.60083708,-0.1266366577,-10.20428009,0.1652563477,10.20640381
13.61092008,0.2287243652,-11.00661163,0.8551716614,11.04215256
13.62100208,0.7262896729,-11.30314499,1.835932159,11.47428561
13.63108408,0.9542655945,-11.41735748,2.70292923,11.77168217
13.64116608,0.8502319336,-11.98018707,2.82462616,12.33800185
13.65124908,-0.0007484436035,-12.87442749,2.240241394,13.06788297
13.66133108,-1.525627441,-13.60655502,1.766626282,13.80531952
13.67141308,-3.317551117,-14.10007874,1.50003067,14.56257044
13.68149608,-4.314178619,-14.39047485,2.140399017,15.17495343
13.69157808,-4.184398499,-14.35814209,3.671564941,15.39953974
13.70166008,-3.195255432,-13.87015686,5.085973663,15.11482837
13.71174308,-2.381996613,-13.2790361,5.446274414,14.54883544
13.72182508,-2.706970825,-12.67683838,4.330644379,13.66690905
13.73190708,-3.798500977,-12.03647003,3.10304718,12.997466
13.74198908,-3.660338287,-11.64159119,3.148103485,12.60298684
13.75207208,-3.097808075,-12.19289474,4.054917755,13.21761912
13.76215408,-0.6494993591,-13.66268829,3.593427429,14.14226366
13.77223608,1.611698456,-15.8855658,-0.6268963623,15.97941712
13.78231908,3.046764221,-18.8516478,-6.430328064,20.14985151
13.79240108,4.936883698,-20.41784088,-9.949958954,23.24355244
13.80248308,6.810238037,-19.63871109,-9.091643829,22.68735998
13.81256508,8.444389801,-17.77299088,-4.656217346,20.22046695
13.82264808,8.125403137,-14.99731293,1.246457977,17.10249188
13.83273008,6.813830566,-13.07905197,5.113815765,15.60900378
13.84281208,6.664890289,-12.15262848,4.944368134,14.71577106
13.85289508,6.403384094,-10.93640762,1.580563202,12.77131628
13.86297708,5.256918182,-9.992021484,-1.20170105,11.3542841
13.87305908,3.092419281,-9.188492432,-2.014211426,9.901944145
13.88314208,1.078357544,-8.416847076,-2.328408051,8.799298481
13.89322408,0.03263214111,-7.916587372,-2.566263428,8.322206946
13.90330608,-0.422870636,-7.458689575,-1.445693665,7.609264086
13.91338808,-0.3176394653,-7.18086731,-0.9045689392,7.244583847
13.92347108,0.9021739197,-6.980284424,-1.044827271,7.115472749
13.93355308,2.16120575,-6.591991882,-1.225651245,7.044670911
13.94363508,2.555934906,-6.024072876,-1.484463043,6.710133217
13.95371808,2.635269928,-5.821993103,-1.698368225,6.612465948
13.96380008,2.586471405,-5.677693176,-1.830094299,6.501944269
13.97388208,2.220183105,-5.29344223,-2.022743683,6.086151138
13.98396508,1.573078766,-4.733606415,-2.107617188,5.415132196
13.99404708,1.065035248,-3.955075378,-2.230811005,4.664058219
14.00412908,0.8408015442,-3.105741577,-2.35071167,3.984773938
14.01421108,0.9644444275,-2.38693634,-2.449655914,3.553650552
14.02429408,1.315464478,-1.75749527,-2.468067627,3.303118863
14.03437608,1.684297485,-1.505269775,-2.112407227,3.092726856
14.04445808,2.34951416,-1.865420837,-1.428180084,3.322605911
14.05454108,2.913241882,-2.3927742,-0.7313790894,3.840216402
14.06462308,3.302881622,-2.792892151,0.09744735718,4.326519336
14.07470458,3.538042603,-3.472179565,0.942739563,5.046041446
14.08478758,3.559148712,-4.74004303,1.769769745,6.186083772
14.09486958,3.185675354,-6.766977997,2.946772156,8.038904453
14.10495158,2.66071701,-10.01252884,5.590125275,11.77198579
14.11503358,1.824256439,-14.36966812,10.99882782,18.18761905
14.12511658,0.520916748,-20.17100418,19.74528946,28.2314934
14.13519858,-0.5281018066,-28.17096817,29.19588684,40.57440262
14.14528058,-1.427581329,-32.93196762,25.89599899,41.91843561
14.15536358,-3.445834351,-25.69451797,13.19820419,29.09079962
14.16544558,-3.892206116,-14.97860184,7.441175995,17.17203778
14.17552758,-2.831212463,-8.314160614,5.029840393,10.1212808
14.18561058,-0.8738827515,-3.704646149,0.6646179199,3.863908789
14.19569258,1.870360565,-1.063388672,-5.8445961,6.228029197
14.20577458,6.145470428,-3.00245636,-10.41219772,12.45774508
14.21585658,9.576934662,-8.580007782,-12.56981094,17.98150044
14.22593958,10.52147049,-13.36241272,-15.17619095,22.79412614
14.23602158,11.09148514,-14.27521454,-14.71589813,23.31009332
14.24610358,10.95437027,-12.33045868,-7.788603516,18.24008728
14.25618658,8.509205017,-10.76336746,8.239316254,16.00446755
14.26626858,1.340013428,-11.7091008,35.48386093,37.38987917
14.27635058,-0.33230896,-8.694819031,1.764380951,8.878251369
14.28643358,-1.784139862,-6.144572296,-12.31219666,13.87548595
14.29651558,-2.602787476,-5.90656723,-8.513096924,10.68339171
14.30659758,-0.6842271423,-6.878196716,-5.488935699,8.826447301
14.31668058,0.5242098999,-8.336314545,-7.486082611,11.21652215
14.32676258,1.147962799,-9.860894165,-8.729846191,13.2198815
14.33684458,0.9434880066,-10.90212891,-7.592810669,13.31905996
14.34692658,0.6201603699,-12.07508972,-4.350552979,12.84989112
14.35700958,-0.1842668152,-13.11168411,-1.283730469,13.17566615
14.36709158,-1.207688599,-13.84411102,0.7333250427,13.91602269
14.37717358,-1.913171539,-13.49024689,1.827100525,13.74719181
14.38725658,-1.43805954,-11.9466568,2.071242828,12.20985957
14.39733858,-0.4424798584,-9.867031403,1.608105927,10.00700264
14.40742058,0.7414082336,-7.81030838,1.070274353,7.918086281
14.41750258,2.199975128,-6.517297211,0.07694000244,6.87902415
14.42758558,2.9966185,-6.308780823,-1.234632568,7.092584542
14.43766758,2.812201996,-6.520740051,-1.723066864,7.30735864
14.44774958,2.448009338,-7.131020966,-0.3270698547,7.546600852
14.45783258,1.698667603,-8.177644501,0.8978329468,8.400324113
14.46791458,0.8137078857,-9.019493866,1.239272919,9.140524465
14.47799658,0.233664093,-9.225615234,1.553619232,9.35843513
14.48807958,-0.2624043274,-8.989705811,1.987566833,9.210542248
14.49816158,-0.4134402466,-8.650660858,2.402953033,8.987716584
14.50824358,-0.2956352234,-8.356522522,2.455793152,8.714917604
14.51832558,-0.100740509,-8.268206177,1.379082184,8.383033443
14.52840858,-0.2776725769,-8.38017334,-0.4833448792,8.398692133
14.53849058,-0.8240364075,-8.452323303,-2.326462097,8.805295629
14.54857258,-1.204545135,-8.379574585,-3.303181,9.087310049
14.55865558,-1.333576813,-8.377928009,-2.697989502,8.902092574
14.56873758,-1.174906769,-8.621321869,-0.8044271851,8.738117634
14.57881958,-0.3180885315,-9.368418274,1.378483429,9.474632332
14.58890258,0.4098477173,-10.2559227,2.620151367,10.59325817
14.59898458,0.4989125061,-10.51233948,2.577639771,10.83523981
14.60906658,0.07080276489,-10.4681813,1.395997009,10.56109088
14.61914858,-0.2775228882,-11.18818405,0.1722917175,11.19295161
14.62923158,-0.5132826233,-12.14559311,-0.6442602539,12.17349425
14.63931358,-0.9358538818,-12.89658142,-0.6695576477,12.94781612
14.64939558,-1.423539734,-13.28816711,0.5837860107,13.37694497
14.65947858,-1.342258759,-13.30568069,2.641706543,13.63163273
14.66956058,-0.5149291992,-13.16961365,4.803361359,14.02769247
14.67964258,0.5135820007,-13.14117279,6.24127121,14.5570483
14.68972558,0.7000941467,-13.21422089,5.870941315,14.47666113
14.69980758,-0.4854405212,-13.02725967,4.271816711,13.71836598
14.70988958,-2.262245636,-12.95840286,4.25565033,13.82564717
14.71997158,-3.187621307,-12.36563553,4.577930145,13.56566681
14.73005458,-4.038302307,-11.99889816,4.326153717,13.37897786
14.74013658,-3.088078308,-13.25179276,4.858746185,14.44830971
14.75021858,-1.826352081,-15.05164993,4.161795502,15.72285818
14.76030158,-0.5906716919,-17.47061966,0.1166075134,17.48099087
14.77038358,1.354084167,-19.79708176,-6.934779053,21.02020815
14.78046558,4.037104797,-20.17489609,-11.55971146,23.59982153
14.79054758,5.347180481,-18.54553436,-9.754914551,21.62608475
14.80063058,6.145021362,-16.0380986,-4.364174652,17.72083279
14.81071258,6.966363373,-13.91371628,2.038910065,15.69327479
14.82079458,6.215674438,-12.15577194,5.682632904,14.78816138
14.83087758,5.529501343,-10.99448685,3.724554749,12.85793273
14.84095958,5.340893555,-10.57386154,0.5269042969,11.85788008
14.85104158,4.74588089,-9.889185333,-0.53004776,10.98181782
14.86112458,3.349734192,-8.804091797,-0.9499246216,9.467581967
14.87120658,2.278412018,-8.213569794,-1.676513672,8.687035638
14.88128858,1.776056671,-7.888296204,-1.49539032,8.222881886
14.89137058,1.477577362,-7.800728302,-1.202299805,8.029951539
14.90145358,1.994302826,-7.82318161,-1.040635986,8.140168151
14.91153558,2.648442535,-7.849526825,-0.959355011,8.339645153
14.92161758,2.607128448,-7.809410248,-1.350192261,8.343082542
14.93170058,2.196083221,-7.607629852,-1.64043869,8.086399235
14.94178258,2.092199249,-7.090006256,-1.89431076,7.63111392
14.95186458,1.584455109,-6.191424866,-2.251318359,6.775889183
14.96194758,1.07416626,-5.26889328,-2.588117981,5.967698403
14.97202958,0.5474116516,-4.343667297,-2.653531952,5.119407869
14.98211158,0.3972738647,-3.392395477,-2.543211365,4.258414922
14.99219358,0.359103241,-2.363435211,-2.320474548,3.331573692
15.00227658,0.6312373352,-1.576820984,-2.052980804,2.664499047
15.01235858,1.294358368,-1.202299805,-1.679357758,2.437443514
15.02244058,1.74926239,-1.099763031,-1.26022934,2.420242885
15.03252358,2.179467773,-1.328487396,-0.8270301819,2.683083573
15.04260558,2.50399292,-1.533111877,-0.2291734314,2.944984386
15.05268758,2.719844055,-2.073488159,0.7649093628,3.504567186
15.06277058,2.793790283,-3.135978699,2.278861084,4.77837152
15.07285283,2.807561646,-4.753664703,3.992497559,6.813205359
15.08293483,2.493814087,-7.096143494,6.049070892,9.65223393
15.09301683,1.884580994,-10.57475967,9.719288635,14.48591589
15.10309983,1.15020813,-15.7462056,16.76034668,23.02553344
15.11318183,0.4822970581,-23.50112915,24.83485565,34.19511277
15.12326383,0.9354048157,-31.97994736,26.00691833,41.23047194
15.13334683,0.4237687683,-32.26779877,13.78977402,35.09342224
15.14342883,-3.015628967,-21.35908356,5.991740112,22.38761752
15.15351083,-3.214714966,-11.53276749,7.069199524,13.90369376
15.16359283,-2.311343536,-5.386847992,6.595285034,8.823730782
15.17367583,-1.497785339,-1.257235565,3.397484894,3.920064514
15.18375783,0.7643106079,-0.6626719666,-3.38266571,3.530684374
15.19383983,5.855373688,-4.869374084,-8.549321594,11.4493277
15.20392283,8.791068878,-10.05668701,-12.78446457,18.48952082
15.21400483,9.924511871,-12.33824249,-14.63312027,21.56052811
15.22408683,11.16857483,-12.46383133,-11.34086655,20.21631542
15.23416983,11.15450409,-12.00952606,-4.293671265,16.94365045
15.24425183,6.75844574,-13.33097809,27.54586807,31.33953435
15.25433383,0.8922944641,-12.22882004,15.27333893,19.58609484
15.26441583,-1.789229279,-7.513625336,-10.04052063,12.66759494
15.27449883,-5.1717453,-5.632038116,-10.92069031,13.33147702
15.28458083,-3.605851593,-5.613925781,-4.868026886,8.259298648
15.29466283,-0.5472619629,-6.852300568,-5.337600403,8.703073985
15.30474583,1.751956787,-8.678353271,-7.204967194,11.41467128
15.31482783,2.227218475,-10.14081207,-7.242089996,12.65876926
15.32490983,1.975591736,-11.44475052,-5.913003845,13.03260878
15.33499283,1.411414948,-12.622202,-3.046764221,13.06119625
15.34507483,0.3736230469,-13.17679871,-0.149539032,13.18294278
15.35515683,-0.6020480347,-12.94612839,1.625020752,13.0616
15.36523883,-0.827479248,-12.4177272,3.02236496,12.80700436
15.37532183,-0.6960525513,-11.32380203,3.497626648,11.8720838
15.38540383,-0.1239422607,-9.791588287,2.826272736,10.19207439
15.39548583,0.7385641479,-8.447383575,1.830393677,8.674912523
15.40556883,1.481918335,-7.34582428,0.314046936,7.500389442
15.41565083,1.669178925,-6.483317871,-1.752555542,6.920333795
15.42573283,1.475032654,-6.266568604,-2.460134125,6.891869362
15.43581583,1.121318207,-6.56998764,-1.632505188,6.862008839
15.44589783,0.916993103,-7.248825989,-0.646355896,7.335129891
15.45597983,0.6282435608,-8.08992691,-0.232616272,8.117617737
15.46606183,0.4843927002,-8.559051361,0.1546284485,8.574141732
15.47614483,0.3445834351,-8.681047668,1.021176453,8.747692708
15.48622683,0.1841171265,-8.458161163,1.482666779,8.589102989
15.49630883,-0.02395019531,-8.089178467,0.9880952454,8.149338261
15.50639183,-0.03053649902,-7.580685883,-0.2426454163,7.584629703
15.51647383,0.007634124756,-7.438930664,-1.963317261,7.693657282
15.52655583,0.05777984619,-7.861950989,-3.082240448,8.444750916
15.53663783,0.383203125,-8.555458832,-2.552192688,8.936241267
15.54672083,0.6107299805,-9.57828186,-0.7191046143,9.624634328
15.55680283,1.097817078,-10.50515442,1.397344208,10.65439076
15.56688483,1.551074524,-11.4330748,2.764600983,11.86440264
15.57696783,1.518442383,-12.06296494,2.898722076,12.49893515
15.58704983,0.7682025146,-11.93543015,1.949695587,12.11800069
15.59713183,-0.1043330383,-11.88049438,1.154100037,11.93687476
15.60721483,-1.105301514,-12.65363663,1.01324295,12.74216907
15.61729683,-2.176773376,-13.24221268,1.336570587,13.48632492
15.62737883,-3.147055664,-13.34220474,1.882036285,13.83692333
15.63746083,-3.300636292,-13.46524887,3.178190918,14.22350254
15.64754383,-2.490670624,-13.5391951,4.828359375,14.58856738
15.65762583,-1.221759338,-13.22948914,5.124443665,14.23980342
15.66770783,-0.3876937866,-13.24894867,4.439168701,13.97823902
15.67779083,-0.5891748047,-13.07306442,4.062402191,13.70238125
15.68787283,-0.7855664063,-12.25486588,4.224515076,12.9863536
15.69795483,-1.344803467,-12.02718933,4.953798523,13.07676945
15.70803783,-1.380279694,-12.63747025,4.62418396,13.52752392
15.71811983,-0.1868115234,-14.09603714,2.638114014,14.34199453
15.72820183,0.8165519714,-16.27221176,-2.586770782,16.49675774
15.73828383,1.263073425,-18.82874542,-8.356073456,20.63833744
15.74836683,3.54657486,-19.63212479,-9.435778198,22.06881118
15.75844883,6.420149231,-18.05575287,-7.082671509,20.43019245
15.76853083,7.96014679,-15.9770256,-2.631078644,18.0430557
15.77861383,7.387737122,-14.39466614,2.008074188,16.30390858
15.78869583,7.216942291,-13.77914612,4.65457077,16.23619884
15.79877783,6.688391418,-12.69629791,3.820804596,14.8502225
15.80885983,5.26769577,-11.18863312,0.9241781616,12.40113846
15.81894283,3.407364349,-10.4550087,-0.7798782349,11.0238627
15.82902483,0.8228388977,-9.747280426,-0.8831634521,9.821736977
15.83910683,-1.003363495,-8.87504425,-1.070124664,8.99546083
15.84918983,-1.535656586,-8.051007843,-1.57023468,8.34521452
15.85927183,-1.032403107,-7.735913086,-1.271755371,7.907437586
15.86935383,0.2417472839,-7.658973083,-1.273252258,7.767849236
15.87943683,1.419498138,-7.537874908,-1.40063736,7.797199376
15.88951883,2.145787811,-7.57275238,-1.177002411,7.958411815
15.89960083,2.275567932,-7.433392181,-1.103954315,7.851894285
15.90968283,1.892963562,-6.97953598,-1.379830627,7.362144124
15.91976583,1.583706665,-6.563850403,-1.541494446,6.925926944
15.92984783,1.224154358,-5.810317383,-1.773661652,6.197113654
15.93992983,0.6647676086,-4.715194702,-1.966161346,5.151773238
15.95001283,0.5284011841,-3.560046844,-2.103276215,4.168562364
15.96009483,0.7394622803,-2.510728912,-2.307900696,3.489551512
15.97017683,1.190175018,-1.545086975,-2.5812323,3.235207956
15.98025983,1.687890015,-0.8318202209,-2.684068451,3.277975142
15.99034183,2.01960022,-0.4586462402,-2.336341553,3.122119996
16.00042383,2.524350586,-0.5968089294,-1.69432663,3.098268792
16.01050583,3.153941345,-0.8783734131,-1.123563538,3.461398689
16.02058883,3.676953735,-1.215023346,-0.2439926147,3.880180782
16.03067083,3.795058136,-2.032024384,0.756227417,4.370751567
16.04075283,3.522025909,-3.552113342,1.923050995,5.35913247
16.05083583,3.110381927,-6.001170502,3.432362366,7.58087294
16.06091783,2.82462616,-9.796228638,6.17570755,11.91989816
16.07099975,2.120041351,-14.73535767,12.06446182,19.16185221
16.08108175,1.399888916,-20.8475972,19.92311966,28.87061993
16.09116475,1.57727005,-28.57617554,27.28106873,39.53912366
16.10124675,-1.082099762,-33.88593384,26.46855835,43.01176622
16.11132875,-4.419559479,-27.34004608,12.04904388,30.20248474
16.12141175,-4.857249298,-15.52915695,5.310806122,17.11584786
16.13149375,-4.041894836,-7.921826477,5.212011566,10.3081188
16.14157575,-3.97124176,-3.507356415,4.456532593,6.92336572
16.15165875,-2.323168945,-2.287692719,-1.237626343,3.487459088
16.16174075,1.421893158,-5.043312378,-8.828640747,10.2665319
16.17182275,6.040838013,-10.34274216,-12.37716156,17.22376752
16.18190475,9.089847565,-13.59143646,-13.41345657,21.14883664
16.19198775,10.40022263,-12.97965866,-10.82084793,19.84255325
16.20206975,10.2957399,-10.85407883,-5.059628448,15.79281885
16.21215175,7.443121948,-8.771908722,6.690187683,13.30808244
16.22223475,0.7827223206,-8.920549622,27.78028061,29.18788876
16.23231675,0.7191046143,-6.932234344,1.373244324,7.103434692
16.24239875,-0.4180805969,-5.267246704,-10.68014053,11.91570732
16.25248075,-1.448687439,-5.445675659,-8.033494263,9.812803307
16.26256375,0.5628295898,-6.930587769,-5.464386749,8.843604837
16.27264575,2.368824005,-8.779542847,-6.100414124,10.95019416
16.28272775,3.050805817,-9.905501404,-6.261030121,12.10895835
16.29281075,2.976410522,-10.70648575,-5.173391876,12.25772573
16.30289275,1.934577026,-11.75400742,-2.819985809,12.24138875
16.31297475,0.2842588806,-12.88879761,-0.1065783691,12.89237239
16.32305775,-1.070424042,-13.67122055,1.591041412,13.80505312
16.33313975,-2.261347504,-13.66283798,2.596051483,14.08993675
16.34322175,-2.868335266,-12.46667542,2.333946533,13.00356295
16.35330375,-2.071691895,-10.7018454,0.972228241,10.94379413
16.36338675,-0.6050418091,-8.626860352,-0.7050338745,8.67674293
16.37346875,1.093027039,-7.122189331,-1.572030945,7.375064086
16.38355075,2.154320068,-6.309379578,-2.359692993,7.072306316
16.39363375,2.420017548,-6.186784515,-1.920506287,6.915282494
16.40371575,2.188598785,-6.96546524,-0.1338217163,7.302436505
16.41379775,1.856140137,-7.910749512,1.257534943,8.22232377
16.42388075,1.238973541,-8.784632263,1.557810516,9.007307758
16.43396275,0.6899153137,-9.027127991,1.43222168,9.166039594
16.44404475,0.4465214539,-8.695417786,1.478325806,8.831484533
16.45412675,0.3918850708,-8.340056763,1.552870789,8.492439485
16.46420975,0.5858816528,-7.888146515,1.157692566,7.99414566
16.47429175,0.8791218567,-7.552544403,0.05658233643,7.603748007
16.48437375,0.8878038025,-7.603288879,-1.522483978,7.804880194
16.49445675,0.8442443848,-7.739056549,-2.630779266,8.217465814
16.50453875,0.5671705627,-8.114176483,-2.731968842,8.580512584
16.51462075,0.3375480652,-8.726852417,-1.685644684,8.894565184
16.52470275,0.273331604,-9.569300537,-0.07140151978,9.573469649
16.53478575,0.673150177,-10.69795349,1.625320129,10.84163298
16.54486775,1.037642212,-11.62527512,2.634521484,11.96513378
16.55494975,1.090182953,-11.89381668,2.827170868,12.27372271
16.56503275,0.724044342,-12.13481552,2.671494598,12.44648028
16.57511475,-0.01856140137,-12.50888763,2.169887695,12.695709
16.58519675,-1.10575058,-12.61486725,1.233734436,12.72319381
16.59527975,-2.500999146,-12.48164429,0.5610333252,12.74210341
16.60536175,-3.304827576,-12.76440628,1.441951447,13.26390504
16.61544375,-3.023712158,-13.40956467,3.42832077,14.16730896
16.62552575,-1.97394516,-13.56868378,4.631967773,14.47275939
16.63560875,-1.488504639,-13.3294812,4.5493396,14.16288127
16.64569075,-1.809287567,-13.54862549,3.980971527,14.23681525
16.65577275,-2.40684494,-13.14341812,3.98995285,13.94496562
16.66585575,-2.35894455,-12.64330811,4.710853729,13.69708006
16.67593775,-2.0570224,-12.96274384,5.246739349,14.13479192
16.68601975,-0.6683601379,-13.37124435,3.749702454,13.90313452
16.69610175,0.9283694458,-14.63132401,0.7581733704,14.68033851
16.70618475,1.703906708,-16.55078247,-5.030439148,17.38208896
16.71626675,2.116299133,-18.62621658,-9.486372986,21.00966298
16.72634875,4.150119781,-18.66827911,-8.874295807,21.08272433
16.73643175,6.632707214,-17.38394989,-4.849914551,19.22800535
16.74651375,7.624394989,-15.51508621,0.03562591553,17.287295
16.75659575,7.473808136,-14.17118088,4.087699585,16.53449314
16.76667875,7.500452728,-13.44863342,4.919669495,16.16557082
16.77676075,6.7841922,-12.02614151,1.79491745,13.9239029
16.78684275,5.167554016,-10.60843964,-1.469344482,11.8912396
16.79692475,3.05155426,-9.767488403,-1.599423981,10.35731482
16.80700775,0.5517526245,-8.7814888,-1.07536377,8.864275703
16.81708975,-0.6899153137,-8.105644226,-1.0683284,8.204802071
16.82717175,-0.6634204102,-7.478598175,-1.196162567,7.602654944
16.83725475,-0.4975653076,-7.216343536,-0.995280304,7.301627774
16.84733675,0.1681004333,-7.161557465,-1.071920929,7.243284997
16.85741875,1.091081085,-6.995702362,-1.597777405,7.25831951
16.86750075,1.726509705,-6.941365356,-1.578916626,7.325050613
16.87758375,1.638043671,-6.784491577,-1.583257599,7.156760276
16.88766575,1.60541153,-6.452032928,-1.828597412,6.895639462
16.89774775,1.455124054,-5.771847382,-1.960024109,6.266841526
16.90783075,1.025816803,-4.784949646,-1.97394516,5.276789054
16.91791275,0.8849597168,-3.846401367,-1.980082397,4.415731364
16.92799475,0.9740245056,-2.775977325,-2.121238861,3.626903384
16.93807775,1.142274628,-1.82650177,-2.370919647,3.203460631
16.94815975,1.560355225,-1.062041473,-2.596350861,3.209934315
16.95824175,1.843416595,-0.6273454285,-2.556084595,3.213302894
16.96832375,2.008523254,-0.5996530151,-2.020348663,2.911281182
16.97840675,2.50399292,-1.205892334,-1.265917511,3.053965293
16.98848875,2.656974792,-1.945354614,-0.5770500183,3.343188051
16.99857075,2.63272522,-2.565814362,0.456101532,3.704412778
17.00865375,2.720143433,-3.454815674,1.850751343,4.770766413
17.01873575,2.911744995,-5.05244339,3.540287933,6.821955861
17.02881775,2.777324524,-7.65118927,5.581443329,9.869485214
17.03890075,2.150428162,-11.77256882,9.503287811,15.28169484
17.04898275,1.353335724,-17.41388763,18.26681396,25.27353344
17.05906475,0.7385641479,-25.05399994,26.19866959,36.25767061
17.06914696,0.935255127,-33.29930374,27.42596741,43.14976269
17.07922996,-1.365759888,-33.81363419,18.46604965,38.55155181
17.08931196,-4.214785309,-22.11291595,7.137906647,23.61557068
17.09939396,-3.326682129,-11.47244293,4.503385162,12.76574474
17.10947696,-2.597398682,-4.76459198,4.165986786,6.841291
17.11955896,-1.082698517,-1.326541443,2.153272247,2.751096081
17.12964096,3.144361267,-3.433859253,-2.093995514,5.105214428
17.13972296,6.619534607,-9.605824585,-7.158114624,13.68680786
17.14980596,7.175029449,-14.86753281,-10.80483124,19.72990009
17.15988796,6.876849518,-14.75601471,-13.56868378,21.19292827
17.16996996,7.005731506,-11.30524063,-9.775122528,16.50580989
17.18005296,7.711513824,-8.930578766,-1.723216553,11.92443533
17.19013496,5.591023407,-7.367229767,19.6783786,21.74337144
17.20021696,4.212240601,-4.268673248,11.99141373,13.40740636
17.21029896,2.245031433,-1.71184021,-5.50525177,6.186950791
17.22038196,-1.191671906,-1.67322052,-8.466843109,8.71247273
17.23046396,-1.159339142,-4.862488403,-5.69011734,7.573988121
17.24054596,0.00419128418,-9.121431885,-6.464008026,11.1796215
17.25062896,0.8737330627,-11.78559174,-8.072563019,14.31187813
17.26071096,0.9410929871,-12.90002426,-7.260651398,14.83284668
17.27079296,0.1309776306,-13.63379837,-4.749922485,14.43812234
17.28087596,-0.6450086975,-14.416371,-1.632056122,14.52278886
17.29095796,-1.452878723,-14.54195984,0.6810836792,14.63021967
17.30103996,-1.579216003,-13.57122849,2.104922791,13.82399601
17.31112196,-0.9755213928,-12.22911942,3.011138306,12.63210028
17.32120496,-0.2165995789,-10.62924637,2.811004486,10.9967968
17.33128696,0.5767506409,-8.819060669,1.79611496,9.018564261
17.34136896,1.518143005,-7.194339294,0.2667453003,7.357610286
17.35145196,2.743943939,-6.354136505,-1.603615265,7.104636584
17.36153396,3.478765869,-5.932463379,-3.363355865,7.655592491
17.37161596,3.529510345,-6.339167633,-2.667453003,7.730316622
17.38169796,2.79768219,-7.17847229,-0.664019165,7.732943263
17.39178096,1.850751343,-8.212521973,0.2073188782,8.421031932
17.40186296,1.244811401,-8.667725372,0.9005273438,8.802838636
17.41194496,0.5918692017,-8.35442688,1.551373901,8.517835325
17.42202796,0.3626957703,-7.858657837,1.987716522,8.114250932
17.43210996,0.1850152588,-7.35630249,2.092947693,7.650480182
17.44219196,0.1272354126,-6.990163879,1.219364319,7.096860521
17.45227496,0.1933978271,-6.935377808,-0.9222322083,6.999098535
17.46235696,0.222437439,-7.476951599,-2.918630676,8.029488692
17.47243896,0.4688250732,-8.415499878,-3.227438507,9.025341792
17.48252096,0.7707472229,-9.432485046,-1.77740387,9.629381597
17.49260396,1.039588165,-10.31400192,0.5369334412,10.38015784
17.50268596,1.216669922,-11.12756012,2.470312958,11.46321622
17.51276796,1.066232758,-11.59878021,3.182232513,12.0745666
17.52285096,0.535436554,-11.59788208,2.96263916,11.9822699
17.53293296,-0.3131488037,-11.91686874,2.297123108,12.14028819
17.54301496,-1.348096619,-12.81006134,1.58430542,12.97786807
17.55309696,-2.685715027,-13.40657089,1.026864624,13.71144264
17.56317996,-3.975433044,-13.28427521,1.146765289,13.91370211
17.57326196,-4.348457336,-13.20973022,2.556234283,14.14002785
17.58334396,-3.856131134,-13.24266174,4.206552429,14.41987936
17.59342696,-3.006348267,-13.1344368,4.534370728,14.21661274
17.60350896,-2.54021759,-13.44354401,3.80164444,14.19979159
17.61359096,-2.721790009,-13.56823471,2.868634644,14.13273501
17.62367396,-2.394121399,-13.04761734,3.32653244,13.67618198
17.63375596,-1.855840759,-13.1887738,5.022355957,14.23418276
17.64383796,-0.592767334,-13.52736969,4.643194427,14.314341
17.65391996,1.483265533,-14.44975159,1.690883789,14.62376441
17.66400296,3.156486053,-16.12446899,-3.08673111,16.71794884
17.67408496,4.257745972,-17.7885585,-7.915838928,19.93042198
17.68416696,5.913153534,-18.21352478,-7.963290253,20.73913839
17.69424996,7.412735138,-17.22288483,-4.883594513,19.37591028
17.70433196,8.481213226,-15.62855026,-0.606688385,17.79186983
17.71441396,8.048463135,-14.27671143,3.157533875,16.69048436
17.72449596,7.717052307,-13.69082977,4.5586203,16.36376287
17.73457896,7.564818878,-12.92592041,2.92985733,15.26073285
17.74466096,6.712191925,-11.6812587,-0.4776567078,13.4808561
17.75474296,4.148772583,-10.85916824,-1.821262665,11.76651378
17.76482596,0.9484277344,-10.00384689,-1.736987915,10.19772498
17.77490796,-1.092727661,-9.426347809,-2.021097107,9.702315202
17.78498996,-1.82769928,-8.854836273,-1.806144104,9.22012834
17.79507296,-1.789678345,-8.402926025,-1.477427673,8.717505773
17.80515496,-0.5918692017,-8.190817108,-1.152902527,8.292706331
17.81523696,0.7622149658,-7.879763947,-1.484463043,8.054519355
17.82531896,1.402283936,-7.523055725,-1.664837952,7.831631572
17.83540196,1.877545624,-7.49207016,-1.536105652,7.875018313
17.84548396,2.002236328,-7.173532562,-1.638792114,7.625887445
17.85556596,1.933080139,-6.411916351,-1.67202301,6.90254526
17.86564896,1.605710907,-5.482349396,-1.728904724,5.968548731
17.87573096,1.164129181,-4.311484222,-1.761686554,4.800794983
17.88581296,0.7984396362,-2.986140289,-1.864971771,3.610077477
17.89589496,0.7453001404,-1.733994141,-2.023342438,2.766969931
17.90597796,0.9895921326,-0.7339237976,-2.344125366,2.648180595
17.91605996,1.169517975,-0.06316864014,-2.764002228,3.001911206
17.92614196,1.438807983,0.2481838989,-2.589614868,2.972855332
17.93622496,2.07812851,-0.02065704346,-1.836231537,2.773227555
17.94630696,2.552791443,-0.3972738647,-1.053359528,2.790006625
17.95638896,2.962040405,-1.065634003,0.0008981323242,3.147897711
17.96647196,3.001857605,-2.169588318,0.9624984741,3.826834967
17.97655396,2.5015979,-3.911965027,2.303410034,5.183354147
17.98663596,2.13066925,-6.877897339,4.695435791,8.59606541
17.99671796,1.668430481,-11.32874176,9.741592255,15.03405035
18.00680096,-0.3385958862,-17.28919693,20.310065,26.67451439
18.01688296,-1.740430756,-25.78627716,29.86409729,39.49462617
18.02696496,-1.268013153,-34.27766922,29.98309982,45.5582346
18.03704796,-2.634222107,-33.12940704,17.01272186,37.3353645
18.04712996,-3.956272888,-20.62545914,5.856421509,21.80273682
18.05721196,-2.720891876,-10.54601944,3.097808075,11.32334727
18.06729396,-1.08000412,-4.630321198,2.049388275,5.177477725
18.07737688,1.281485138,-1.944456482,0.1472937012,2.333411795
18.08745888,5.029541016,-4.504432983,-3.770209808,7.733090025
18.09754087,8.242609406,-11.24970612,-9.777367859,17.03212904
18.10762387,8.730145569,-15.49577637,-17.39487717,24.87802803
18.11770587,8.517288208,-13.88183258,-15.14355881,22.23908378
18.12778787,7.998616791,-10.64107178,-7.522307281,15.29036906
18.13786988,6.803651733,-9.624685364,10.96799194,16.10034448
18.14795288,3.507356415,-9.658065948,24.12787582,26.22468644
18.15803487,2.108964386,-5.590274963,-2.339934082,6.416712278
18.16811687,-0.9997709656,-3.774550781,-10.21445892,10.93535307
18.17819987,-1.689536591,-4.922214203,-6.96666275,8.69581028
18.18828187,-0.8975335693,-7.259603577,-5.611231384,9.219182624
18.19836387,0.3451821899,-8.922345886,-7.352260895,11.56646649
18.20844687,1.091829529,-9.798024902,-7.622449036,12.46174599
18.21852888,1.593586121,-10.72789124,-5.075944519,11.97465573
18.22861087,1.097368011,-11.96596664,-1.667083282,12.1312712
18.23869287,-0.0643661499,-13.2937056,0.5092410278,13.30361146
18.24877587,-1.012045441,-14.09139679,1.200204163,14.17858207
18.25885787,-1.551074524,-13.92913422,1.466650085,14.0917591
18.26893988,-1.529818726,-12.53822662,1.32803833,12.70083296
18.27902287,-0.4312532043,-10.48344955,0.9903405762,10.53895006
18.28910488,0.9596543884,-8.369994507,0.3841012573,8.4335804
18.29918687,2.712958374,-6.671326904,-0.563278656,7.223851372
18.30926887,3.611090698,-5.698200531,-1.851200409,6.995456259
18.31935187,3.379821625,-5.476062469,-1.970202942,6.729944578
18.32943387,2.983595581,-6.126909027,-0.7126679993,6.851915973
18.33951588,2.339934082,-7.236551514,0.3101550293,7.611778075
18.34959888,1.344803467,-8.473130035,0.5399272156,8.596159047
18.35968088,0.79215271,-9.115594025,0.6550378418,9.173365517
18.36976287,0.2600093079,-9.076525269,1.024619293,9.137875053
18.37984587,-0.1299298096,-8.733289032,1.483115845,8.85928054
18.38992787,-0.2703378296,-8.275091858,1.766626282,8.465884255
18.40000987,-0.3185375977,-7.874075775,0.8539741516,7.926651712
18.41009188,-0.3224295044,-7.754923553,-1.024319916,7.828922748
18.42017488,-0.1582209778,-7.945626984,-2.326911163,8.280853676
18.43025687,0.02424957275,-8.407865753,-2.129172363,8.673302112
18.44033887,-0.05284011841,-9.353898468,-0.9704319763,9.40425153
18.45042187,0.08202941895,-10.58284286,0.637224884,10.60232746
18.46050387,0.5800437927,-11.48456772,2.202669525,11.70826629
18.47058587,0.7930508423,-11.54653885,3.312611389,12.03847512
18.48066788,0.8171507263,-11.1769574,4.15146698,11.95101628
18.49075088,0.3061134338,-11.51869675,3.894750824,12.1631889
18.50083287,-0.4649331665,-12.48089584,2.616558838,12.76069371
18.51091487,-2.01600769,-13.0176796,1.327589264,13.23959072
18.52099787,-3.589535522,-13.23622513,1.352437592,13.78083845
18.53107987,-4.261338501,-13.70295456,2.517165527,14.56935454
18.54116188,-3.763174438,-13.91685974,4.067042542,14.97936253
18.55124388,-2.70876709,-13.00076477,4.738995209,14.10019076
18.56132688,-1.998793488,-12.41712845,4.350103912,13.30802985
18.57140887,-1.727108459,-11.88019501,3.404669952,12.47853014
18.58149087,-1.565744019,-12.60648468,5.252427521,13.74638153
18.59157387,-1.696871338,-13.87285126,6.771169281,15.53010328
18.60165587,-0.9650431824,-14.74194397,3.913312225,15.28300471
18.61173788,0.9991722107,-16.60856232,-1.252894592,16.68569544
18.62182088,1.828597412,-19.17123322,-8.511749725,21.05539919
18.63190288,3.33476532,-20.6618335,-11.00257004,23.64505383
18.64198487,5.554199982,-19.18186111,-7.515571289,21.33721503
18.65206687,7.955506439,-17.25851074,-3.005001068,19.2399664
18.66214987,8.832083588,-15.11781235,0.9081614685,17.53221914
18.67223187,7.939190369,-13.65191071,3.795956268,16.2423734
18.68231388,8.026159515,-13.09267365,4.469256134,15.99411111
18.69239688,7.77049118,-12.12822922,2.682272186,14.65158903
18.70247887,5.379513245,-10.7787854,0.3421884155,12.05149245
18.71256087,1.763482819,-9.720186768,-0.963097229,9.925696888
18.72264287,-1.712289276,-8.665779419,-1.957479401,9.04761809
18.73272587,-4.030817871,-8.123008118,-1.962568817,9.278061756
18.74280787,-3.379073181,-7.813152466,-1.007704468,8.571986661
18.75288988,-1.964963837,-7.568710785,-0.4813989258,7.834424724
18.76297288,-0.4569996643,-7.331154785,-0.532742157,7.36467877
18.77305487,0.9306147766,-7.265142059,-0.9821076965,7.390051998
18.78313687,2.067650299,-7.395071869,-0.9419911194,7.736253161
18.79321987,2.48288681,-6.989415436,-1.044078827,7.490444289
18.80330187,2.519261169,-6.326144714,-1.481918335,6.968706174
18.81338388,2.298320618,-5.550308075,-1.689686279,6.240451675
18.82346588,1.981878662,-4.389472046,-1.595532074,5.073561912
18.83354888,1.484013977,-3.036136322,-1.531914368,3.710415459
18.84363087,1.21577179,-1.86631897,-1.708996124,2.807474896
18.85371287,1.251697083,-0.9148974609,-1.985022125,2.518748854
18.86379587,1.332528992,-0.3905378723,-2.390079803,2.764169823
18.87387787,1.507215729,-0.2014810181,-2.434088287,2.870031297
18.88395988,2.139800262,-0.4707710266,-1.959425354,2.939339763
18.89404187,2.819087677,-1.127455444,-1.328188019,3.31398469
18.90412487,3.431015167,-1.706152039,-0.6518943787,3.886873568
18.91420687,3.775149536,-2.424059143,0.2941383362,4.496035377
18.92428887,3.790567474,-3.790717163,1.400936737,5.540808797
18.93437187,3.74655899,-5.909261627,2.775528259,7.527259419
18.94445387,3.499572601,-9.156908112,5.409001923,11.19612774
18.95453588,2.800077209,-13.5206337,11.22650436,17.79557159
18.96461888,1.514550476,-19.32256851,21.09338608,28.64588021
18.97470087,2.117646332,-27.50874527,26.56286224,38.29883997
18.98478287,1.189276886,-35.27235077,28.34879837,45.2681729
18.99486487,-2.990930328,-31.69014999,17.42930557,36.2903839
19.00494787,-4.50832489,-18.32639008,5.143304443,19.56106201
19.01502988,-4.65112793,-8.696166229,2.610271912,10.20146154
19.02511188,-4.568350067,-2.494113464,2.487676849,5.768791937
19.03519488,-2.499951324,0.2950364685,-1.195114746,2.786593332
19.04527687,1.866169281,-2.987786865,-6.953340454,7.794767579
19.05535887,5.531596985,-10.04201752,-12.55364456,17.00101976
19.06544087,8.0993573,-14.52669159,-17.01900879,23.79644968
19.07552371,9.748328247,-14.8862439,-14.8052623,23.14791465
19.08560571,9.585466919,-12.82607803,-7.03686676,17.49019576
19.09568771,7.513325958,-12.0183577,16.55736877,21.79535385
19.10577071,2.585273895,-12.44751526,27.00159988,29.84477632
19.11585271,2.562221832,-6.495742035,-2.532733154,7.427946051
19.12593471,-0.1164578247,-2.700983276,-9.50807785,9.884959155
19.13601671,-1.030906219,-2.297272797,-6.02122879,6.526517148
19.14609971,0.186512146,-4.579576721,-3.416046295,5.71635216
19.15618171,1.522034912,-7.49790802,-6.656358032,10.14112012
19.16626371,2.129920807,-9.782008209,-8.815019073,13.33899578
19.17634671,1.943708038,-11.434422,-8.015232239,14.09850897
19.18642871,1.090781708,-13.04791672,-5.118905182,14.05848945
19.19651071,-0.1878593445,-14.33838318,-1.37129837,14.40503324
19.20659371,-1.487905884,-14.70242615,1.600322113,14.86392376
19.21667571,-2.049088898,-13.96580795,3.01996994,14.4347766
19.22675771,-1.920805664,-12.52325775,3.329376526,13.099856
19.23683971,-1.202748871,-10.49841843,2.460433502,10.84975241
19.24692271,-0.366587677,-8.349187775,0.7467970276,8.390532094
19.25700471,1.182540894,-6.721472626,-1.089284821,6.911088094
19.26708671,2.898422699,-6.009702759,-2.56716156,7.148964951
19.27716971,3.239712982,-5.868097229,-3.016377411,7.350431143
19.28725171,3.348536682,-6.402935028,-1.318607941,7.34499842
19.29733371,2.831511841,-7.910001068,0.2101629639,8.404150443
19.30741571,2.38693634,-9.060508575,0.7861651611,9.402570734
19.31749871,1.92125473,-9.318122864,1.545086975,9.63877208
19.32758071,1.172362061,-8.74750946,2.215692444,9.099596011
19.33766271,0.6703060913,-8.126900024,2.627336426,8.567304766
19.34774571,0.5272036743,-7.449408875,2.176923065,7.778857906
19.35782771,0.4875361633,-7.210655365,0.2176473999,7.230395058
19.36790971,0.5140310669,-7.316185913,-2.164199524,7.646866275
19.37799171,0.5779481506,-7.562723236,-3.363655243,8.297167191
19.38807471,0.6506968689,-8.056546326,-2.705773315,8.523646775
19.39815671,0.5245092773,-9.011859741,-0.9472302246,9.076671806
19.40823871,0.5385800171,-10.23751099,1.016087036,10.30189946
19.41832171,0.4831951904,-11.34894974,2.108814697,11.55332148
19.42840371,0.5312452698,-11.80056061,2.576142883,12.09015982
19.43848571,0.3402424622,-11.77601166,2.573149109,12.05866128
19.44856871,0.03607498169,-12.05832458,2.357597351,12.2866903
19.45865071,-0.6102809143,-12.30650848,1.729653168,12.44243923
19.46873271,-1.913620605,-12.34437973,0.7960446167,12.51716189
19.47881471,-3.271896057,-12.62310013,0.6227050781,13.0551033
19.48889771,-3.727249146,-13.39684113,2.002984772,14.0491881
19.49897971,-3.21890625,-13.82599869,3.891457672,14.71947825
19.50906171,-2.165097656,-13.37139404,4.85350708,14.38882752
19.51914471,-1.523980865,-12.86065613,4.912484436,13.85104679
19.52922671,-1.899849243,-12.40470428,4.483925629,13.32635376
19.53930871,-2.53677475,-11.51959488,3.815565491,12.39737199
19.54939071,-2.481689301,-11.79726746,4.949607239,13.03199574
19.55947371,-1.89670578,-12.88745041,5.616769867,14.18562563
19.56955571,-0.8535250854,-14.10217438,3.953428802,14.67069959
19.57963771,0.8387059021,-16.38387955,0.05777984619,16.40543432
19.58972071,1.406325531,-18.77575562,-6.631060638,19.96190661
19.59980271,2.690505066,-19.62972977,-10.42761566,22.38973597
19.60988471,5.015470276,-18.39614502,-8.825347595,21.01094605
19.61996771,7.288044434,-16.99655548,-4.207300873,18.96575521
19.63004971,8.325536957,-15.74605591,1.363514557,17.86370662
19.64013171,7.896678772,-14.84283417,5.016667786,17.54520497
19.65021371,8.011789398,-14.14708099,4.581822052,16.89147013
19.66029671,7.453300781,-12.69734573,0.9939331055,14.7567674
19.67037871,5.592819672,-11.21333176,-1.183439026,12.58645974
19.68046071,2.284249878,-10.06417145,-1.089434509,10.37748582
19.69054371,-0.1121168518,-8.96515686,-1.173110504,9.042278251
19.70062571,-0.8446934509,-8.258027344,-1.765279083,8.486738648
19.71070771,-1.628313904,-7.717052307,-1.769620056,8.083059917
19.72078971,-1.381477203,-7.74130188,-1.132844238,7.944782573
19.73087271,-0.3700305176,-7.924071808,-1.097368011,8.008249069
19.74095471,0.8171507263,-7.892786865,-1.360071716,8.050690336
19.75103671,1.694176941,-7.638166351,-1.763782196,8.020146405
19.76111971,1.849404144,-7.03222641,-1.928140411,7.522647766
19.77120171,1.864672394,-6.23767868,-1.981130219,6.805182981
19.78128371,1.884580994,-5.2606604,-2.083666992,5.963879736
19.79136571,1.562001801,-4.037104797,-2.071841583,4.799019933
19.80144871,1.408570862,-2.916385345,-2.060016174,3.838364495
19.81153071,1.343905334,-1.807491302,-2.196981354,3.146400074
19.82161271,1.273551636,-0.8593629456,-2.266736298,2.738344734
19.83169571,1.371747437,-0.2125579834,-2.355950775,2.734479106
19.84177771,1.4438974,0.168848877,-2.174528046,2.615706762
19.85185971,1.723366241,0.0896635437,-1.639091492,2.380052872
19.86194171,2.287093964,-0.3459306335,-1.071621552,2.549282164
19.87202471,3.014880524,-0.8710386658,-0.2043251038,3.144830946
19.88210671,3.605552216,-1.900597687,0.7708969116,4.148079121
19.89218871,3.611539764,-3.486699371,1.589694214,5.26568321
19.90227171,3.164569244,-6.050867157,2.717898102,7.349453173
19.91235371,2.837649078,-10.04546036,5.273084564,11.69482565
19.92243571,2.234403534,-14.99252289,11.5246843,19.04170816
19.93251771,1.334175568,-21.22241776,21.32585266,30.11582693
19.94260071,1.038390656,-29.60947678,29.53642868,41.83539159
19.95268271,-1.959724731,-36.06315628,28.97868851,46.30503374
19.96276471,-4.941673737,-29.14978271,11.95638657,31.89177247
19.97284771,-5.444178772,-16.29765884,3.769461365,17.59152083
19.98292971,-4.463418274,-7.808362427,3.104394379,9.514719698
19.99301171,-3.411256256,-2.947819977,2.101779327,4.974312837
