Time (s),Acceleration x (m/s^2),Acceleration y (m/s^2),Acceleration z (m/s^2),Absolute acceleration (m/s^2)
20.00940954,-1.920356598,-12.52370682,1.564995575,12.7663704
20.01949054,-3.495231628,-12.61831009,1.309925995,13.15881073
20.02957254,-4.974455566,-12.63058456,1.71184021,13.68237083
20.03965454,-5.253625031,-12.34587662,2.517165527,13.65127715
20.04973654,-4.467010803,-11.95608719,3.128494263,13.14114465
20.05981854,-3.712280273,-11.87705154,3.281775513,12.86916581
20.06990054,-3.665278015,-12.03197937,2.839595032,12.8944209
20.07998254,-3.572021942,-11.51226013,3.026107178,12.42774311
20.09006454,-3.374133453,-11.20539825,5.921087036,13.11506761
20.10014654,-2.636617126,-12.73087601,6.956034851,14.74494404
20.11022854,-1.268462219,-14.79837662,2.595153351,15.0776579
20.12031054,0.4221221924,-17.00613556,-1.977088623,17.12587847
20.13039254,2.668800201,-18.46125961,-6.442602539,19.73443003
20.14047454,5.574407959,-18.97199753,-8.523275757,21.53269477
20.15055654,8.231682129,-18.91571457,-6.841972046,21.73424555
20.16063854,9.571994934,-17.64410889,-1.783840485,20.15241306
20.17072054,7.811356201,-15.94169907,4.229155426,18.24940576
20.18080254,7.344327393,-14.68835541,5.563480682,17.33895172
20.19088454,8.063881073,-13.76657227,2.819087677,16.20160317
20.20096654,7.569758606,-13.04222855,0.5031037903,15.08821011
20.21104854,4.863685913,-11.5896492,-0.6397695923,12.5850989
20.22113054,0.1805245972,-9.90714798,-1.860331421,10.08191466
20.23121254,-3.285368042,-9.137598267,-1.510957947,9.827122629
20.24129454,-4.139940948,-8.742120667,-1.560804291,9.797953605
20.25137654,-2.587369537,-8.2280896,-1.91077652,8.834421684
20.26145854,-0.09430389404,-7.90281601,-1.973346405,8.146010689
20.27154054,1.453926544,-7.356751556,-1.698667603,7.689029034
20.28162254,1.945504303,-7.024891663,-1.581760712,7.458958159
20.29170492,2.149080963,-6.909032593,-1.535656586,7.396723701
20.30178692,1.54448822,-6.873855743,-1.841620331,7.281957298
20.31186892,1.186133423,-6.411018219,-1.861229553,6.780283368
20.32195092,0.7988887024,-5.237159271,-1.535656586,5.515822834
20.33203292,0.1148112488,-3.963607635,-1.432670746,4.216149022
20.34211492,0.4544549561,-2.580932922,-1.817819824,3.189390689
20.35219692,0.8921447754,-1.23328537,-2.409090271,2.849672093
20.36227892,1.787133636,-0.1531315613,-2.803819427,3.32846801
20.37235992,2.367476807,0.1883084106,-2.647843781,3.556892348
20.38244192,3.117716675,-0.07334747314,-1.854044495,3.628087389
20.39252392,3.844455414,-0.5843847656,-1.063089294,4.031315149
20.40260592,4.415667572,-1.013542328,-0.383203125,4.546672717
20.41268792,4.493056641,-2.102527771,0.833915863,5.030268052
20.42276992,3.951632538,-4.045487366,2.151625671,6.050690933
20.43285192,2.779420166,-6.798113251,3.969744873,8.348556437
20.44293392,1.268312531,-10.69630692,7.467820587,13.10678994
20.45301592,0.09819580078,-16.29720978,10.97712296,19.64957804
20.46309792,-2.398911438,-22.80627411,19.31942505,29.98534807
20.47317992,-7.948321381,-30.88123215,29.01566162,43.11304827
20.48326192,-11.27500351,-34.39098358,16.56185944,39.8015156
20.49334392,-9.325008545,-25.7539444,6.458619232,28.14134323
20.50342592,-6.10430603,-13.08159668,3.765120392,14.91867472
20.51350792,-3.939358063,-5.428311768,3.209026794,7.435251412
20.52358992,-1.879641266,-1.059646454,1.608105927,2.691079071
20.53367192,-0.04999603271,0.7246430969,-3.305426331,3.384294675
20.54375392,1.797761536,-0.6658154297,-8.130043488,8.353015254
20.55383592,5.097948761,-5.457950134,-12.09889023,14.21834892
20.56391792,10.33136581,-11.50956573,-12.30785568,19.76589321
20.57399992,12.97531769,-15.59397217,-9.135652313,22.24839276
20.58408192,12.60334122,-17.18127136,-0.2420466614,21.30959601
20.59416392,6.267317047,-19.20206909,27.31864059,33.97509153
20.60424592,-1.243164825,-17.82478317,20.69237,27.3393952
20.61432792,-0.9596543884,-12.62654297,-4.665647736,13.49513959
20.62440992,-1.684596863,-6.677314453,-10.00758911,12.14809593
20.63449192,-1.676513672,-3.023712158,-6.364614716,7.243055556
20.64457392,-0.2303709412,-2.431992645,-3.847000122,4.557089964
20.65465592,2.857258301,-4.467310181,-4.861290894,7.193951237
20.66473792,5.861810303,-7.225025482,-6.204447784,11.18288807
20.67481992,5.755231934,-8.889863434,-6.316864014,12.33106392
20.68490192,4.157753906,-9.80760498,-5.384902039,11.93621393
20.69498392,1.666035461,-10.91575058,-3.430865479,11.56287693
20.70506592,-1.035845947,-12.67878433,-1.049018555,12.76420734
20.71514792,-3.01996994,-14.24033707,0.6677613831,14.57234791
20.72522892,-3.470233612,-14.42235855,0.9490264893,14.8643062
20.73531092,-2.801723785,-12.7840155,1.241817627,13.14620932
20.74539292,-1.537602539,-10.58433975,1.547332306,10.80678985
20.75547492,-0.1850152588,-8.620124359,1.008153534,8.680849507
20.76555692,0.8408015442,-7.354356537,-0.1824705505,7.404512328
20.77563892,2.100731506,-6.786287842,-1.002165985,7.174337056
20.78572092,3.415148163,-7.165898438,-1.91421936,8.165633665
20.79580292,3.817810822,-8.315657501,-1.39120697,9.255338783
20.80588492,3.822900238,-9.593250732,-0.08128097534,10.32722772
20.81596692,3.220253448,-10.35067566,0.3324586487,10.84513935
20.82604892,2.339634705,-10.22778122,0.3203338623,10.49685729
20.83613092,0.9822573853,-9.510023804,0.4179309082,9.569746525
20.84621292,-0.8943901062,-8.432714081,0.22348526,8.482956212
20.85629492,-2.202370148,-7.498656464,0.02933898926,7.815442649
20.86637692,-2.607278137,-7.077731781,-0.3112028503,7.549108137
20.87645892,-2.150278473,-7.087611237,-0.8690927124,7.457429362
20.88654092,-1.257385254,-7.506889343,-1.443298645,7.74709728
20.89662292,-0.4493655396,-7.990234222,-1.731449432,8.188021095
20.90670492,-0.02514770508,-8.65155899,-1.221759338,8.737436767
20.91678692,-0.06661148071,-9.618697815,0.02065704346,9.618950642
20.92686892,-0.3439846802,-10.57820251,1.438807983,10.68114518
20.93695092,-0.4204756165,-11.16707794,2.594554596,11.47223357
20.94703292,-0.5158273315,-11.41945312,2.684068451,11.74198497
20.95711492,-0.7273374939,-11.6400943,1.567240906,11.76762759
20.96719692,-1.142424316,-12.17612961,0.3965254211,12.23603277
20.97727892,-2.284998322,-12.53298752,0.1919009399,12.74102898
20.98736092,-3.480861511,-12.18106934,0.4297563171,12.67594326
20.99744292,-4.00641861,-12.04844513,0.8387059021,12.72477299
21.00752492,-3.532204742,-12.32312393,1.949246521,12.96670412
21.01760692,-2.660267944,-12.84883072,3.58160202,13.60137307
21.02768892,-2.654430084,-13.62032639,4.43812088,14.5690153
21.03777092,-3.502416687,-14.07702667,3.301684113,14.87718793
21.04785292,-4.171225891,-13.33187622,2.338287506,14.16353196
21.05793492,-4.394711151,-11.96911011,3.775448914,13.29763503
21.06801692,-4.281845856,-12.0740419,6.118676147,14.19700284
21.07809892,-2.905458069,-13.76283005,5.747298431,15.19501947
21.08817992,-0.655486908,-15.2034343,2.4525,15.41391688
21.09826192,1.523082733,-16.63041687,-2.98838562,16.96528794
21.10834392,4.046684875,-17.47076935,-8.182135162,19.71169135
21.11842592,6.603218536,-17.88166489,-8.770262146,20.98270555
21.12850792,8.561147003,-17.69350616,-4.940176849,20.26718396
21.13858992,8.557105408,-15.97358276,0.8870553589,18.14293985
21.14867192,6.777456207,-14.12911835,5.140610046,16.49217298
21.15875392,6.425388336,-13.01992493,4.680915985,15.25500032
21.16883592,6.500681763,-12.43868362,2.525847473,14.26042142
21.17891792,5.150938568,-12.02015396,0.2959346008,13.0806669
21.18899992,2.049537964,-11.03834564,-1.304387512,11.30252658
21.19908192,-0.9500743103,-9.323811035,-1.305734711,9.462612565
21.20916392,-2.577190704,-8.495583344,-1.231788483,8.962932061
21.21924592,-2.371069336,-8.144712982,-1.277443542,8.578471971
21.22932792,-0.509690094,-7.745792542,-1.466949463,7.899938406
21.23940992,1.665436707,-7.168892212,-1.561253357,7.523576743
21.24949192,2.682122498,-6.625671844,-1.179846497,7.244677097
21.25957392,3.500171356,-6.52088974,-1.231638794,7.502675299
21.26965592,3.240162048,-6.299949188,-1.560953979,7.254280612
21.27973792,2.624642029,-6.342460785,-1.486259308,7.023141841
21.28981992,2.125879211,-6.116131439,-1.163680115,6.578797581
21.29990204,1.181044006,-5.318140869,-0.9601034546,5.531662127
21.30998404,0.4291575623,-4.229454803,-1.093176727,4.389475994
21.32006604,0.7412585449,-3.037633209,-1.492546234,3.464732891
21.33014804,1.284029846,-1.704056396,-1.902693329,2.858807925
21.34023004,1.631607056,-0.7800279236,-1.953138428,2.661829233
21.35031204,2.221380615,-0.4810995483,-1.57966507,2.767910827
21.36039404,2.592309265,-0.5728587341,-1.065634003,2.860735969
21.37047604,2.797831879,-1.16772171,-0.3303630066,3.049684726
21.38055804,2.880460052,-1.840722198,0.3005749512,3.431567226
21.39064004,2.799628143,-2.559078369,0.9794132996,3.917403509
21.40072204,2.295177155,-3.752995605,2.105371857,4.87702828
21.41080404,1.36665802,-5.612279205,3.614084473,6.813738959
21.42088604,-0.07963439941,-8.424481201,6.384822693,10.57091226
21.43096804,-1.593885498,-12.82697617,10.1378183,16.42702494
21.44105004,-4.488266602,-19.75561798,17.98794388,27.09234401
21.45113204,-10.98730179,-28.60701141,26.13160904,40.27335215
21.46121404,-15.07140884,-34.12034637,15.73587708,40.48411082
21.47129504,-12.45544876,-29.92891251,8.271798706,33.45595106
21.48137704,-6.790479126,-17.52465729,7.609875183,20.27644989
21.49145904,-3.396586761,-9.086105347,4.696034546,10.77714491
21.50154104,-1.22625,-4.657714233,1.587598572,5.071337118
21.51162304,2.079326019,-3.91271347,-0.8611592102,4.513814194
21.52170504,6.25174942,-7.13281723,-2.935246124,9.928601224
21.53178704,9.162296906,-12.04021225,-6.018384705,16.28297731
21.54186904,9.55493042,-15.81640961,-9.649084625,20.84611096
21.55195104,8.131240997,-14.54540268,-10.08512787,19.47808059
21.56203304,7.219487,-10.98909805,-3.755091248,13.6741354
21.57211504,3.962110748,-8.252937927,10.27777725,13.76379349
21.58219704,1.519340515,-7.618856506,13.11348038,15.2420057
21.59227904,2.868484955,-5.878425751,7.15152832,9.691669235
21.60236104,2.56716156,-3.094514923,-0.1598675537,4.023915844
21.61244304,0.3673361206,-3.033591614,-6.116430817,6.837275762
21.62252504,0.7195536804,-5.697302399,-9.547445984,11.14139744
21.63260704,3.782035217,-8.612190857,-9.285640411,13.21728942
21.64268904,4.488865356,-10.51563263,-7.750432892,13.81295232
21.65277104,3.189716949,-11.75385773,-6.395001526,13.75585367
21.66285304,1.870360565,-12.45709534,-4.923112335,13.52458901
21.67293504,0.5284011841,-12.76994476,-2.944526825,13.11567517
21.68301704,-0.8557704163,-13.01124298,-0.710123291,13.05867765
21.69309904,-1.847458191,-13.05525146,1.395098877,13.25892128
21.70318104,-2.051034851,-12.54840546,2.367925873,12.93353379
21.71326304,-1.322948914,-11.36810989,2.057471466,11.62829761
21.72334504,-0.07005432129,-9.875264282,0.9792636108,9.923946265
21.73342704,0.5065466309,-8.322094116,-0.7652087402,8.372537512
21.74350904,0.8999285889,-7.170838165,-2.577639771,7.673005815
21.75359104,1.534608765,-6.98896637,-3.649261322,8.032296258
21.76367304,2.571652222,-7.835755463,-3.399580536,8.920179743
21.77375504,2.788700867,-8.776249695,-1.842967529,9.391269379
21.78383704,2.265987854,-9.264384613,-0.4501139832,9.548095402
21.79391904,1.755998383,-9.305549011,0.5432203674,9.485349814
21.80400104,1.212778015,-8.677006073,1.438209229,8.878609727
21.81408304,0.2628533936,-7.939789124,1.70719986,8.125507651
21.82416504,-0.343535614,-7.422315216,1.372645569,7.555986748
21.83424704,-0.7352709961,-7.237898712,0.2924917603,7.281026894
21.84432904,-0.4963677979,-7.422614594,-0.9177415466,7.495587898
21.85441104,0.0513432312,-7.83485733,-1.610950012,7.998924019
21.86449304,0.3915856934,-8.197852478,-1.704505463,8.382330432
21.87457504,0.5150788879,-8.591683502,-0.623303833,8.629648853
21.88465604,0.255668335,-9.363478546,1.11622879,9.43324247
21.89473904,-0.1835183716,-10.30831375,2.298320618,10.56301515
21.90482004,-0.4337979126,-10.9950856,2.550546112,11.29536956
21.91490204,-0.68332901,-11.24761047,2.33080307,11.50688154
21.92498404,-1.19466568,-11.22081619,1.431622925,11.37468621
21.93506604,-1.963167572,-11.32230515,0.3900888062,11.49786024
21.94514804,-2.956950989,-11.87720123,0.04924758911,12.23984859
21.95523004,-3.963907013,-12.40919495,0.4016148376,13.03311062
21.96531204,-4.80904953,-12.66755768,0.8803193665,13.57825236
21.97539404,-5.160219269,-12.86963745,1.912123718,13.99684422
21.98547604,-4.695735168,-13.00974609,3.551963654,14.2800514
21.99555804,-3.737877045,-12.74749146,5.058131561,14.21460369
22.00564004,-3.169658661,-12.11610443,4.512815552,13.31210828
22.01572204,-2.861449585,-11.36556519,3.823349304,12.32809659
22.02580404,-2.14833252,-10.52206924,5.268144836,11.96171492
22.03588604,-1.837728424,-10.65918411,5.244793396,12.02095294
22.04596804,-2.070195007,-12.15277817,3.180885315,12.73160461
22.05605004,-2.37765564,-13.88168289,0.846789093,14.1092671
22.06613204,-1.899998932,-15.74231369,-1.853745117,15.96454845
22.07621404,-0.9666897583,-17.20297623,-5.867348785,18.2017214
22.08629604,1.234632568,-17.70398438,-8.362510071,19.61853601
22.09637804,4.407883759,-17.69455399,-7.298672333,19.64172339
22.10646004,7.076833649,-17.24354187,-2.999612274,18.87906207
22.11654204,7.800728302,-16.3127774,3.163521423,18.35663195
22.12662404,7.315886536,-15.19101013,5.260061646,17.66231109
22.13670604,7.400909729,-13.97838181,3.795058136,16.26564136
22.14678804,7.115752716,-13.29864532,2.345023499,15.26391298
22.15687004,4.938230896,-12.86320084,1.074765015,13.82039001
22.16695204,1.778751068,-11.21303238,-0.07424560547,11.35348241
22.17703404,-0.5218148804,-9.480235748,-1.119072876,9.560307773
22.18711604,-1.371148682,-8.312813416,-1.279389496,8.521722424
22.19719804,-0.802331543,-7.729775848,-1.586700439,7.931632168
22.20728004,0.9862989807,-7.363637238,-1.34794693,7.550688708
22.21736204,2.500101013,-6.979835358,-1.355581055,7.536989233
22.22744404,3.531755676,-6.644682312,-1.749412079,7.725641967
22.23752604,4.115841064,-6.456972656,-1.997595978,7.91347163
22.24760804,3.873045959,-6.110592957,-1.999092865,7.505744704
22.25769004,2.934347992,-5.654790802,-1.811981964,6.623468562
22.26777204,1.394500122,-5.214256897,-2.070943451,5.781168771
22.27785404,0.2900967407,-4.765490112,-2.068398743,5.203107292
22.28793604,-0.1826202393,-4.254752197,-1.691332855,4.582234525
22.29801796,0.1477427673,-3.388204193,-1.344803467,3.648321798
22.30809896,0.9542655945,-2.360142059,-1.613045654,3.013770006
22.31818096,2.018851776,-1.496138763,-1.895657959,3.147651949
22.32826296,2.884052582,-1.092577972,-1.56439682,3.458153168
22.33834496,3.563339996,-1.214873657,-0.8255332947,3.854194488
22.34842696,4.062252502,-1.64627655,0.1357676697,4.38526564
22.35850896,4.407434692,-2.429747314,0.7080276489,5.082367139
22.36859096,4.044888611,-3.892804871,1.11278595,5.723053923
22.37867296,3.179987183,-6.160738678,2.254461823,7.29037843
22.38875496,1.605561218,-9.258546753,4.702171783,10.50756557
22.39883696,-0.1683998108,-13.43201797,8.416248322,15.85183589
22.40891896,-2.7391539,-18.12490906,13.09806244,22.52941482
22.41900096,-7.098239136,-24.08745987,25.98700974,36.13745144
22.42908296,-12.4814946,-29.92846344,27.53239609,42.53861147
22.43916496,-12.73671387,-27.58628403,11.94456116,32.64811614
22.44924696,-8.632548523,-17.78287033,4.30235321,20.23021538
22.45932896,-4.695735168,-10.3262764,2.04759201,11.52712219
22.46941096,-1.386416931,-6.755601654,1.491199036,7.05577637
22.47949296,-0.6312373352,-4.289629669,0.3852987671,4.352911487
22.48957496,-2.006427612,-2.204166412,-1.428329773,3.305181883
22.49965696,-3.099903717,-1.142124939,-4.788093109,5.817189016
22.50973896,-1.853296051,-2.969824219,-7.644303589,8.407730937
22.51982096,2.251318359,-6.539301453,-11.63784897,13.53774082
22.52990296,7.809859314,-10.59062668,-10.97562607,17.13533319
22.53998496,10.55125854,-14.06520126,-6.724167023,18.82480719
22.55006696,10.20023849,-15.37632477,-0.2817141724,18.45414836
22.56014896,8.331524506,-18.66723129,29.23645248,35.67422008
22.57023096,4.152963867,-20.68713089,32.67420364,38.89483355
22.58031296,4.185895386,-15.2631601,1.520238647,15.8995881
22.59039496,2.883902893,-9.034163361,-12.3328537,15.55738679
22.60047696,-0.01032852173,-5.564528503,-9.091943207,10.65962079
22.61055896,-0.4733157349,-4.079466705,-5.91599762,7.201743138
22.62064096,0.5288502502,-4.167034607,-5.739963684,7.112738087
22.63072296,2.23021225,-6.359824677,-6.412664795,9.302875167
22.64080496,3.273542633,-8.220305786,-9.273515625,12.81747247
22.65088696,2.839145966,-8.766070862,-10.43704605,13.92252414
22.66096896,1.780697021,-9.597292328,-7.887098694,12.54931184
22.67105096,0.9949809265,-11.61779068,-3.58743988,12.19970378
22.68113296,-0.6370751953,-13.88707169,1.373992767,13.96941233
22.69121496,-2.37765564,-14.52773941,5.231620789,15.62300595
22.70129696,-2.89483017,-13.5192865,6.014343109,15.07725015
22.71137896,-1.894460449,-11.58141632,3.628604279,12.28352366
22.72146096,-0.3876937866,-9.603429565,0.7104226685,9.637471985
22.73154296,1.262175293,-8.144712982,-0.9180409241,8.292902699
22.74162496,2.72508316,-7.538773041,-2.242037659,8.323815835
22.75170596,3.486699371,-7.315138092,-1.85105072,8.312322574
22.76178796,3.059188385,-7.536078644,-0.3911366272,8.142733126
22.77186996,2.433639221,-7.832013245,0.3366499329,8.208310697
22.78195196,1.4239888,-8.462202759,0.2442919922,8.58465481
22.79203396,0.4757107544,-8.875942383,0.01586700439,8.888695386
22.80211596,-0.1297801208,-8.961414642,0.002694396973,8.962354743
22.81219796,-0.6245013428,-8.797505493,0.2061213684,8.822051397
22.82227996,-0.9026229858,-8.06418045,0.3724255371,8.123080412
22.83236196,-0.9228309631,-7.536378021,0.2562670898,7.596991739
22.84244396,-0.4766088867,-7.210505676,0.1678010559,7.228188247
22.85252596,0.1408570862,-7.50254837,0.01676513672,7.503889247
22.86260796,0.8114625549,-8.208929443,-0.04505630493,8.249062017
22.87268996,0.9930349731,-9.091045074,0.02739303589,9.145160982
22.88277196,0.7658074951,-10.10129425,0.3887416077,10.13773775
22.89285396,0.3915856934,-11.21363113,1.010099487,11.26584056
22.90293596,0.01017883301,-12.03317688,1.798509979,12.16684378
22.91301796,-0.4376898193,-12.07224564,2.335293732,12.30383208
22.92309996,-1.028660889,-11.78244827,1.952389984,11.98732903
22.93318196,-1.725162506,-11.82915115,0.5792953491,11.96831591
22.94326396,-2.845732269,-12.31444199,-0.8110134888,12.66496808
22.95334596,-4.187991028,-12.61606476,-1.012045441,13.33148884
22.96342796,-5.297184448,-12.43838425,0.1269360352,13.51997332
22.97350996,-6.052513733,-12.19633759,1.742376709,13.72659643
22.98359196,-6.334676971,-12.19394257,3.832480316,14.26563258
22.99367396,-6.103707275,-12.1669986,5.306016083,14.60975373
23.00375596,-5.431155853,-12.04126007,5.082979889,14.15365969
23.01383796,-4.098626862,-11.40717865,4.387526093,12.89080494
23.02391996,-2.480791168,-10.83372116,4.922363892,12.15538997
23.03400196,-1.450334015,-11.37454651,4.332590332,12.25785936
23.04408396,-0.9171427917,-13.1158754,2.052531738,13.30714939
23.05416596,-0.06676116943,-15.20942184,-0.07005432129,15.2097297
23.06424796,0.8487350464,-16.88937836,-3.63429245,17.29680705
23.07432996,1.972448273,-17.642612,-6.799460449,19.01012816
23.08441196,4.270170135,-17.37197479,-6.467001801,19.02214429
23.09449396,7.18311264,-16.36636597,-3.909869385,18.29595914
23.10457596,8.632997589,-15.09670624,0.09385482788,17.39103204
23.11465796,7.628137207,-14.28958466,3.844455414,16.64813936
23.12473996,7.450606384,-14.02059402,3.977378998,16.36789956
23.13482196,8.056396637,-13.80339569,2.0079245,16.10810418
23.14490396,7.56571701,-13.37049591,0.7949967957,15.3831809
23.15498596,5.653443604,-12.04739731,-0.135617981,13.30862873
23.16506796,1.53161499,-10.37717056,-1.221909027,10.56051964
23.17514996,-1.386267242,-8.891210632,-1.086141357,9.063943205
23.18523196,-2.33664093,-8.118517456,-0.5894741821,8.468630133
23.19531396,-2.064357147,-7.867489471,-0.7851173401,8.171619806
23.20539596,-0.5275030518,-7.453600159,-1.175056458,7.564071157
23.21547696,0.8649014282,-6.956334229,-1.16427887,7.105926095
23.22555896,1.850302277,-6.351891174,-0.8943901062,6.676082209
23.23564096,2.110461273,-6.030210114,-1.121018829,6.486460053
23.24572296,1.774410095,-5.99548233,-1.295106812,6.385267513
23.25580496,1.397942963,-5.97796875,-1.589993591,6.341800574
23.26588696,0.7849676514,-5.50285675,-1.360670471,5.722676888
23.27596896,0.2495310974,-4.552033997,-1.249002686,4.726868623
23.28605096,0.4090992737,-3.303181,-1.593137054,3.690047778
23.29613279,1.411265259,-2.207758942,-2.028731232,3.31385268
23.30621479,2.425406342,-1.155896301,-2.284998322,3.52702559
23.31629679,3.134032745,-0.4816983032,-1.856289825,3.674235488
23.32637879,3.5208284,-0.430355072,-0.8976832581,3.658862301
23.33646079,3.711980896,-1.083596649,0.008382568359,3.866917912
23.34654279,3.707041168,-2.0862117,0.7915539551,4.326776068
23.35662479,3.199746094,-3.093167725,1.780397644,4.793315909
23.36670679,2.446512451,-4.427792358,2.979254608,5.870836939
23.37678879,1.717528381,-6.336772614,4.182452545,7.784439619
23.38687079,0.8214916992,-9.201365662,6.051316223,11.04347802
23.39695279,-0.08187973022,-13.73887985,9.024583282,16.43796299
23.40703479,-2.906206512,-19.86429199,15.91265945,25.61735473
23.41711679,-8.058492279,-27.18032822,23.10385529,36.57181522
23.42719879,-11.77167068,-32.81266571,17.5032518,39.00778237
23.43728079,-12.12703171,-29.96768188,10.02749771,33.8478591
23.44736279,-7.645052032,-18.52068604,7.76585083,21.48885923
23.45744479,-5.257367249,-9.694290619,5.463338928,12.30720331
23.46752679,-4.520599365,-4.004173279,2.064207458,6.382019641
23.47760879,-2.721939697,-0.7807763672,-2.622995453,3.859879868
23.48769079,-0.1324745178,-0.6352789307,-8.076604614,8.102633579
23.49777279,3.058290253,-3.381318512,-13.29834595,14.05818122
23.50785479,9.708361359,-8.155041504,-15.15762955,19.76134397
23.51793679,14.97964966,-12.6301355,-11.52842651,22.73356207
23.52801879,15.81730774,-14.70242615,-2.706072693,21.76399293
23.53810079,14.03676041,-17.35341339,30.18158707,37.53797806
23.54818279,2.847678223,-18.94026352,32.26660126,37.52301174
23.55826479,-1.339115295,-14.92216919,-1.669029236,15.07481415
23.56834679,-3.486250305,-8.815617828,-12.55424332,15.73143618
23.57842879,-3.120860138,-4.959187317,-8.187374268,10.06808841
23.58851079,-1.736987915,-3.16397049,-5.524561615,6.599137619
23.59859279,1.057550812,-3.87888382,-6.402186584,7.559903866
23.60867479,5.221142578,-7.20661377,-8.196205902,12.09848763
23.61875679,5.962999878,-9.592801666,-8.451425171,14.10694151
23.62883879,4.199816437,-10.45216461,-7.778274994,13.68896508
23.63892079,2.592309265,-11.59803177,-5.419629822,13.06165363
23.64900279,0.1333726501,-13.82060989,-0.2842588806,13.82417626
23.65908479,-2.128723297,-14.85675522,4.997507629,15.81865105
23.66916679,-3.221600647,-14.29482376,6.927444305,16.2083368
23.67924879,-2.87252655,-12.29947311,5.374573517,13.72641571
23.68933079,-1.684447174,-9.694290619,2.452200623,10.1405089
23.69941279,-0.9388476562,-7.898475037,0.1035845947,7.954751573
23.70949479,-0.4345463562,-6.790179749,-1.63699585,6.998223129
23.71957679,0.6634204102,-6.166127472,-4.291276245,7.541638181
23.72965879,2.345472565,-6.074368286,-4.749922485,8.059835932
23.73973979,3.463347931,-6.357429657,-3.257226562,7.938590279
23.74982179,3.98067215,-7.204967194,-0.9795629883,8.289562514
23.75990379,4.029171295,-8.123457184,1.021326141,9.125123836
23.76998579,3.578907623,-8.455915833,2.087558899,9.416421534
23.78006779,2.467019806,-7.989934845,2.098635864,8.62145684
23.79014979,0.7469467163,-7.295977936,1.464105377,7.478825308
23.80023179,-0.715512085,-6.652615814,0.3414399719,6.699689244
23.81031379,-1.751807098,-6.454278259,-1.232686615,6.800445004
23.82039579,-2.581381989,-6.916217651,-2.840642853,7.909921073
23.83047779,-2.466870117,-7.897427216,-3.169359283,8.86000243
23.84055979,-1.83697998,-9.380093994,-1.686243439,9.705878411
23.85064179,-1.459614716,-11.29820526,0.1586700439,11.39320383
23.86072379,-1.124761047,-12.75841873,1.493594055,12.894695
23.87080579,-0.7164102173,-13.27215042,2.108814697,13.45772343
23.88088779,-0.7902067566,-12.87637344,2.477647705,13.13636776
23.89096979,-1.421593781,-12.3753653,2.766546936,12.76026555
23.90105179,-2.1658461,-12.63103363,2.576442261,13.07179998
23.91113379,-3.18612442,-12.95376251,1.770218811,13.45678367
23.92121579,-4.261937256,-13.38830887,1.440604248,14.12396064
23.93129779,-4.498595123,-13.46644638,2.840044098,14.47923985
23.94137979,-3.370840302,-12.8158992,5.195695496,14.23394142
23.95146179,-1.089883575,-11.52423523,6.174659729,13.11953759
23.96154379,0.8640032959,-10.72145462,5.916296997,12.2759383
23.97162579,1.237326965,-11.10810059,5.249433746,12.34817522
23.98170779,0.02799179077,-11.69338348,3.943998413,12.34062901
23.99178979,-2.135908356,-12.67339554,2.863395538,13.16723559
24.00187179,-4.056863708,-13.72241409,-0.06646179199,14.30968933
24.01195379,-4.371359711,-14.64823883,-3.20723053,15.61941146
24.02203579,-3.188968506,-15.69591019,-5.498066711,16.93398519
24.03211779,-1.146615601,-16.42414581,-7.642806702,18.15157809
24.04219979,1.485510864,-17.42646149,-7.252717896,18.93383795
24.05228179,4.901108093,-19.11629745,-4.412224731,20.22180546
24.06236379,6.773115234,-21.60756683,0.6706054688,22.65417723
24.07244579,7.710016937,-21.73106003,4.92251358,23.57783856
24.08252779,8.960815887,-19.30086365,5.221891022,21.91090379
24.09260979,8.585396576,-16.27236145,4.18769165,18.86890413
24.10269179,6.133195953,-12.9021199,1.525178375,14.36687021
24.11277379,1.616039429,-10.12075378,-1.533411255,10.36303964
24.12285579,-2.522404633,-9.067843323,-1.535506897,9.536565896
24.13293779,-4.647984467,-8.219707031,-1.643731842,9.584842077
24.14301979,-3.7477565,-7.267537079,-2.241289215,8.478570123
24.15310179,-0.7388635254,-6.775510254,-2.733914795,7.343551499
24.16318379,1.830393677,-6.48346756,-2.313139801,7.122942394
24.17326579,3.772006073,-6.306685181,-2.11315567,7.646419729
24.18334779,4.922962646,-6.087840271,-2.614612885,8.254305599
24.19342979,5.199587402,-5.801485748,-2.829865265,8.288611673
24.20351179,4.610861664,-5.486091614,-2.694396973,7.656175385
24.21359379,3.717220001,-5.011278992,-2.09100174,6.580496178
24.22367579,2.631677399,-4.438719635,-1.584455109,5.398004809
24.23375779,2.029629364,-3.716471558,-1.619781647,4.533789671
24.24383979,2.24652832,-2.595452728,-1.913770294,3.930112097
24.25392179,2.399510193,-1.707349548,-2.053579559,3.590247993
24.26400379,2.913990326,-0.7454498291,-2.188748474,3.719899858
24.27408579,3.212918701,-0.07783813477,-1.895358582,3.731124429
24.28416779,3.388952637,-0.1478924561,-1.110241241,3.569244705
24.29424979,3.66467926,-0.8601113892,-0.4213737488,3.787772633
24.30433229,3.84250946,-2.024390259,0.2628533936,4.351106386
24.31441329,3.499273224,-3.456162872,1.247056732,5.07396545
24.32449629,2.631078644,-5.114713898,2.42555603,6.242290857
24.33457729,1.078956299,-7.348668365,4.486320648,8.677219969
24.34465929,-0.3873944092,-10.95945969,8.066126404,13.61331063
24.35474129,-2.188898163,-15.69022202,11.28802643,19.45234903
24.36482329,-7.195686493,-21.78270264,21.82266953,31.66216896
24.37490529,-12.92861481,-29.24932571,26.05362122,41.24879773
24.38498729,-12.76500504,-31.6157547,11.88169189,36.10645235
24.39506929,-9.375603333,-23.83508469,5.765710144,26.25369714
24.40515129,-6.276747437,-12.72713379,4.478536835,14.88068497
24.41523329,-3.859274597,-5.977070618,3.774550781,8.053980828
24.42531529,-1.707349548,-2.755619659,2.434387665,4.053976503
24.43539729,0.3025209045,-2.480940857,-1.723216553,3.035796719
24.44547929,3.770359497,-5.886209564,-8.09232193,10.6933974
24.45556129,8.6328479,-11.04732697,-10.99568436,17.8178161
24.46564329,11.39894577,-14.43223801,-9.750723267,20.81590889
24.47572529,11.63964523,-15.05239838,-6.316414948,20.04876894
24.48580729,10.29813492,-14.92157043,11.40613083,21.41972613
24.49588929,3.781436462,-14.61425949,25.71592346,29.81919787
24.50597129,0.9104067993,-10.80632812,5.15542923,12.00766499
24.51605329,-0.1435514832,-6.680607605,-7.403604126,9.973188009
24.52613529,-3.159629517,-3.88352417,-6.761289825,8.413088539
24.53621729,-3.146157532,-3.205134888,-6.784491577,8.136370372
24.54629929,0.5215155029,-5.283413086,-7.276668091,9.007570747
24.55638129,4.160897369,-8.007598114,-8.208630066,12.19902873
24.56646329,5.423521729,-9.779463501,-8.306376801,13.93012526
24.57654529,4.79857132,-10.36429733,-7.546706543,13.68932889
24.58662729,3.343297577,-10.42087967,-5.793851624,12.38309688
24.59670929,1.467099152,-11.40672958,-2.0968396,11.69027784
24.60679129,-0.8024812317,-12.96618668,1.300944672,13.05597297
24.61687329,-2.311044159,-13.79890503,3.212020569,14.35506117
24.62695529,-2.405946808,-12.97352142,3.52666626,13.65789929
24.63703729,-1.082099762,-10.97876953,1.864073639,11.18834621
24.64711929,0.3077600098,-9.182654572,0.2179467773,9.190395095
24.65720129,1.394649811,-7.8219841,-0.3290158081,7.952152838
24.66728329,2.99422348,-7.025041351,-0.7455995178,7.672841643
24.67736529,3.197351074,-6.975195007,-2.143243103,7.966799249
24.68744729,3.61318634,-7.663912811,-2.041005707,8.715295715
24.69752929,2.909499664,-8.703351288,-1.221909027,9.257784487
24.70761129,1.874701538,-9.398954773,-0.5478607178,9.599739999
24.71769329,0.9948312378,-9.82871109,0.7283853149,9.905745608
24.72777529,0.1185534668,-9.433981934,2.015259247,9.647556161
24.73785729,-0.6929090881,-8.513096924,2.334844666,8.854628273
24.74793929,-1.509161682,-7.710765381,1.711091766,8.041225452
24.75802129,-2.067051544,-7.14449295,0.2998265076,7.443546033
24.76810329,-1.760339355,-7.153773651,-1.649270325,7.549527449
24.77818529,-0.7800279236,-7.807164917,-3.056194611,8.420248993
24.78826729,-0.08696914673,-8.806187439,-2.909200287,9.274693911
24.79834929,0.1317260742,-9.943971405,-1.399739227,10.04286757
24.80843129,0.2231858826,-10.86021606,0.7875123596,10.89101835
24.81851329,0.1562750244,-11.08430008,3.172502747,11.53043381
24.82859529,-0.2652484131,-11.16019226,4.505630493,12.03831193
24.83867729,-1.138981476,-11.41166931,3.091072083,11.87763452
24.84875929,-1.896556091,-11.95953003,0.4923262024,12.11897969
24.85884129,-2.859803009,-12.20472015,-0.9029223633,12.56777371
24.86892329,-4.283941498,-12.45724503,-0.9592053223,13.20814837
24.87900529,-5.594915314,-12.76904663,-0.07200027466,13.94119124
24.88908729,-6.287974091,-13.03788757,1.831291809,14.59036532
24.89916929,-5.764362946,-12.87218216,4.089645538,14.68489545
24.90925129,-4.749473419,-12.77757889,5.247487793,14.60685278
24.91933329,-4.133204956,-12.70857239,3.821852417,13.89955939
24.92941529,-4.605173492,-12.09439957,1.780996399,13.06346324
24.93949729,-4.984484711,-11.01723953,1.191073151,12.15085635
24.94957929,-4.713548126,-10.96275284,2.02663559,12.10399676
24.95966029,-3.093467102,-13.1729068,3.773652649,14.04761427
24.96974229,-0.4879852295,-15.58319458,3.748804321,16.0351993
24.97982429,2.405797119,-17.62719406,0.8894503784,17.81283111
24.98990629,5.436993713,-18.84072052,-4.810097351,20.19085652
24.99998829,8.665180664,-19.84947281,-7.321125641,22.86232288
25.01007029,11.91761719,-19.75696518,-5.093009033,23.62850003
25.02015229,12.55229736,-18.04961563,-0.5966592407,21.99328979
25.03023429,9.185798035,-15.6254068,5.473517761,18.93387493
25.04031629,6.72910675,-13.36735245,7.646249542,16.80571692
25.05039829,6.04113739,-12.3342009,4.361629944,14.41012382
25.06048029,4.794080658,-12.13047455,-0.4885839844,13.05259884
25.07056229,0.6236032104,-11.39026382,-4.200864258,12.15624331
25.08064429,-4.060755615,-9.826016693,-3.485950928,11.18893177
25.09072629,-5.489833832,-8.346792755,-1.67322052,10.129506
25.10080829,-3.809428253,-7.642207947,-1.540446625,8.67686935
25.11089029,-0.7029382324,-7.458689575,-1.74581955,7.69246763
25.12097229,1.819616089,-7.349117432,-1.604513397,7.73918555
25.13105429,3.314707031,-6.726562042,-1.48595993,7.644736524
25.14113629,4.434228973,-6.218518524,-1.341660004,7.754509062
25.15121829,4.459526367,-5.865402832,-1.368005219,7.494115297
25.16130029,3.515738983,-6.025270386,-1.489402771,7.133205761
25.17138229,2.280058594,-6.173911285,-1.72007309,6.802536232
25.18146429,1.181193695,-5.511688385,-1.466051331,5.824365536
25.19154629,0.2406994629,-4.39486084,-1.214873657,4.566032855
25.20162829,0.1148112488,-2.909649353,-1.609453125,3.327097886
25.21171029,0.623303833,-1.504970398,-1.752705231,2.39278482
25.22179229,1.43222168,-0.4252656555,-1.847308502,2.37584901
25.23187429,2.286944275,0.01197509766,-1.800006866,2.910374931
25.24195629,2.774779816,-0.5581892395,-1.236279144,3.088586145
25.25203829,3.222049713,-1.353485413,-0.5842350769,3.543283469
25.26212029,3.600163422,-1.800904999,0.1336720276,4.027692104
25.27220229,3.388802948,-2.373763733,0.9794132996,4.251821973
25.28228429,2.930905151,-3.544778595,2.302661591,5.143725371
25.29236629,2.047142944,-5.403912506,4.278103638,7.189939871
25.30244867,0.7668553162,-8.594078522,8.048163757,11.7991183
25.31253067,-1.137783966,-13.36914871,12.73297165,18.49749325
25.32261267,-5.846991119,-20.81077377,22.83875656,31.44653258
25.33269467,-11.53186935,-31.0225383,29.93998947,44.62941701
25.34277667,-11.74293045,-35.65615265,15.26301041,40.5242782
25.35285867,-8.321046295,-28.34730148,6.009702759,30.14839697
25.36294067,-4.886588287,-15.20433243,5.208718414,16.79825042
25.37302267,-1.768272858,-7.725285187,3.84954483,8.810551374
25.38310467,0.04790039063,-4.111051025,2.169438629,4.648601827
25.39318667,1.67322052,-3.938310242,-1.037193146,4.402922222
25.40326867,4.993765411,-7.726931763,-6.046675873,11.00933497
25.41335067,8.797056427,-12.69584885,-11.64997375,19.34669657
25.42343267,10.1828746,-15.37273224,-14.1283699,23.22977976
25.43351467,8.870703278,-13.00794983,-9.911339264,18.60459033
25.44359667,8.494685211,-10.08767258,6.198759613,14.57207726
25.45367867,4.651576996,-9.991422729,24.48443436,26.85057211
25.46376067,3.560046844,-9.177415466,9.711355133,13.82784534
25.47384267,3.846700745,-5.051844635,-2.3436763,6.768386767
25.48392467,0.006586303711,-2.823578339,-6.057453461,6.683216325
25.49400667,-2.270328827,-3.921844482,-9.283694458,10.33064567
25.50408867,1.032702484,-7.181615753,-9.641300812,12.06634827
25.51417067,3.880081329,-9.895921326,-8.781937866,13.78791945
25.52425267,3.636537781,-10.88266937,-6.877897339,13.37768184
25.53433467,2.714155884,-11.2140802,-4.955894165,12.55719411
25.54441667,1.177451477,-11.25449615,-2.990032196,11.70428845
25.55449867,-1.032103729,-11.65641037,-0.5522016907,11.71503596
25.56458067,-2.787203979,-12.41503281,1.154399414,12.77631338
25.57466267,-3.365002441,-12.53837631,1.819316711,13.1089296
25.58474467,-2.91354126,-11.74787018,1.629661102,12.21298373
25.59482667,-1.649569702,-10.44947021,1.016985168,10.62764164
25.60490867,-0.7009922791,-8.8704039,0.343535614,8.904688217
25.61499067,0.6738986206,-7.300318909,-0.7411088562,7.368720232
25.62507267,2.23365509,-6.509513397,-1.61469223,7.068961079
25.63515467,2.841690674,-6.709946594,-1.726060638,7.488516176
25.64523667,3.693269806,-7.407196655,-1.069675598,8.345718066
25.65531867,4.202810211,-8.100704498,-0.2010319519,9.128276994
25.66539967,3.435505829,-8.851393433,0.2836601257,9.498964631
25.67548267,2.326462097,-9.251062317,0.4308041382,9.548830928
25.68556367,1.049168243,-9.343420258,1.02731369,9.458098621
25.69564567,0.09879455566,-8.961115265,1.538800049,9.092813247
25.70572767,-0.7447013855,-8.599766693,1.206790466,8.715899871
25.71580967,-1.340612183,-8.4351091,0.3393443298,8.54771672
25.72589167,-1.464853821,-8.341703339,-0.8120613098,8.50818752
25.73597367,-0.9398954773,-8.41879303,-1.632056122,8.626881637
25.74605567,-0.4954696655,-8.597521362,-2.002984772,8.841652095
25.75613767,-0.4652325439,-8.940757599,-1.626068573,9.099323424
25.76621967,-0.596509552,-9.708061981,-0.4960684204,9.739013038
25.77630167,-0.4796026611,-10.78926361,1.188378754,10.86510341
25.78638367,-0.3466790771,-11.53501282,3.116818542,11.95371344
25.79646567,-0.3864962769,-11.74218201,3.97243927,12.40195514
25.80654767,-0.6489006042,-11.86088516,2.882106628,12.22326501
25.81662967,-1.205293579,-12.08975922,0.8732839966,12.18103589
25.82671167,-2.467468872,-12.16520233,-0.4923262024,12.42267827
25.83679367,-4.064497833,-12.06027054,-0.7990383911,12.75181283
25.84687567,-5.216352539,-12.16984268,-0.05673202515,13.24079391
25.85695767,-5.394631805,-12.41039246,1.499880981,13.61504815
25.86703967,-4.648882599,-12.47191452,3.295397186,13.71205323
25.87712167,-3.688629456,-12.20486984,4.522695007,13.52847387
25.88720367,-3.681444397,-12.12014603,4.124073944,13.32137224
25.89728567,-4.094285889,-11.78050232,3.324287109,12.9071413
25.90736767,-4.302652588,-10.9552684,3.652404785,12.32358656
25.91744967,-3.932023315,-11.28697861,4.315825195,12.70759775
25.92753167,-2.543361053,-13.0919252,4.263583832,14.00161912
25.93761367,-0.5162763977,-15.20523056,2.354902954,15.39516631
25.94769567,0.9117539978,-17.23665619,-2.98838562,17.5175358
25.95777767,2.931503906,-18.67022507,-8.888815613,20.88497216
25.96785967,6.183641052,-19.36313416,-9.524244232,22.44726284
25.97794167,9.337432709,-19.21479263,-5.821993103,22.14252716
25.98802367,9.487720184,-17.89049652,1.200204163,20.28613295
25.99810567,7.875722351,-16.03959549,7.549700317,19.39828861
26.00818767,7.9905336,-14.70871307,7.887398071,18.50421346
26.01826967,8.501720581,-13.67466339,3.398233337,16.45672086
26.02835167,7.20302124,-12.50813919,-1.582509155,14.52037865
26.03843367,2.829416199,-10.57236465,-3.500770111,11.49068674
26.04851567,-1.950444031,-8.789422302,-2.26643692,9.284121533
26.05859767,-4.335883484,-7.929759979,-1.407373352,9.146675826
26.06867967,-3.959715729,-7.455246735,-1.649120636,8.601142447
26.07876167,-1.477277985,-7.211104431,-1.628313904,7.538818444
26.08884367,0.9156459045,-6.902895355,-1.649270325,7.156008965
26.09892567,2.213896179,-6.378835144,-1.550924835,6.92793201
26.10900767,3.021915894,-6.334377594,-1.305734711,7.138715452
26.11908967,2.712808685,-6.674470367,-1.431622925,7.345572125
26.12917167,2.22781723,-6.978488159,-1.749561768,7.531496065
26.13925367,1.506916351,-6.542594604,-1.425635376,6.863583413
26.14933567,0.6424639893,-5.478906555,-1.11622879,5.628245173
26.15941767,0.06167175293,-3.926933899,-1.307081909,4.139212047
26.16949967,0.1848655701,-2.343975677,-2.004182281,3.089521625
26.17958167,0.8545729065,-0.9255253601,-2.402653656,2.712865023
26.18966367,1.573677521,0.07050338745,-2.479893036,2.937907612
26.19974567,2.326462097,0.4038601685,-1.922302551,3.044794907
26.20982767,2.712060242,-0.07050338745,-1.299148407,3.007994027
26.21990967,3.150199127,-0.8388555908,-0.8982820129,3.381470659
26.22999167,3.65764389,-1.383722534,-0.155975647,3.913741852
26.24007367,3.677253113,-2.385140076,0.8412506104,4.463046742
26.25015567,3.441643066,-4.075574799,1.773362274,5.621390459
26.26023767,2.808310089,-6.331832886,3.344345398,7.691772188
26.27031967,1.66858017,-9.677226105,7.364086304,12.27447074
26.28040167,-0.1829196167,-14.21219559,11.62512543,18.36201253
26.29048367,-3.350782013,-21.31612289,21.34591095,30.35214572
26.30056542,-9.416917419,-31.82606735,32.43739609,46.40863671
26.31064742,-12.17328552,-36.53856766,15.84874237,41.6465898
26.32072942,-9.26004364,-29.02973236,4.838837585,30.85268414
26.33081142,-5.632038116,-15.64336945,3.438948669,16.97825753
26.34089342,-3.037483521,-7.1398526,2.528691559,8.16076481
26.35097542,-2.212249603,-1.707948303,2.609673157,3.823810887
26.36105742,-1.885479126,1.169068909,-0.923429718,2.40301396
26.37113942,-0.819994812,0.9228309631,-8.433911591,8.523782798
26.38122142,2.797083435,-2.961741028,-13.38591385,13.99207902
26.39130342,10.28615982,-9.287286987,-14.01804932,19.71203922
26.40138542,15.17184998,-15.72749451,-10.92907288,24.43325089
26.41146742,15.28875687,-18.46964218,-3.154989166,24.18321165
26.42154942,12.45964005,-22.08627136,31.89028381,40.743542
26.43163142,1.564696198,-22.88875259,30.28157913,37.9910161
26.44171342,-0.2796185303,-15.2525322,-5.908662872,16.35940775
26.45179542,-0.3486250305,-7.388036499,-12.30920288,14.36040035
26.46187742,-1.733545074,-2.590962067,-6.033054199,6.790876668
26.47195942,-1.529519348,-0.433049469,-4.501139832,4.77359624
26.48204142,0.9039701843,-1.626218262,-6.562203827,6.820869959
26.49212342,4.870870972,-5.004842377,-8.857680359,11.27973105
26.50220542,6.244863739,-7.639812927,-9.538165283,13.72376266
26.51228742,5.050647125,-9.724228363,-8.450527039,13.83766819
26.52236942,3.500770111,-11.99650314,-5.951773224,13.84178758
26.53245142,0.9782157898,-14.59000992,-2.2839505,14.80005829
26.54253342,-1.803599396,-15.96070953,2.078577576,16.196225
26.55261542,-3.604055328,-15.65399734,5.447771301,16.96216554
26.56269742,-4.017794952,-13.40507401,5.407355347,15.00260568
26.57277942,-2.313439178,-9.963131561,2.642454987,10.56402195
26.58286042,-0.9592053223,-7.584278412,-0.1062789917,7.645433219
26.59294342,0.09610015869,-6.196364594,-2.487676849,6.67777699
26.60302542,2.102078705,-5.69131485,-3.536096649,7.022377027
26.61310642,3.528612213,-5.976621552,-3.022215271,7.569999634
26.62318842,3.687731323,-6.762487335,-1.716630249,7.891604189
26.63327042,3.54657486,-7.823780365,-0.3974235535,8.59928357
26.64335242,2.806364136,-8.702752533,0.3082090759,9.149238993
26.65343442,1.498533783,-9.133556671,0.8214916992,9.292056262
26.66351642,0.09819580078,-8.999585266,1.196461945,9.079300555
26.67359842,-1.042881317,-8.719966736,1.145418091,8.856489368
26.68368042,-1.330283661,-8.335865479,0.8945397949,8.488610566
26.69376242,-1.172062683,-7.911947021,0.3661386108,8.006665603
26.70384442,-0.7309300232,-7.717800751,-0.2317181396,7.755797859
26.71392642,0.07319778442,-7.771838379,-0.8972341919,7.823800796
26.72400842,0.5053491211,-8.153245239,-1.439706116,8.294789893
26.73409042,0.3478765869,-8.829987946,-1.688339081,8.996676836
26.74417242,-0.1107696533,-10.15757721,-0.895587616,10.19758412
26.75425442,-0.8128097534,-11.54564072,0.6816824341,11.59427316
26.76433642,-1.404828644,-12.16175949,2.371219025,12.47014904
26.77441842,-2.078427887,-12.17927307,3.630101166,12.87758477
26.78450042,-2.725681915,-12.25890747,3.288960571,12.98181096
26.79458242,-2.703527985,-12.47266296,1.405128021,12.83942248
26.80466442,-3.127446442,-12.39796829,0.2622546387,12.7890311
26.81474642,-3.990102539,-12.21100708,0.7183561707,12.86645436
26.82482842,-4.598886566,-12.18855377,2.493215332,13.26373716
26.83491042,-4.722978516,-12.21894058,4.77746521,13.9439309
26.84499242,-3.795357513,-11.67796555,6.328539734,13.81412441
26.85507442,-2.544558563,-11.21048767,5.719306641,12.83979285
26.86515642,-2.602637787,-11.48247208,4.181704102,12.49430021
26.87523842,-3.196303253,-11.68964127,3.493285675,12.6121811
26.88532042,-3.490890656,-12.14065338,4.658612366,13.46419145
26.89540242,-2.736459503,-13.57871292,4.468956757,14.55476656
26.90548442,-1.818568268,-15.37183411,-0.8819659424,15.50413939
26.91556642,-1.182241516,-17.52256165,-7.037764893,18.92004219
26.92564842,1.304986267,-19.56521393,-10.35741165,22.17603574
26.93573042,4.953499146,-20.71871521,-8.623118134,22.98174232
26.94581242,8.72296051,-21.02452927,-4.055965576,23.12080725
26.95589442,9.634265442,-19.83959335,3.111429749,22.27351634
26.96597642,8.2572789,-17.29278946,8.195008392,20.84181817
26.97605842,8.343200226,-15.22274414,6.629563751,18.58203554
26.98614042,8.478369141,-13.98287247,1.935624847,16.46663625
26.99622242,6.656208344,-12.61666351,-2.353256378,14.45763201
27.00630442,2.496358795,-10.28705795,-3.441194,11.13091123
27.01638642,-1.778900757,-8.372988281,-1.873504028,8.762501812
27.02646842,-4.040697327,-7.536677399,-1.616039429,8.702891734
27.03655042,-3.722758484,-7.307803345,-1.624571686,8.360750781
27.04663242,-1.569486237,-7.344776459,-1.388662262,7.63789311
27.05671442,0.8337661743,-7.127129059,-1.745071106,7.384876967
27.06679642,1.849553833,-6.74317749,-1.882784729,7.241282371
27.07687842,2.569406891,-6.903793488,-1.856589203,7.59678483
27.08696042,3.082839203,-7.07668396,-1.987267456,7.97073305
27.09704242,3.024759979,-6.898554382,-1.730102234,7.72867901
27.10712442,2.243534546,-6.045328674,-1.552421722,6.632454994
27.11720642,1.181942139,-4.940176849,-1.304237823,5.244365626
27.12728842,0.8602610779,-3.44239151,-1.607357483,3.895344209
27.13737042,1.137933655,-1.864373016,-2.126477966,3.048391098
27.14745242,1.641935577,-0.5763015747,-2.571502533,3.104947861
27.15753442,2.271526337,0.3559597778,-2.785557404,3.611906603
27.16761642,3.058439941,0.592767334,-2.298320618,3.871395827
27.17769842,3.683090973,0.04146377563,-1.466051331,3.964364371
27.18778042,3.893703003,-0.729433136,-0.6245013428,4.010361293
27.19786242,4.168082428,-1.44734024,0.06631210327,4.412720498
27.20794442,4.235142975,-2.400707703,1.116977234,4.994744401
27.21802642,3.790118408,-4.23918457,2.182760925,6.090987492
27.22810842,2.775677948,-6.764133911,4.171824646,8.417957978
27.23819042,0.6719526672,-10.42896286,9.317224731,14.00090938
27.24827242,-2.012864227,-15.78871719,16.07701767,22.62312335
27.25835442,-5.460345154,-23.89031982,23.89106827,34.22493088
27.26843642,-10.62999481,-33.81168823,29.3277626,46.0037467
27.27851842,-13.29520248,-36.40115341,12.0369191,40.57947511
27.28860042,-10.19440063,-26.51136932,1.528621216,28.44495018
27.29868217,-5.494474182,-13.3534314,2.639461212,14.67890092
27.30876417,-2.704276428,-5.9534198,3.515289917,7.423852202
27.31884617,-1.823058929,-2.82223114,0.6429130554,3.420799565
27.32892817,0.550405426,-5.503156128,-3.777694244,6.697659838
27.33901017,7.456593933,-12.74509644,-8.351882172,16.96443963
27.34909217,13.57661728,-19.20790695,-13.87330032,27.30817987
27.35917417,13.20808365,-18.29001572,-12.87981628,25.97821811
27.36925617,10.87398743,-13.05914337,-2.249971161,17.14197183
27.37933817,6.052364044,-8.476872253,16.91243042,19.86249673
27.38942017,3.320544891,-6.374045105,13.49952759,15.29351871
27.39950217,4.838388519,-3.925886078,0.3128494263,6.238626429
27.40958417,2.09324707,-0.6670129395,-4.108356628,4.658882242
27.41966617,-1.056952057,-1.404529266,-7.636819153,7.836507952
27.42974817,1.890119476,-5.813760223,-10.89359665,12.49170955
27.43983017,6.754404144,-9.721683655,-10.73552536,15.98075759
27.44991217,6.82041687,-10.90003326,-7.6043367,14.93836497
27.45999417,5.292095032,-11.30314499,-3.963008881,13.09476215
27.47007617,2.930605774,-11.63515457,-1.297501831,12.06850376
27.48015817,-0.6435118103,-12.63627274,0.5355862427,12.66397839
27.49024017,-3.541934509,-13.58275452,1.521885223,14.11922997
27.50032217,-5.402116241,-13.5617981,1.740580444,14.70152535
27.51040417,-6.052064667,-12.47550705,1.153800659,13.91391458
27.52048617,-4.537214813,-10.36519547,0.1863624573,11.31628589
27.53056817,-2.111209717,-8.512797546,-0.3447331238,8.77745803
27.54065017,-0.3766168213,-6.925348663,-1.212478638,7.040766917
27.55073217,1.155297546,-5.924230499,-3.084785156,6.778430415
27.56081417,2.43842926,-6.16867218,-3.924538879,7.707169334
27.57089617,2.979703674,-7.037615204,-2.507884827,8.043391576
27.58097817,2.823877716,-8.193661194,-0.5918692017,8.686810592
27.59106017,2.398911438,-9.168434143,0.9854008484,9.528167481
27.60114217,1.8194664,-9.423054657,1.820364532,9.768221132
27.61122417,0.8340655518,-8.939560089,1.842069397,9.165403406
27.62130617,0.07319778442,-8.290809174,1.281934204,8.38965017
27.63138817,-0.01586700439,-7.717201996,0.9084608459,7.770505744
27.64147017,-0.1383123779,-7.5552388,0.2945874023,7.562244731
27.65155217,0.02829116821,-7.728578339,-0.8225395203,7.772277323
27.66163417,0.5315446472,-8.089328156,-1.852996674,8.315850311
27.67171617,0.9755213928,-8.397088165,-2.14354248,8.721095459
27.68179817,0.7970924377,-8.70664444,-1.400337982,8.85448814
27.69188017,0.1883084106,-9.583970032,0.08666976929,9.586211623
27.70196217,-0.6489006042,-10.87024521,1.489253082,10.9909589
27.71204417,-1.174158325,-11.83244431,2.420765991,12.13447543
27.72212617,-1.70360733,-12.30710724,2.876268768,12.75304233
27.73220817,-2.10147995,-12.26923599,2.346370697,12.6671159
27.74229017,-2.104623413,-12.25636276,1.153052216,12.48909113
27.75237217,-2.329904938,-12.07718536,0.3513194275,12.30488881
27.76245417,-3.027903442,-11.8430722,0.1119671631,12.22452842
27.77253617,-3.716621246,-12.20457047,0.7982899475,12.78288233
27.78261817,-4.066144409,-12.94343399,2.710862732,13.83527342
27.79270017,-3.735482025,-13.02710999,4.881349182,14.40440871
27.80278217,-2.598147125,-12.33539841,5.959856415,13.9438987
27.81286417,-2.134561157,-11.9426152,4.831652527,13.05860924
27.82294617,-3.320095825,-12.17538116,2.688708801,12.90318169
27.83302817,-4.572092285,-11.96566727,1.540147247,12.9016772
27.84311017,-5.034480743,-11.70011948,2.600841522,13.00012187
27.85319217,-4.259392548,-13.14865723,4.289929047,14.47180372
27.86327417,-1.797611847,-14.98997818,3.351380768,15.46488303
27.87335617,0.68332901,-16.85420151,-0.06376739502,16.86816864
27.88343817,3.013084259,-18.81123184,-5.761369171,19.90312777
27.89352017,5.58129364,-19.61476089,-9.210796051,22.37696243
27.90360217,8.552614746,-19.16539536,-7.135062561,22.1668382
27.91368417,9.940229187,-17.88510773,-2.35415451,20.59677834
27.92376617,8.035440216,-16.09078903,2.882855072,18.21517621
27.93384817,7.303162994,-14.50947739,4.681065674,16.90483657
27.94393017,7.903414764,-13.41555222,2.331401825,15.74409225
27.95401217,7.750732269,-12.50813919,-0.929866333,14.74422084
27.96409417,5.527405701,-11.04178848,-1.909728699,12.49481374
27.97417617,1.607806549,-8.810079346,-1.345851288,9.056150157
27.98425817,-1.519190826,-7.477101288,-1.108295288,7.709948306
27.99434017,-2.709665222,-6.959926758,-1.324445801,7.58531626
28.00442217,-2.891537018,-6.922654266,-1.351689148,7.623069721
28.01450417,-1.610351257,-6.89526123,-1.356628876,7.209597805
28.02458617,0.4722679138,-6.693929901,-1.629511414,6.905580493
28.03466817,1.468895416,-6.139782257,-1.426832886,6.472281823
28.04474917,1.966610413,-5.758225708,-1.219963074,6.205886699
28.05483217,2.193538513,-5.763165436,-1.362616425,6.315252217
28.06491417,2.113904114,-5.694608002,-1.744472351,6.319836602
28.07499617,1.515747986,-5.029241638,-1.429078217,5.443622687
28.08507817,0.8405021667,-3.91750351,-1.426832886,4.253131755
28.09515917,0.8229885864,-2.423161011,-1.906435547,3.191162169
28.10524217,1.302142181,-1.175056458,-2.333946533,2.919527078
28.11532317,1.782193909,-0.2252815247,-2.57539444,3.140003728
28.12540517,2.506387939,0.1342707825,-2.197280731,3.335873462
28.13548817,3.19555481,-0.07035369873,-1.57023468,3.561201642
28.14556917,3.408861237,-0.6707551575,-0.7373666382,3.551613291
28.15565217,3.458557892,-1.376387787,0.1323248291,3.724724942
28.16573317,3.695964203,-2.504441986,1.052760773,4.587012786
28.17581517,3.400628357,-4.381239166,2.456242218,6.065694988
28.18589717,2.429447937,-6.845414886,4.232598267,8.406950121
28.19597917,0.9544152832,-10.28690826,7.995024261,13.06337641
28.20606117,-1.089584198,-14.99222351,13.1303952,19.95898889
28.21614317,-4.821773071,-22.19299942,23.23618011,32.49151866
28.22622517,-11.04163879,-31.84507782,28.88887527,44.39137172
28.23630717,-14.14543442,-36.31972275,14.39571396,41.55059754
28.24638917,-11.56001083,-28.62946472,6.336622925,31.51877045
28.25647117,-6.302942963,-15.67121155,6.097570038,17.9581269
28.26655317,-2.949017487,-8.275391235,4.03680542,9.668226426
28.27663517,-1.342408447,-3.704047394,0.9439370728,4.05130161
28.28671717,0.09924362183,-1.866917725,-2.660267944,3.251500672
28.29679917,3.323688354,-5.307363281,-6.736740875,9.197754449
28.30688121,8.671916656,-12.68013153,-12.21968903,19.62928104
28.31696321,13.11437851,-18.1747554,-16.22895172,27.67105946
28.32704521,12.39542358,-16.46366364,-11.40328674,23.55278528
28.33712721,10.8120163,-11.93498108,4.895868988,16.83190432
28.34720921,4.473447418,-9.214238892,25.0134343,27.02935118
28.35729121,3.486998749,-8.502918091,12.31144821,15.36328524
28.36737321,4.598736877,-5.421575775,-4.298161926,8.307590547
28.37745521,0.7292834473,-2.385289764,-7.218139801,7.636949901
28.38753721,-1.193617859,-3.525319061,-8.278235321,9.076440828
28.39761921,2.234253845,-7.100185089,-10.32298325,12.72668463
28.40770121,5.807323608,-9.427545319,-8.526718597,13.97528348
28.41778321,5.508844299,-9.671987,-5.478008423,12.40577584
28.42786521,3.851191406,-9.83335144,-2.208058319,10.78897573
28.43794721,1.087338867,-10.97832047,0.1124162292,11.0326091
28.44802921,-1.723216553,-12.85796173,0.5804928589,12.98590109
28.45811121,-3.116070099,-14.04424484,0.1924996948,14.38706927
28.46819321,-4.049828339,-14.00083511,-0.1508862305,14.57557066
28.47827521,-3.842359772,-12.76844788,-0.3312611389,13.33816793
28.48835721,-2.122136993,-10.62475571,-0.5246589661,10.84731148
28.49843921,-0.04954696655,-8.821605377,-0.4010160828,8.830854445
28.50852121,1.809886322,-7.166646881,-1.750010834,7.595989332
28.51860321,2.470462646,-6.086193695,-2.865191803,7.166188907
28.52868521,2.996768188,-6.017935638,-3.460803223,7.561304641
28.53876721,3.817810822,-7.008425903,-2.971321106,8.516012108
28.54884921,3.849844208,-8.293503571,-0.813558197,9.179617576
28.55893121,3.140619049,-9.117539978,1.060394897,9.701415392
28.56901321,2.259251862,-9.273964691,1.867965546,9.726249809
28.57909521,1.282682648,-8.92309433,2.517764282,9.359808982
28.58917721,-0.08487350464,-8.419840851,2.232158203,8.711110934
28.59925921,-1.415456543,-7.896379395,1.106199646,8.098148086
28.60934121,-2.175575867,-7.491770782,-0.5828878784,7.823012085
28.61942321,-2.255210266,-7.414082336,-2.165995789,8.046497871
28.62950521,-1.510508881,-7.844138031,-2.846929779,8.48039785
28.63958721,-0.3168910217,-8.609945526,-2.608325958,9.001941245
28.64966921,0.2269281006,-9.702074432,-1.173110504,9.775373799
28.65975121,0.01392105103,-10.71950867,0.9804611206,10.76426328
28.66983321,-0.3061134338,-11.38607254,2.967578888,11.77042386
28.67991521,-0.7722441101,-11.7210759,3.91750351,12.38252054
28.68999721,-1.367406464,-12.10173431,3.042123871,12.55293956
28.70007921,-1.848206635,-12.72234375,1.188977509,12.91075388
28.71016121,-2.496059418,-13.29011307,0.1371148682,13.52317339
28.72024321,-3.373834076,-13.4077684,0.09160949707,13.82604073
28.73032521,-3.890409851,-13.20194641,1.11982132,13.80871745
28.74040721,-4.196223907,-12.96933014,2.8970755,13.93574059
28.75048921,-3.96196106,-12.66636017,4.82431778,14.1211847
28.76057121,-3.313060455,-12.28285767,5.666167145,13.92660806
28.77065321,-3.16037796,-12.03182968,4.124373322,13.1058525
28.78073521,-4.091890869,-12.07748474,1.283880157,12.81630043
28.79081721,-5.14016098,-12.05428299,0.01930984497,13.10447886
28.80089921,-5.452860718,-12.17313583,1.601819,13.43446129
28.81098121,-5.222489777,-13.82569931,5.27937149,15.6938244
28.82106321,-3.380869446,-16.01085526,5.989494781,17.42560794
28.83114521,-0.4305047607,-16.84222641,-0.3969744873,16.85240379
28.84122721,2.476450195,-17.19130051,-8.87279892,19.50385037
28.85130921,4.872068481,-17.69260803,-11.50926636,21.66168605
28.86139121,7.094347229,-17.98869232,-7.015610962,20.5704062
28.87147321,6.79586792,-17.49786301,-0.5587879944,18.77954405
28.88155521,4.577481079,-16.08899277,5.063220978,17.47699139
28.89163721,4.62418396,-14.55677902,5.186863861,16.13029601
28.90171921,5.483995972,-13.85039795,1.352437592,14.95783482
28.91180121,5.575755157,-13.47961899,-0.513432312,14.59632784
28.92188321,3.31725174,-12.26609253,-1.210083618,12.76422686
28.93196521,0.05658233643,-9.939780121,-1.114432526,10.00221927
28.94204721,-1.860930176,-8.497678986,-1.016236725,8.758215934
28.95212921,-2.167492676,-8.045169983,-1.420995026,8.45233763
28.96221121,-0.9642947388,-7.576943665,-1.951192474,7.883342674
28.97229321,0.8080197144,-7.020700378,-2.040856018,7.355829182
28.98237521,1.620230713,-6.617588654,-1.58774826,6.995610888
28.99245721,2.616558838,-6.413113861,-1.592837677,7.107147206
29.00253921,2.774630127,-6.302344208,-2.078577576,7.192954858
29.01262121,2.606380005,-6.428531799,-2.265688477,7.29743668
29.02270321,2.506238251,-6.362070007,-1.904639282,7.098226239
29.03278521,1.979483643,-5.851930847,-1.599124603,6.381273355
29.04286721,1.234782257,-4.791985016,-1.859133911,5.286226113
29.05294921,1.168320465,-3.444487152,-2.329755249,4.319400881
29.06303121,1.562750244,-2.351759491,-2.599194946,3.837808671
29.07311321,2.401456146,-1.348096619,-3.056044922,4.11385059
29.08319521,3.09137146,-0.7960446167,-3.010240173,4.387688507
29.09327721,3.41664505,-0.8815168762,-2.390678558,4.262144926
29.10335921,4.076323242,-0.912203064,-1.68489624,4.504153743
29.11344121,4.711751862,-1.098415833,-0.8551716614,4.913088796
29.12352321,5.006339264,-1.699865112,0.3595523071,5.299269014
29.13360521,4.517156525,-3.408561859,1.898651733,5.968909065
29.14368721,3.505260773,-5.814059601,4.321213989,8.047548227
29.15376921,1.784738617,-8.862769775,8.306376801,12.2772096
29.16385121,0.160765686,-13.01214111,13.35388046,18.64585169
29.17393321,-2.644999695,-19.02977737,21.50218597,28.83526403
29.18401521,-9.040001221,-29.40679825,35.20124863,46.75050064
29.19409721,-10.40965302,-36.39381866,19.74633728,42.69413015
29.20417921,-8.198002167,-31.65257812,1.624721375,32.73732825
29.21426121,-6.82745224,-17.93315781,1.394949188,19.23949418
29.22434321,-4.198618927,-7.977061615,2.534679108,9.364107597
29.23442521,-3.082240448,-2.441423035,3.949836273,5.573325686
29.24450721,-3.816014557,0.4107458496,1.952240295,4.306033142
29.25458921,-2.279759216,-0.5379812622,-7.054530029,7.433244235
29.26467121,3.919299774,-4.941823425,-14.19258636,15.53100245
29.27475321,10.72744217,-9.432335358,-14.82861374,20.58967584
29.28483521,14.17641998,-12.62130386,-10.62640228,21.75289912
29.29491721,14.1774678,-14.02568344,0.1248403931,19.94331904
29.30499971,11.56210648,-19.43034439,35.59193619,42.16641449
29.31508171,4.609065399,-22.02459961,20.5953717,30.50402936
29.32516371,0.4272116089,-15.26450729,-10.06252487,18.28775819
29.33524571,-3.899540863,-8.632099457,-10.20921982,13.92651174
29.34532771,-5.181624756,-4.970114594,-6.458768921,9.657482599
29.35540971,-3.736230469,-2.966830444,-6.719376984,8.240845105
29.36549171,-0.8720864868,-3.52546875,-6.781048737,7.692339483
29.37557371,1.564696198,-5.472320251,-5.981710968,8.256841359
29.38565571,2.954705658,-7.454498291,-6.312073975,10.20500407
29.39573771,2.755170593,-8.840765533,-6.223757629,11.15729623
29.40581971,1.617835693,-10.26131149,-5.402864685,11.70909274
29.41590171,0.4547543335,-12.0726947,-3.435505829,12.56023325
29.42598371,-0.5608836365,-13.5935321,-0.4670288086,13.61311211
29.43606571,-0.4125421143,-13.95098877,2.98718811,14.27317664
29.44614771,0.5649252319,-13.13758026,4.65696579,13.9499995
29.45622971,1.517244873,-11.49609375,4.325405273,12.37624072
29.46631171,2.271077271,-9.81703537,3.075205078,10.53512514
29.47639371,3.093467102,-8.344098358,2.530038757,9.251735634
29.48647571,3.466042328,-7.392676849,2.047741699,8.417741175
29.49655771,2.98838562,-6.668482819,0.8644523621,7.358423038
29.50663971,2.236948242,-6.649172974,-0.3576063538,7.024480121
29.51672171,1.620979156,-7.057074738,-1.325643311,7.361196062
29.52680371,1.122366028,-7.461234283,-2.020348663,7.810987854
29.53688571,0.7473957825,-7.960446167,-1.868264923,8.210829279
29.54696771,0.7767347717,-8.223748627,-1.204994202,8.347776315
29.55704971,0.7882608032,-8.308023376,-0.4020639038,8.355014237
29.56713171,0.5343887329,-8.377179565,0.5385800171,8.411467008
29.57721371,0.4590953064,-8.422984314,1.286873932,8.533081376
29.58729571,0.2890489197,-8.375083923,1.134640503,8.456535288
29.59737771,0.1025367737,-8.320297852,0.16615448,8.322588386
29.60745971,0.1175056458,-8.503965912,-0.6201603699,8.527358483
29.61754171,-0.1134640503,-9.127120056,-0.5801934814,9.146246175
29.62762371,-0.5267546082,-10.09994705,0.3656895447,10.12028308
29.63770571,-0.7252418518,-11.11094467,1.639989624,11.25471604
29.64778771,-0.7634124756,-11.93557983,2.858306122,12.29677919
29.65786971,-0.6071374512,-12.35710327,3.471431122,12.84980355
29.66795171,-0.646355896,-12.54421417,2.912942505,12.89419711
29.67803371,-1.210532684,-12.99477722,1.681902466,13.1589673
29.68811571,-2.473755798,-13.02456528,0.9430389404,13.29090256
29.69819771,-4.057462463,-12.73671387,1.2859758,13.42909586
29.70827971,-5.413791962,-12.25830872,2.716550903,13.67314612
29.71836171,-6.075865173,-11.56405243,4.501888275,13.81703457
29.72844371,-5.878276062,-10.8000412,5.330565033,13.40186341
29.73852571,-5.130730591,-10.26475433,5.212610321,12.60400271
29.74860771,-4.491859131,-10.3939357,4.87461319,12.32771477
29.75868971,-4.083508301,-10.57505905,5.622907104,12.65401115
29.76877171,-3.609294434,-12.02374649,7.079677734,14.41247109
29.77885371,-2.94273056,-14.34407135,3.544928284,15.06580773
29.78893571,-2.158361664,-16.04693024,-4.718487854,16.8649525
29.79901771,-1.643282776,-17.76445862,-11.18294495,21.05551296
29.80909971,-0.117355957,-19.01735321,-12.2452858,22.61903004
29.81918171,2.324067078,-19.09878387,-9.155261536,21.30689201
29.82926371,3.370540924,-18.34899307,-3.989803162,19.07785685
29.83934571,3.096161499,-17.20088058,2.487377472,17.653429
29.84942771,4.492308197,-16.16832779,5.795198822,17.75330915
29.85951071,6.617289276,-15.50984711,4.50368454,17.45356838
29.86959171,7.818840637,-15.0534462,2.051034851,17.0864641
29.87967471,7.202721863,-13.54742798,-0.2962339783,15.34600149
29.88975571,4.039649506,-10.67445236,-2.083068237,11.6018048
29.89983871,-0.6393205261,-8.679401093,-1.93412796,8.91524453
29.90992071,-3.968547363,-8.340954895,-0.936302948,9.284264104
29.92000271,-4.620142365,-8.079748077,-1.312321014,9.399480353
29.93008471,-3.013982391,-7.822433167,-1.950893097,8.60700496
29.94016671,-0.6291416931,-7.717651062,-1.689985657,7.925528923
29.95024871,0.7285350037,-7.813900909,-1.363813934,7.965412677
29.96033071,2.265838165,-8.062683563,-1.786085815,8.563351644
29.97041271,3.421584778,-7.891140289,-1.917961578,8.812259306
29.98049471,3.456761627,-7.371271362,-1.994901581,8.382390754
29.99057671,3.193608856,-6.312972107,-2.192341003,7.406693825
