Time (s),Acceleration x (m/s^2),Acceleration y (m/s^2),Acceleration z (m/s^2),Absolute acceleration (m/s^2)
40.00202554,-3.772754517,-1.461710358,2.608475647,4.813981617
40.01210754,-3.139122162,-0.6045927429,-0.1803749084,3.201898724
40.02218954,0.2406994629,-4.746629333,-7.903863831,9.222770176
40.03227154,6.251150665,-10.2586171,-14.01415741,18.45840506
40.04235354,11.32035919,-13.61897919,-13.09042831,22.02240767
40.05243654,12.84194504,-13.63574432,-7.419620819,20.14695631
40.06251854,12.28809677,-14.73056763,12.87637344,23.10385115
40.07260054,7.30016922,-18.36096817,27.15697678,33.58450551
40.08268254,3.873345337,-13.2883168,0.6318360901,13.85573471
40.09276454,0.7390132141,-6.629863129,-7.843389587,10.29660069
40.10284654,-3.07026535,-3.832779694,-6.186335449,7.898574289
40.11292854,-3.28446991,-2.923570404,-6.294410706,7.678190713
40.12301054,-0.2026785278,-4.68151474,-7.052733765,8.467509221
40.13309254,2.614163818,-7.6043367,-6.537505188,10.36333745
40.14317454,3.522924042,-9.764045563,-5.732778625,11.85800701
40.15325654,3.322490845,-10.95257401,-6.083499298,12.96174319
40.16333854,2.380200348,-11.70041885,-5.954018555,13.34224464
40.17342054,1.475332031,-12.45874191,-4.347110138,13.27758341
40.18350254,0.6442602539,-12.79823593,-1.254241791,12.87567616
40.19358454,-0.01242416382,-12.69450165,2.525847473,12.94335474
40.20366654,-0.4028123474,-12.07823318,4.395758972,12.85957509
40.21374854,0.1821711731,-11.04059097,3.995641022,11.74278428
40.22383054,0.7478448486,-10.03513184,2.589315491,10.39075058
40.23391254,1.102307739,-8.913514252,1.808838501,9.161752856
40.24399454,1.105002136,-7.964637451,1.241817627,8.136251623
40.25407654,1.388362885,-6.947652283,-0.4918771362,7.102067787
40.26415854,1.332978058,-6.317163391,-1.258433075,6.577768437
40.27424054,0.827479248,-6.246061249,-1.579964447,6.495713254
40.28432254,0.6369255066,-6.809489594,-1.939666443,7.108947076
40.29440554,0.9168434143,-7.438481598,-2.015558624,7.761062227
40.30448754,0.9982740784,-8.045918427,-1.158291321,8.189932432
40.31456879,1.169517975,-8.540789337,0.2622546387,8.624478668
40.32465079,1.227597198,-8.931925964,1.389261017,9.122299189
40.33473279,0.872535553,-9.08685379,1.909728699,9.326269018
40.34481479,0.6255491638,-8.972491608,2.1061203,9.237567869
40.35489679,0.4478686523,-8.683143311,1.661844177,8.852078296
40.36497879,0.1806742859,-8.238268433,-0.07125183105,8.240557432
40.37506079,-0.1157093811,-8.057594147,-2.014510803,8.306411131
40.38514279,-0.4454736328,-8.524323578,-2.66311203,8.941739479
40.39522479,-0.6873706055,-9.755662994,-1.321152649,9.868681935
40.40530679,-0.5322930908,-10.88237,0.8988807678,10.93239678
40.41538879,-0.3709286499,-11.55611893,3.015479279,11.94883208
40.42547079,-0.09654922485,-11.82705551,4.057462463,12.50406196
40.43555279,0.2300715637,-12.22687408,3.195704498,12.6396958
40.44563479,-0.3122506714,-12.58073822,1.674567719,12.69553668
40.45571679,-2.043251038,-12.81784515,1.74342453,13.09624214
40.46579879,-3.768413544,-12.96289352,2.537822571,13.73601443
40.47588079,-5.231321411,-12.71650589,3.804787903,14.26718812
40.48596279,-5.829178162,-12.0926033,5.233117676,14.40818841
40.49604479,-4.849315796,-11.33592682,5.120701447,13.35068103
40.50612679,-3.343147888,-10.50350784,4.119134216,11.76722489
40.51620879,-2.56835907,-10.67295547,2.834804993,11.33774961
40.52629179,-2.349065094,-11.59339142,1.409468994,11.91265857
40.53637379,-2.741848297,-13.09761337,0.7050338745,13.40008511
40.54645579,-3.426374817,-14.9989595,-0.4962181091,15.39334476
40.55653779,-3.856879578,-16.58670776,-2.924917603,17.2785861
40.56661979,-2.902763672,-17.73257492,-5.689518585,18.84783468
40.57670179,-1.081950073,-17.99408112,-7.389982452,19.48254121
40.58678379,0.3782633972,-17.77418839,-6.958280182,19.09142528
40.59686579,2.220332794,-16.66005524,-3.689826965,17.2076187
40.60694779,3.329226837,-15.4541629,1.45213028,15.8752507
40.61702979,4.524042206,-15.39653275,4.503085785,16.66727212
40.62711179,6.065985718,-14.8742688,3.505111084,16.4415893
40.63719379,6.455475769,-13.68334534,0.9728269958,15.16092014
40.64727579,5.352419586,-12.10742249,-0.3344046021,13.24197497
40.65735779,3.614832916,-10.59227325,-0.6336323547,11.21002942
40.66743979,0.9123527527,-9.082812195,-0.7991880798,9.163436391
40.67752179,-1.999092865,-8.536747742,-1.031804352,8.82819656
40.68760379,-3.487747192,-8.533155212,-1.354682922,9.317418321
40.69768579,-2.989134064,-8.589887238,-1.512454834,9.220011108
40.70776779,-0.8141569519,-8.712631989,-1.745520172,8.922984276
40.71784979,0.4017645264,-8.690028992,-1.779349823,8.879420274
40.72793179,0.9617500305,-8.748557281,-2.153122559,9.060803186
40.73801379,1.835483093,-8.567134552,-2.22078186,9.038620729
40.74809579,2.586022339,-7.685318298,-2.170636139,8.394241486
40.75817779,2.969973907,-6.65081955,-2.011217651,7.556397431
40.76826079,2.87372406,-5.472919006,-1.75629776,6.426174153
40.77834279,2.583028564,-4.570146332,-1.744322662,5.531811241
40.78842479,2.42555603,-3.861220551,-1.937121735,4.954269554
40.79850679,2.542911987,-3.271297302,-2.223625946,4.702371717
40.80858879,2.773881683,-2.938838654,-2.282303925,4.641131697
40.81867079,3.384611664,-2.400558014,-2.296374664,4.742532181
40.82875279,3.414699097,-2.161505127,-1.822160797,4.433119027
40.83883479,3.684288483,-2.401755524,-1.04961731,4.521516086
40.84891679,4.070036316,-2.683918762,-0.02544708252,4.875373123
40.85899879,4.426744537,-2.90411087,0.9000782776,5.370294969
40.86908079,4.569098511,-3.625311127,1.284329224,5.972356614
40.87916279,4.36327652,-5.342989197,2.040406952,7.193676117
40.88924479,3.258124695,-7.706424408,4.010310516,9.278305024
40.89932679,1.544637909,-10.22074585,8.05489975,13.10461606
40.90940879,0.4409829712,-13.2552356,11.24521545,17.38823186
40.91949079,-1.825753326,-17.66326904,17.7566748,25.11222707
40.92957279,-6.377487946,-23.9211557,27.00384521,36.63470621
40.93965479,-8.637188873,-28.29550919,17.543069,34.39471095
40.94973679,-8.909921722,-25.99853577,6.046675873,28.14023554
40.95981879,-8.029003601,-17.44068192,2.935395813,19.42315199
40.96990079,-5.662574615,-10.44976959,3.152294769,12.29631645
40.97998279,-4.428840179,-6.144422607,3.721560974,8.439109586
40.99006479,-6.29500946,-3.874842224,1.026714935,7.462954504
41.00014779,-5.609734497,-4.162693634,-8.705147552,11.16139478
41.01022979,1.165326691,-6.989565125,-15.71462128,17.23836793
41.02031179,10.65948349,-10.78522202,-15.32303558,21.5578529
41.03039379,14.73984833,-12.53358627,-9.687854004,21.63812443
41.04047579,14.92291763,-12.86978714,4.73764801,20.26746655
41.05055779,13.04162979,-16.61619644,40.82924515,45.96965685
41.06063979,8.62820755,-16.10336288,14.70122864,23.44974169
41.07072179,4.216282196,-11.38322845,-8.92893219,15.06919891
41.08080379,-2.428998871,-7.703280945,-10.55410263,13.290209
41.09088579,-4.38902298,-6.072871399,-7.661966858,10.71676378
41.10096779,-1.716181183,-5.495821381,-7.948471069,9.81465857
41.11104979,1.180145874,-6.387068024,-7.615862732,10.00943292
41.12113179,2.135159912,-7.639663239,-6.211632843,10.0751052
41.13121379,2.429447937,-8.935668182,-5.818250885,10.93619799
41.14129579,1.983375549,-9.815538483,-5.566324768,11.45698676
41.15137779,1.012793884,-11.05825424,-5.100942535,12.22007991
41.16145979,0.07963439941,-12.62175293,-3.276536407,13.04034814
41.17154179,-0.675844574,-14.03975418,-0.08128097534,14.05624665
41.18162379,-0.6982978821,-14.29572189,3.475023651,14.72858017
41.19170579,-0.2767744446,-13.02366714,4.68390976,13.84310372
41.20178779,0.5285508728,-11.15330658,3.368594971,11.66289183
41.21187079,1.681902466,-9.375303955,2.22781723,9.782039142
41.22195279,2.222727814,-7.923023987,2.049537964,8.480296805
41.23203479,2.459834747,-6.968009949,1.291514282,7.501463775
41.24211679,2.296973419,-6.289770355,0.1035845947,6.696867012
41.25219879,1.971849518,-6.42254425,-0.6261479187,6.747542248
41.26228079,1.617985382,-6.927893372,-1.192420349,7.213560116
41.27236279,1.574276276,-7.546556854,-1.440304871,7.84240679
41.28244479,1.18882782,-8.291856995,-0.7515870667,8.410296494
41.29252679,1.022972717,-8.537346497,-0.04550537109,8.598536452
41.30260879,0.8753796387,-8.539591827,0.513432312,8.599682019
41.31269079,0.6030958557,-8.408614197,0.885408783,8.476583394
41.32277317,0.2761756897,-8.332722015,0.7485932922,8.37083754
41.33285517,0.2751278687,-8.096064148,0.1327738953,8.101825655
41.34293717,0.3474275208,-7.842641144,-0.9470805359,7.907255373
41.35301917,0.5370831299,-7.766898651,-1.832639008,7.998233472
41.36310117,0.6078858948,-8.114026794,-1.957030334,8.368806594
41.37318317,0.5078938293,-8.984766083,-0.9791139221,9.052217506
41.38326517,0.2999761963,-10.28077103,0.6863227844,10.30802006
41.39334717,-0.09370513916,-11.61464722,2.495161285,11.88001012
41.40342917,-0.4029620361,-12.62399826,4.071832581,13.27055127
41.41351117,-0.8994795227,-13.25448715,5.054089966,14.21387767
41.42359417,-1.450184326,-13.29954346,4.022135925,13.96991296
41.43367617,-1.88383255,-12.97307236,1.46260849,13.19047592
41.44375817,-2.953807526,-12.76605286,0.2562670898,13.10582913
41.45384017,-4.147874451,-12.82727554,1.178948364,13.53269299
41.46392217,-4.765190735,-12.6129213,3.54657486,13.94170074
41.47400417,-4.677473145,-11.93228668,5.888604584,14.10439238
41.48408617,-4.219874725,-11.38307877,6.136638794,13.60294676
41.49416817,-4.073628845,-11.61868881,3.757336578,12.8726827
41.50425017,-4.544100494,-11.80834442,1.301693115,12.71928662
41.51433217,-5.401667175,-11.60716278,0.4680766296,12.81106287
41.52441417,-5.216951294,-12.03856567,2.399659882,13.3379913
41.53449617,-3.411405945,-14.3898761,4.038601685,15.3302488
41.54457817,-0.8542735291,-16.56919418,-0.05777984619,16.59130247
41.55466017,1.268162842,-18.00021835,-7.700885925,19.6193716
41.56474217,3.42832077,-18.49613708,-11.10031677,21.8421039
41.57482417,5.390889587,-18.24555817,-8.694519653,20.91785733
41.58490617,6.208339691,-16.93159058,-3.916006622,18.45419597
41.59498817,5.101391602,-15.14775009,2.342927856,16.15449907
41.60507017,5.332660675,-14.31607956,5.578299866,16.26360456
41.61515217,6.768624573,-14.01505554,4.240831146,16.13135795
41.62523417,7.739056549,-13.59188553,1.600322113,15.72238466
41.63531617,7.150480499,-12.57130783,-0.3471281433,14.46677745
41.64539817,4.487967224,-10.71037766,-1.699865112,11.73642112
41.65548117,0.8912466431,-9.067693634,-2.378703461,9.416773257
41.66556317,-1.729802856,-8.679401093,-1.704954529,9.012829256
41.67564517,-2.463427277,-8.832682343,-0.4831951904,9.182495788
41.68572717,-1.423539734,-8.615933075,-0.9592053223,8.785262829
41.69580917,0.4333488464,-8.382119293,-1.557810516,8.536655591
41.70589117,0.9355545044,-8.199049988,-1.307830353,8.355244052
41.71597317,1.450783081,-8.248746643,-1.594933319,8.525866819
41.72605517,2.489024048,-7.786807251,-1.933678894,8.400519147
41.73613717,2.959046631,-6.739435272,-1.940564575,7.611946901
41.74621917,2.767594757,-5.68308197,-2.071691895,6.651985322
41.75630117,2.650987244,-4.74932373,-1.93532547,5.773152859
41.76638317,2.151326294,-3.79580658,-1.913171539,4.764092542
41.77646517,1.872905273,-3.079096985,-2.08037384,4.161318027
41.78654717,2.122885437,-2.254461823,-2.293530579,3.853507909
41.79662917,2.74738678,-1.80898819,-2.444865875,4.098529192
41.80671117,3.144211578,-1.727856903,-2.178569641,4.197346973
41.81679317,3.616479492,-1.64627655,-1.5726297,4.273442941
41.82687517,3.926335144,-1.752705231,-0.7113208008,4.358217591
41.83695717,4.358785858,-2.068997498,0.2198927307,4.829919007
41.84703917,4.716392212,-2.407144318,0.8038284302,5.355822944
41.85712117,4.40653656,-3.762126617,1.868115234,6.087775921
41.86720417,3.778891754,-6.047274628,3.604953461,7.990321819
41.87728617,2.118544464,-9.061855774,7.301516418,11.82867713
41.88736817,0.4448748779,-13.17709808,11.4383139,17.4547659
41.89745017,-1.657652893,-18.92289963,16.31996246,25.04326493
41.90753217,-6.20145401,-27.07030701,29.70557693,40.66547497
41.91761417,-10.00714005,-33.05605957,22.98530182,41.48698622
41.92769617,-9.910441132,-29.63896545,7.147337036,32.05884501
41.93777817,-7.845335541,-18.22864334,2.391277313,19.98877022
41.94786017,-4.806804199,-9.673633575,2.096091156,11.00355176
41.95794217,-2.701432343,-4.551135864,2.17632431,5.722496121
41.96802417,-2.215243378,-1.827998657,-0.5950126648,2.93307388
41.97810617,-1.272952881,-2.185155945,-7.383994904,7.805043003
41.98818817,2.93928772,-5.829627228,-13.45237564,14.95293872
41.99827017,9.555978241,-10.24724075,-15.22903107,20.69410666
42.00835217,13.21691528,-12.76769943,-10.484198,21.15701789
42.01843417,12.48733246,-12.78102173,-0.6038442993,17.87883151
42.02851617,9.239985352,-16.416362,34.74799118,39.52590494
42.03859817,5.808521118,-17.46044083,21.37884247,28.2074603
42.04868017,4.961582336,-11.20824234,-6.130800934,13.70506168
42.05876217,0.2439926147,-6.122418365,-10.83506836,12.4475799
42.06884417,-2.588117981,-4.216282196,-6.343807983,8.044830015
42.07892717,-0.6661148071,-3.848347321,-5.422773285,6.682810497
42.08900917,1.937121735,-5.455106049,-6.548881531,8.740621941
42.09909117,3.071762238,-7.28265564,-7.030280457,10.57816807
42.10917317,3.152594147,-8.552914124,-7.359445953,11.71548696
42.11925517,1.866468658,-9.258696442,-6.642736359,11.54699577
42.12933717,-0.4805007935,-10.60469742,-4.733756104,11.62320675
42.13941917,-2.077978821,-13.05944275,-1.484762421,13.30682383
42.14950117,-3.004402313,-14.6910498,1.565744019,15.0766353
42.15958317,-3.00006134,-14.55288712,3.244802399,15.20906421
42.16966517,-1.373094635,-12.91454407,3.116668854,13.35606462
42.17974717,0.5331912231,-10.683284,2.259551239,10.93263105
42.18982917,1.811233521,-8.927285614,1.605112152,9.249507031
42.19991117,3.050805817,-7.480693817,0.9755213928,8.137557257
42.20999317,3.752097473,-6.555617523,0.4031117249,7.564182416
42.22007517,4.161196747,-6.019582214,-0.559536438,7.339210409
42.23015717,3.599265289,-6.306535492,-1.097667389,7.343839202
42.24023917,2.466421051,-7.079528046,-1.578317871,7.661203395
42.25032117,1.689835968,-7.985593872,-1.517693939,8.302327986
42.26040317,0.9859996033,-8.772357788,-0.9165440369,8.875049822
42.27048517,0.4914280701,-8.84585495,0.2640509033,8.863429033
42.28056717,-0.1338217163,-8.6036586,1.265767822,8.697299451
42.29065017,-0.520916748,-8.231682129,1.498084717,8.383090286
42.30073217,-0.6475534058,-7.783963165,0.9885443115,7.873158694
42.31081417,-0.440533905,-7.430847473,-0.2380050659,7.447698349
42.32089617,0.0383203125,-7.556136932,-1.72231842,7.750035776
42.33097817,0.3954776001,-8.062683563,-2.660267944,8.499429058
42.34106017,0.2239343262,-8.875343628,-2.521955566,9.229416611
42.35114217,0.04805007935,-10.16880386,-1.338965607,10.25669097
42.36122417,0.3171903992,-11.54833511,0.3962260437,11.55948306
42.37130617,0.5415737915,-12.25007584,2.377955017,12.49048959
42.38138817,0.6559359741,-12.09230392,3.993844757,12.75166115
42.39147017,0.3585044861,-11.68036057,4.126618652,12.39307589
42.40155217,-0.462538147,-12.11580505,2.306403809,12.34204895
42.41163417,-1.770069122,-12.60573624,0.3405418396,12.73395852
42.42171617,-3.620072021,-12.76754974,-0.3216810608,13.27474017
42.43179817,-5.120551758,-13.16003357,0.5773493958,14.13293551
42.44188017,-5.917494507,-13.50341949,2.782114563,15.00330766
42.45196217,-5.597010956,-13.23098602,4.808450775,15.14947925
42.46204417,-4.193978577,-12.93639862,5.58593399,14.70178643
42.47212617,-2.985541534,-12.83505936,4.638404388,13.9702184
42.48220817,-3.289559326,-12.55394394,3.501967621,13.44196735
42.49229117,-3.938908997,-11.98871933,3.486100616,13.09187889
42.50237317,-3.261268158,-11.55132889,4.562512207,12.84077828
42.51245517,-1.636846161,-12.37102432,3.196602631,12.88176139
42.52253717,-0.3938310242,-14.21488998,-1.977986755,14.35725015
42.53261917,-0.2372566223,-15.98166595,-8.698710938,18.19718411
42.54270117,0.8541238403,-17.80682053,-10.63703018,20.7595471
42.55278317,3.068618774,-19.12647629,-7.075336761,20.62277641
42.56286517,5.205874329,-19.55353821,-0.5912704468,20.24330963
42.57294717,6.370602264,-18.71692795,6.461014252,20.80030457
42.58302917,7.500452728,-17.00808151,7.470514984,20.03347753
42.59311117,8.745563507,-15.03189102,3.182980957,17.67976234
42.60319317,8.887468414,-13.48171463,-0.5264552307,16.15614061
42.61327517,6.818171539,-11.61285095,-1.845362549,13.59231891
42.62335717,2.181713104,-9.402547302,-1.981579285,9.853650303
42.63343917,-1.32220047,-8.315358124,-0.7126679993,8.449928431
42.64352117,-2.329006805,-7.725135498,-0.6614744568,8.095649425
42.65360317,-1.940115509,-7.294930115,-1.262774048,7.653407859
42.66368517,0.1579216003,-7.157515869,-1.25199646,7.267906699
42.67376717,2.045047302,-7.156917114,-1.372346191,7.568818608
42.68384917,3.107537842,-7.329358521,-1.882485352,8.18046691
42.69393217,4.112547913,-7.423213348,-2.145638123,8.753337061
42.70401417,4.321363678,-7.207362213,-1.790726166,8.592261304
42.71409617,4.055965576,-6.87430481,-1.39120697,8.101998531
42.72417817,2.914439392,-6.269263,-1.05306015,6.993321902
42.73426017,1.545386353,-5.252726898,-0.8848100281,5.546372475
42.74434217,0.9421408081,-4.126019897,-1.22625,4.406286255
42.75442417,1.164428558,-2.797831879,-1.759890289,3.504421624
42.76450617,1.472188568,-1.520238647,-2.138602753,3.008668553
42.77458817,1.995949402,-0.4926255798,-2.465522919,3.21018648
42.78467017,2.5812323,-0.1103205872,-2.289488983,3.452055999
42.79475217,3.001109161,-0.2920426941,-1.698368225,3.460693538
42.80483417,3.484454041,-0.9696835327,-0.9927355957,3.750630624
42.81491617,3.954476624,-1.538350983,-0.1402583313,4.245477772
42.82499817,3.728296967,-2.549348602,0.6385720825,4.561485599
42.83508017,3.231330414,-4.189637604,1.680854645,5.551561207
42.84516217,2.097737732,-6.516399078,3.931274872,7.894230973
42.85524417,0.5712121582,-9.700876923,7.595056,12.33361958
42.86532617,-0.8315208435,-13.55281677,11.14881592,17.56890337
42.87540817,-4.010909271,-19.19578217,20.3220401,28.2409412
42.88549017,-9.806108093,-27.71411819,28.46091522,40.91767098
42.89557317,-10.95287338,-33.61065628,15.73707458,38.69492431
42.90565517,-9.392069092,-28.89411438,5.51108963,30.87803291
42.91573717,-6.587052155,-16.51844971,5.822591858,18.71232248
42.92581917,-3.202440491,-8.485554199,5.912255402,10.82658853
42.93590117,-2.816093903,-3.895349579,3.569177856,5.986916049
42.94598317,-2.314636688,-1.826052704,-3.274291077,4.406017877
42.95606517,2.265089722,-3.37802536,-9.55837326,10.38769398
42.96614717,9.843380585,-7.904163208,-11.93677734,17.37396301
42.97622917,15.67031342,-12.33958969,-10.86560486,22.71311439
42.98631117,16.56260788,-13.86656433,-5.04540802,22.18237427
42.99639317,15.79949478,-14.32536026,16.74522812,27.11535813
43.00647517,6.14876358,-14.61964828,27.00459366,31.31755878
43.01655717,-0.8412506104,-12.35381012,1.561253357,12.48045829
43.02663917,-4.404740295,-8.771160278,-7.746990051,12.50403313
43.03672117,-4.294719086,-5.892197113,-5.448370056,9.102051149
43.04680317,-2.038460999,-4.734654236,-6.012696533,7.919898584
43.05688517,1.001267853,-5.460045776,-6.949897614,8.894701458
43.06696717,3.524420929,-7.101532288,-8.415649567,11.56185372
43.07704917,5.070406036,-8.189619598,-8.434660034,12.80321743
43.08713117,4.847818909,-8.819659424,-7.774832153,12.71753732
43.09721417,3.023861847,-9.672585754,-5.273234253,11.42408224
43.10729617,1.12446167,-11.71014862,-1.347348175,11.84091812
43.11737817,-0.6641688538,-13.80115036,2.047741699,13.96803915
43.12746017,-2.017055511,-14.3487117,3.540587311,14.91609194
43.13754217,-2.591560822,-13.45013031,3.473227386,14.13101204
43.14762417,-1.717229004,-11.24371857,2.1459375,11.57476265
43.15770617,-0.3212319946,-9.054970093,0.7929011536,9.095293597
43.16778817,0.7475454712,-7.384593658,-0.4477189636,7.435825442
43.17787017,1.423689423,-6.145171051,-1.444645844,6.471245663
43.18795217,1.649270325,-5.587430878,-1.977537689,6.152246072
43.19803417,2.361788635,-6.173761597,-1.922302551,6.883939636
43.20811617,3.298840027,-7.223378906,-1.714085541,8.123893007
43.21819817,2.966381378,-8.460406494,-1.025816803,9.023868164
43.22828017,2.285447388,-9.526339874,-0.6045927429,9.815291822
43.23836217,1.7703685,-9.793833618,-0.2359094238,9.955352069
43.24844417,1.04602478,-9.572593689,0.4656816101,9.640828654
43.25852617,0.1839674377,-9.171427917,1.134341125,9.243141449
43.26860817,-0.4058061218,-8.494236145,1.101110229,8.574915162
43.27869017,-0.6947053528,-8.094866638,0.510737915,8.140659349
43.28877317,-0.5357359314,-7.958799591,-0.1236428833,7.977768578
43.29885517,-0.2329156494,-8.286767578,-0.5203179932,8.306352834
43.30893717,0.1353186035,-9.131610718,-0.5381309509,9.148453987
43.31901892,0.1884580994,-10.5850882,-0.02200424194,10.58678859
43.32910092,0.03113525391,-11.95653625,0.9023236084,11.99057615
43.33918292,-0.2517764282,-12.54945328,1.905088348,12.69572883
43.34926492,-0.7054829407,-12.40410553,2.533631287,12.67985913
43.35934692,-1.129850464,-11.83558777,2.985541534,12.2585137
43.36942892,-1.818568268,-11.68589905,2.833008728,12.16114162
43.37951092,-3.106639709,-11.85998703,2.169588318,12.45060706
43.38959292,-4.727768555,-12.1059256,1.704655151,13.10767253
43.39967492,-6.192023621,-12.07688599,1.911824341,13.70574347
43.40975692,-6.719676361,-11.65790726,2.999911652,13.78623668
43.41983892,-6.026018829,-11.12232101,4.121529236,13.30435759
43.42992092,-4.788093109,-11.29925308,4.28603714,12.99881034
43.44000292,-3.719764709,-12.24199265,3.448678436,13.2512798
43.45008492,-3.94789032,-12.81964142,5.122497711,14.35858722
43.46016692,-4.032763824,-13.69232666,6.849606171,15.83224868
43.47024892,-3.085234222,-15.21286469,1.466350708,15.59166786
43.48033092,-1.836680603,-16.6233815,-6.292315063,17.86906369
43.49041392,0.9970765686,-17.97387314,-10.57475967,20.87773502
43.50049592,3.726500702,-19.3319989,-10.26864624,22.20491127
43.51057792,6.142626343,-20.02805145,-5.389841766,21.63111411
43.52065992,9.038204956,-19.5749437,1.37833374,21.60479978
43.53074192,9.147328033,-17.94169006,6.537056122,21.17335484
43.54082392,8.670569458,-15.91370728,6.262077942,19.17390086
43.55090592,9.381890259,-14.77966553,2.294428711,17.65567277
43.56098792,8.608149261,-13.52677094,-0.5056484985,16.04149139
43.57106992,5.954018555,-11.52273834,-1.509311371,13.05763595
43.58115192,1.722019043,-9.414672089,-1.10919342,9.634921389
43.59123392,-1.385967865,-8.379125519,0.1306782532,8.493981881
43.60131592,-2.353106689,-8.247100067,-0.4655319214,8.588858514
43.61139792,-1.846859436,-8.385262756,-1.330732727,8.688749672
43.62147992,-0.2712359619,-8.291707306,-1.891017609,8.508932165
43.63156192,1.80195282,-7.959847412,-2.144889679,8.438409597
43.64164392,2.606380005,-7.629634094,-2.182910614,8.352821792
43.65172592,2.928959198,-7.67573822,-1.909878387,8.434654389
43.66180792,2.838696899,-7.519463196,-1.63924118,8.202904271
43.67188992,2.731370087,-6.866520996,-1.512604523,7.543040871
43.68197292,1.669328613,-5.763165436,-1.365909576,6.153571551
43.69205492,0.9536668396,-4.371060333,-1.406026154,4.689622418
43.70213692,0.8063731384,-2.924917603,-1.72231842,3.488805148
43.71221892,0.9331594849,-1.667981415,-1.983525238,2.754509211
43.72230092,1.50586853,-0.6048921204,-2.403551788,2.900102706
43.73238292,2.290237427,-0.09190887451,-2.597398682,3.46411816
43.74246492,2.756517792,0.04730163574,-2.256557465,3.562678679
43.75254692,3.082689514,-0.3579057312,-1.599423981,3.491307523
43.76262892,3.427572327,-0.6794371033,-0.9126521301,3.611484562
43.77271092,3.737427979,-0.9608518982,-0.08816665649,3.859971195
43.78279292,3.665727081,-1.608704681,0.8988807678,4.102861492
43.79287492,3.242108002,-3.055446167,1.982477417,4.876190345
43.80295692,2.694396973,-5.345683594,3.720213776,7.048127316
43.81303892,1.513053589,-9.063652039,8.218060455,12.32783992
43.82312092,-0.1115180969,-14.06774597,13.63484619,19.59139974
43.83320292,-4.314627686,-21.7618959,24.2476268,32.86553713
43.84328492,-10.41713745,-33.82081924,35.37638443,50.03851659
43.85336692,-10.61098434,-38.60876266,13.1052475,42.13047656
43.86344892,-8.761131134,-28.64084106,0.9509724426,29.96597311
43.87353192,-6.321504364,-13.61239288,2.695295105,15.24871382
43.88361392,-3.671564941,-5.086273041,3.840563507,7.355303571
43.89369592,-0.06661148071,-2.653082886,3.032693481,4.029952312
43.90377792,6.42374176,-6.971602478,-1.756148071,9.641149069
43.91385992,12.55723709,-13.24251205,-9.525292053,20.5859058
43.92394192,14.11010788,-15.26854889,-11.44594803,23.73254002
43.93402392,13.35058731,-12.3939267,-9.429940338,20.51271253
43.94410592,11.52498367,-7.153623962,3.074756012,13.90876375
43.95418792,6.938970337,-4.675078125,12.44362335,14.99498006
43.96426992,2.614762573,-4.693040771,2.233056335,5.817916774
43.97435192,-1.066382446,-4.895419922,0.605640564,5.046692801
43.98443392,-3.795956268,-6.447691956,-5.67020874,9.387932824
43.99451592,-1.610201569,-9.138945465,-11.15315689,14.50882428
44.00459792,3.666774902,-11.7462236,-11.15091156,16.60607828
44.01467992,5.41169632,-12.47969833,-7.578739929,15.57133991
44.02476192,3.903881836,-10.9950856,-3.919449463,12.30830146
44.03484392,2.371668091,-9.537865906,-1.160386963,9.896574835
44.04492592,1.09048233,-9.160201263,0.6819818115,9.250056113
44.05500792,-0.3332070923,-9.775870972,1.059796143,9.83879302
44.06509092,-1.644330597,-10.70498886,0.699944458,10.85313466
44.07517292,-2.243235168,-11.28907425,0.05149291992,11.50990673
44.08525492,-1.614093475,-11.24835892,-0.5789959717,11.37831764
44.09533692,-0.3447331238,-10.61278061,-0.6298901367,10.63704446
44.10541892,0.9310638428,-9.395062866,-0.2903961182,9.445550066
44.11550092,1.653910675,-8.186326447,-0.1420545959,8.352936054
44.12558292,1.971101074,-7.273075562,-0.2221380615,7.538714273
44.13566492,1.96690979,-6.878047028,-1.084045715,7.235428125
44.14574692,1.722019043,-7.210954742,-1.498234406,7.563592018
44.15582892,1.046922913,-8.031697998,-0.9828561401,8.159057942
44.16591092,0.593815155,-8.462801514,-0.1288819885,8.484588173
44.17599292,0.2543211365,-8.862320709,0.7643106079,8.898852639
44.18607492,-0.01437011719,-8.94524826,1.32803833,9.043304636
44.19615692,-0.4143383789,-8.686286774,1.276395721,8.789336735
44.20623892,-0.6036946106,-8.302035828,0.9110055542,8.373659725
44.21632092,-0.5519023132,-7.981252899,0.3379971313,8.007448786
44.22640292,-0.2905458069,-7.781418457,-0.5661227417,7.807392973
44.23648492,0.3469784546,-7.694598999,-1.329535217,7.816323413
44.24656792,0.9375004578,-7.704628143,-1.725312195,7.950905867
44.25664992,1.035247192,-8.086933136,-1.141226807,8.232412946
44.26673192,0.4984634399,-9.458530884,0.003891906738,9.471657058
44.27681392,-0.07723937988,-11.38367752,1.307680664,11.45880048
44.28689592,-0.362845459,-12.61277161,2.413580933,12.84675202
44.29697792,-0.7967930603,-12.89987457,2.932102661,13.25288154
44.30705992,-1.360071716,-12.78206955,3.141068115,13.23243764
44.31714229,-1.691781921,-12.9114006,2.547103271,13.26853898
44.32722429,-2.227068787,-13.21047867,1.506766663,13.48135482
44.33730629,-3.584895172,-13.2100296,1.105002136,13.73234813
44.34738829,-4.986280975,-12.90601181,1.966460724,13.97480256
44.35747029,-5.695506134,-12.40335709,3.568429413,14.10729406
44.36755229,-5.237458649,-11.76568314,5.038222961,13.82917074
44.37763429,-4.169729004,-11.03819595,5.414839783,12.9826384
44.38771629,-3.24585022,-10.99658249,4.205354919,12.21250916
44.39779829,-3.16277298,-11.34820129,3.303181,12.23502392
44.40788029,-3.747157745,-11.90504333,5.074447632,13.47298285
44.41796329,-3.472628632,-13.41136093,6.39455246,15.2582454
44.42804529,-2.345622253,-15.19310577,1.02387085,15.40716451
44.43812729,-1.641336823,-17.09744568,-8.014633484,18.95391741
44.44820929,-0.2802172852,-19.22482178,-12.58088791,22.97718509
44.45829129,2.235750732,-20.36544983,-10.4961731,23.01998648
44.46837329,4.824467468,-20.88217529,-5.603297882,22.15259981
44.47845529,5.647605743,-20.32353699,0.840352478,21.11037183
44.48853729,6.114933929,-18.51619537,6.651867371,20.60313684
44.49861929,8.139922943,-16.92440552,6.487958221,19.86925891
44.50870129,9.71404953,-15.9425972,3.391197968,18.97444037
44.51878329,9.005872192,-14.23913956,0.5551954651,16.85725575
44.52886529,6.271807709,-10.85856949,-1.41695343,12.61950317
44.53894729,2.210902405,-8.144114227,-0.9328601074,8.490283504
44.54902929,-0.841999054,-7.791297913,-0.6345304871,7.862309744
44.55911129,-2.093097382,-7.402256927,-1.591789856,7.855460471
44.56919329,-1.7504599,-7.006929016,-2.304008789,7.580872021
44.57927529,-0.4746629333,-6.979386292,-2.043849792,7.287966786
44.58935729,0.8915460205,-7.020101624,-1.875749359,7.32086858
44.59943929,2.414628754,-6.901997223,-2.14713501,7.620904568
44.60952229,3.323688354,-6.590345306,-2.071542206,7.666214362
44.61960429,3.164419556,-6.108048248,-1.948797455,7.149798322
44.62968629,2.3635849,-5.337600403,-2.066452789,6.192474366
44.63976829,1.250649261,-4.351900177,-1.871408386,4.89952325
44.64985029,0.5785469055,-3.174299011,-2.152523804,3.87869172
44.65993229,0.6957531738,-2.072590027,-2.49695755,3.318809863
44.67001429,1.212927704,-1.088985443,-2.921624451,3.345589984
44.68009629,1.917213135,-0.3384461975,-3.336711273,3.863145629
44.69017829,2.571652222,0.4014651489,-3.101699982,4.049087822
44.70026029,2.746937714,0.2941383362,-2.287243652,3.586595557
44.71034229,3.278931427,-0.2661465454,-1.346000977,3.554425961
44.72042429,3.755690002,-0.652792511,-0.3754193115,3.830441896
44.73050629,4.106710052,-1.602567444,0.6776408386,4.460099435
44.74058829,3.713178406,-3.213966522,1.958527222,5.287069468
44.75067029,3.215313721,-5.624254303,3.766766968,7.49393169
44.76075229,1.693727875,-9.415270844,8.228688354,12.61853205
44.77083429,0.01691482544,-14.6512326,13.24954742,19.75371889
44.78091629,-3.036585388,-22.27353195,23.36311615,32.42169448
44.79099929,-8.81427063,-33.38028534,35.87409943,49.78841056
44.80108129,-9.572294312,-38.20205841,14.94911316,42.1248391
44.81116329,-8.929231567,-29.2854007,2.642604675,30.7302657
44.82124529,-6.905140686,-14.14139282,3.406466217,16.10167603
44.83132729,-4.052223358,-5.258714447,3.910019073,7.704728479
44.84140929,-1.12910202,-2.007176056,1.996248779,3.047726412
44.85149129,3.2341745,-4.531526642,-3.366499329,6.505992325
44.86157329,8.194559326,-10.25667114,-10.23227188,16.64480379
44.87165529,11.3493988,-14.58192673,-13.37543564,22.81104379
44.88173729,11.66314636,-14.13794998,-11.87929688,21.8409777
44.89181929,10.75139236,-11.13399673,-0.6830296326,15.49273541
44.90190129,6.104156342,-9.208251343,17.4700209,20.67012936
44.91198329,1.479822693,-8.561296692,10.74735077,13.81995748
44.92206529,1.319655762,-5.73696991,-0.3276686096,5.895903815
44.93214729,-1.225501556,-3.381168823,-4.781057739,5.982697534
44.94222929,-2.166594543,-4.146227875,-8.384514313,9.601323751
44.95231129,1.388213196,-7.245532837,-10.02644989,12.44807533
44.96239329,4.735402679,-9.782008209,-9.24956543,14.27116617
44.97247529,4.857997742,-10.83566711,-6.783144379,13.67563057
44.98255829,4.0450383,-11.18878281,-4.936284943,12.88092018
44.99264029,2.40684494,-11.29955246,-3.086132355,11.95813536
45.00272229,0.2806663513,-12.08107727,-0.4845423889,12.09404742
45.01280429,-1.645378418,-13.13338898,2.056872711,13.39492074
45.02288629,-2.846181335,-13.40597214,2.951562195,14.01900697
45.03296829,-2.627785492,-12.41548187,2.146985321,12.87085827
45.04305029,-1.043779449,-10.79091019,1.06593338,10.89355003
45.05313229,0.1139131165,-9.204509125,0.342487793,9.211583051
45.06321429,0.595461731,-7.390581207,-0.3528163147,7.422920221
45.07329629,1.363664246,-6.041736145,-1.120420074,6.294243161
45.08337829,2.106569366,-5.80941925,-1.562301178,6.373991802
45.09346029,2.461181946,-6.621630249,-1.694775696,7.264686393
45.10354229,2.427801361,-7.768096161,-1.218316498,8.229327585
45.11362429,2.078427887,-8.696465607,-0.4123924255,8.950890684
45.12370629,1.565444641,-9.185798035,0.1344204712,9.319204436
45.13378829,1.230291595,-8.944499817,0.9240284729,9.075875881
45.14387129,0.7235952759,-8.351732483,1.61469223,8.537110553
45.15395329,0.04999603271,-7.671546936,1.778900757,7.87525364
45.16403529,-0.6258485413,-7.1597612,1.058598633,7.264605833
45.17411729,-0.8599617004,-7.011868744,0.07813751221,7.064838489
45.18419929,-0.3899391174,-7.379953308,-0.94543396,7.45047708
45.19428129,0.1579216003,-8.102949829,-1.932032318,8.331595528
45.20436329,0.4466711426,-8.990304565,-2.271825714,9.283656788
45.21444529,0.1737886047,-10.4351001,-1.407822418,10.53107214
45.22452729,-0.06137237549,-11.74532547,0.4261637878,11.75321456
45.23460929,-0.1101708984,-12.1271814,2.328707428,12.34923255
45.24469129,-0.2513273621,-12.07284439,3.520529022,12.57818992
45.25477329,-0.5295986938,-12.08826233,3.199147339,12.51563441
45.26485529,-1.02027832,-12.35500763,1.641935577,12.50532422
45.27493729,-2.15297287,-12.53643036,0.4899311829,12.72939161
45.28501929,-3.956572266,-12.56442215,0.349972229,13.17731568
45.29510129,-5.725892944,-12.74719208,1.458417206,14.05004401
45.30518329,-6.628066864,-13.05405396,3.075205078,14.95982892
45.31526529,-6.176605682,-12.95645691,4.612657928,15.07636715
45.32534654,-4.888534241,-12.80946259,5.083728333,14.62273547
45.33542954,-3.892804871,-12.95346313,3.656745758,14.01134992
45.34551154,-3.766916656,-12.75048523,2.54261261,13.53622597
45.35559354,-4.095184021,-12.17328552,3.722608795,13.37225594
45.36567554,-3.50556015,-12.80721725,4.796475677,14.11807156
45.37575754,-2.295027466,-14.5597728,1.898801422,14.86134522
45.38583954,-0.8493338013,-16.40019562,-2.960094452,16.68681945
45.39592154,1.075064392,-18.12460968,-7.479047241,19.63653195
45.40600354,3.448828125,-19.39187439,-7.969277802,21.24731975
45.41608554,5.805826721,-19.75816269,-4.824168091,21.15100978
45.42616754,8.042774963,-18.8423671,-1.253343658,20.5253964
45.43624954,8.195008392,-17.38978775,3.665577393,19.57036888
45.44633154,8.251890106,-15.82613937,6.024521942,18.83760182
45.45641354,8.601113892,-14.3792482,3.302731934,17.07776265
45.46649554,8.0197229,-12.76650192,0.05807922363,15.07656791
45.47657754,5.743256836,-10.95975906,-1.788630524,12.50202052
45.48665954,1.754950562,-8.996890869,-2.244133301,9.437162235
45.49674154,-0.9388476562,-7.666756897,-1.631008301,7.894351418
45.50682454,-2.109114075,-7.297624512,-1.683099976,7.780521269
45.51690654,-2.169438629,-7.260202332,-1.933678894,7.820237588
45.52698854,-0.4414320374,-7.153623962,-2.241289215,7.50949901
45.53707054,1.216669922,-6.86607193,-2.150877228,7.297225657
45.54715254,1.857487335,-6.598278809,-1.663939819,7.053810187
45.55723454,2.455493774,-6.800807648,-1.757345581,7.44101457
45.56731654,3.004851379,-6.847211151,-1.780996399,7.686701538
45.57739854,2.86085083,-6.48227005,-1.691332855,7.284565828
45.58748054,2.254461823,-5.519921265,-1.654958496,6.187973538
45.59756254,1.623823242,-4.085005188,-1.921404419,4.7974852
45.60764454,1.465901642,-2.601739655,-2.203717346,3.711372657
45.61772654,1.727108459,-1.276695099,-2.379751282,3.20563101
45.62780854,2.223775635,-0.3405418396,-2.8081604,3.598181715
45.63789054,2.744692383,0.06541397095,-2.739453278,3.878430033
45.64797254,3.284918976,0.1664538574,-2.096240845,3.900336555
45.65805454,3.360362091,-0.3516188049,-1.350192261,3.638500832
45.66813654,3.549269257,-1.148411865,-0.4797523499,3.761159979
45.67821954,3.665727081,-1.845512238,0.776585083,4.17690733
45.68830154,3.077450409,-2.997366943,2.261347504,4.854750472
45.69838354,2.347717896,-4.952151947,4.442012787,7.05457765
45.70846554,0.8069718933,-8.310418396,8.610993347,11.99430965
45.71854754,-0.7876620483,-13.09506866,13.88916733,19.10524022
45.72862954,-4.734055481,-20.66153412,24.95954636,32.74582764
45.73871154,-11.79966248,-32.66088135,34.22378128,48.75687039
45.74879354,-11.23907822,-39.42606308,12.14544342,42.75795979
45.75887554,-7.859555969,-31.03960281,2.64440094,32.12821843
45.76895754,-4.458628235,-15.33276535,4.588857422,16.6141708
45.77903954,-1.300645294,-6.396348724,4.867727509,8.142464386
45.78912154,-0.8373587036,-0.9916877747,2.772684174,3.061436226
45.79920354,-0.7366181946,1.08000412,-4.005819855,4.213740378
45.80928554,2.665207672,-2.091301117,-11.12860794,11.63283229
45.81936754,9.651779022,-8.215964813,-14.46247513,19.23075929
45.82944954,16.30993332,-13.50551514,-13.04327637,24.87046285
45.83953154,17.18306763,-15.51733154,-4.145778809,23.5209029
45.84961454,14.32281555,-18.24181595,27.33660324,35.84964116
45.85969654,4.219425659,-18.33073105,18.77141464,26.57414648
45.86977854,0.5008584595,-12.8265271,-5.537734222,13.97988401
45.87986054,-1.389859772,-6.690786438,-7.766748962,10.34508206
45.88994254,-2.094294891,-3.589685211,-5.380561066,6.798701964
45.90002454,-0.8756790161,-3.042872314,-6.202501831,6.963972618
45.91010654,2.046244812,-4.780758362,-8.978329468,10.37560448
45.92018854,4.690346375,-6.866820374,-9.111851807,12.33606155
45.93027054,5.361849976,-7.999514923,-8.873247986,13.09489229
45.94035254,4.413871307,-9.462871857,-7.217391357,12.69326363
45.95043454,2.299667816,-11.60506714,-3.848796387,12.44103247
45.96051654,-0.4954696655,-13.95652725,-0.2730322266,13.96798803
45.97059854,-2.714155884,-15.04087234,2.523153076,15.49066766
45.98068054,-4.122876434,-14.66515366,3.802093506,15.70097949
45.99076254,-3.619173889,-12.42102036,3.150199127,13.31555184
46.00084454,-1.586251373,-9.67078949,1.48955246,9.912574303
46.01092654,0.252973938,-7.991431732,0.528999939,8.012915691
46.02100954,1.492246857,-6.854545898,-0.3992198181,7.026448364
46.03109154,2.551444244,-6.217919769,-1.315464478,6.84856487
46.04117354,3.567980347,-6.387217712,-1.637145538,7.497151417
46.05125554,3.818708954,-6.778803406,-1.419049072,7.908755525
46.06133754,3.016676788,-7.526648254,-0.4905299377,8.123508627
46.07141954,2.014211426,-8.333620148,0.4143383789,8.583586006
46.08150154,1.174158325,-8.526718597,1.685494995,8.770659678
46.09158354,-0.06346801758,-8.322692871,2.404898987,8.663416413
46.10166554,-1.238674164,-7.966882782,2.296524353,8.383290467
46.11174754,-1.851499786,-7.69100647,1.483564911,8.048639439
46.12182954,-1.857487335,-7.579638062,-0.1796264648,7.805987318
46.13191154,-1.090182953,-7.658973083,-1.998194733,7.990065691
46.14199354,0.04086502075,-8.285270691,-3.138074341,8.859734248
46.15207554,0.6345304871,-9.358987885,-2.890788574,9.815800616
46.16215754,0.3522175598,-10.56128769,-1.178648987,10.63268867
46.17223954,-0.2689906311,-11.36421799,1.219514008,11.43262966
46.18232254,-0.7741900635,-11.83079773,3.765270081,12.43963038
46.19240454,-1.223405914,-11.97509766,5.141508179,13.08949167
46.20248654,-1.374441833,-12.25306961,3.475323029,12.81033471
46.21256854,-1.67322052,-12.64749939,0.923429718,12.79107619
46.22265054,-2.89243515,-12.57085876,-0.05987548828,12.89946729
46.23273254,-4.107907562,-12.20591766,0.68332901,12.89675421
46.24281454,-4.965623932,-12.09424988,2.337688751,13.28130603
46.25289654,-5.180876312,-12.00952606,4.207151184,13.73937104
46.26297854,-4.901557159,-11.7781073,4.948110352,13.68330626
46.27306054,-4.794829102,-12.09245361,4.048930206,13.62393689
46.28314254,-4.646936646,-12.55678802,3.110531616,13.74563031
46.29322454,-4.753814392,-12.56921219,3.73144043,13.94659435
46.30330654,-3.802243195,-13.16287766,4.80904953,14.5205151
46.31338854,-1.519639893,-14.91633133,3.732188873,15.45106726
46.32347167,0.4628375244,-16.93608124,-1.829495544,17.04089552
46.33355367,2.415377197,-19.26883026,-8.390950928,21.15490308
46.34363567,5.373825073,-20.80882782,-9.83335144,23.63429948
46.35371867,8.405620422,-21.30399811,-6.227050781,23.73375132
46.36380067,10.29050079,-20.06517426,-0.6415658569,22.55919394
46.37388267,8.933273163,-17.31389557,5.634433136,20.28105485
46.38396467,8.040679321,-14.90824814,8.140671387,18.79305502
46.39404667,8.198301544,-13.69082977,4.948858795,16.70754834
46.40412867,8.063581696,-12.72414001,-0.1435514832,15.06471692
46.41421067,5.105882263,-11.27395569,-3.206631775,12.78493637
46.42429267,-0.07005432129,-9.195976868,-2.62913269,9.564686971
46.43437467,-3.174299011,-7.686515808,-1.219064941,8.405047222
46.44445667,-3.354374542,-7.481591949,-0.9523196411,8.25426916
46.45453867,-2.092348938,-7.610324249,-1.449435883,8.024700844
46.46462067,-0.1127156067,-7.563321991,-1.779200134,7.770591835
46.47470267,1.628912659,-7.21828949,-2.030976563,7.673455897
46.48478467,2.819836121,-6.577322388,-1.64867157,7.343756769
46.49486667,3.285068665,-6.075565796,-1.521885223,7.072503836
46.50494867,3.525917816,-6.072272644,-1.516795807,7.183680187
46.51503067,2.936443634,-6.14412323,-1.169967041,6.909542268
46.52511367,1.762584686,-5.640570374,-1.176703033,6.025559637
46.53519567,0.3932322693,-4.690346375,-1.164877625,4.848806102
46.54527767,0.09190887451,-3.291954346,-1.638343048,3.678257549
46.55535967,0.3363505554,-1.719624023,-2.033820648,2.684523218
46.56544167,0.9111552429,-0.4878355408,-2.187101898,2.419008496
46.57552367,1.824855194,0.01811233521,-1.945204926,2.667254532
46.58560567,2.60458374,-0.2948867798,-1.261726227,2.909083661
46.59568767,3.441194,-0.5230123901,-0.6797364807,3.546462997
46.60576967,3.8273909,-0.8211923218,-0.01002914429,3.914508719
46.61585167,3.73488327,-1.427731018,0.995280304,4.120479558
46.62593367,3.493734741,-2.88899231,2.271376648,5.07066178
46.63601567,2.802172852,-5.081483002,4.100273438,7.105341966
46.64609767,1.334924011,-8.297245789,7.889493713,11.52694326
46.65617967,-0.4770579529,-12.52505402,12.50439697,17.70492886
46.66626167,-3.501817932,-18.35557938,19.49486023,27.00443664
46.67634367,-9.124425659,-28.47274063,32.42018188,44.10238425
46.68642667,-9.876910858,-35.85344238,19.43273941,41.96014847
46.69650867,-7.698191528,-30.53994186,4.755910034,31.85229791
46.70659067,-6.672374725,-16.7401387,3.358715515,18.33122468
46.71667267,-3.854035492,-7.96014679,3.693569183,9.58436121
46.72675467,-2.119592285,-3.25049057,3.068469086,4.947106521
46.73683667,-1.580862579,-1.557810516,-2.473456421,3.323234383
46.74691867,1.950444031,-4.436025238,-9.618997192,10.77068516
46.75700067,9.331145782,-10.47806076,-13.96969986,19.79930688
46.76708267,15.15388733,-14.70901245,-13.51210144,25.07134288
46.77716467,15.64097443,-14.74164459,-8.105494537,22.97074679
46.78724667,13.33157684,-15.01377869,15.67480408,25.47241595
46.79732867,5.032684479,-16.50318146,28.75520325,33.53423065
46.80741067,2.066752167,-12.2319635,1.013841705,12.44669718
46.81749267,-0.1474433899,-6.508615265,-9.230255585,11.29519501
46.82757467,-2.199675751,-3.731889496,-7.526648254,8.684238974
46.83765667,-1.14197525,-3.382516022,-6.87071228,7.742881205
46.84773967,2.126927032,-5.376220093,-8.094866638,9.947583977
46.85782167,4.271217957,-7.57859024,-8.051606598,11.85355228
46.86790367,4.684059448,-8.641380157,-7.718399506,12.49750195
46.87798567,3.985462189,-9.522747345,-6.976242828,12.45931739
46.88806767,2.423460388,-10.69466034,-4.819677429,11.97823904
46.89814967,0.1862127686,-12.36249207,-1.629810791,12.47085276
46.90823167,-2.145787811,-13.79725845,1.366208954,14.02979947
46.91831367,-3.480262756,-13.8271962,3.064277802,14.58401118
46.92839567,-3.497626648,-12.59421021,2.913990326,13.39174606
46.93847767,-1.798659668,-10.4880899,1.80315033,10.79289385
46.94855967,-0.2689906311,-8.461005249,0.6650669861,8.491365019
46.95864167,0.8387059021,-6.89181839,-0.4096980286,6.954742323
46.96872367,2.203717346,-6.152805176,-1.276096344,6.65896415
46.97880567,3.094664612,-6.110592957,-2.027833099,7.143416719
46.98888767,3.420087891,-6.321803741,-2.065554657,7.478550646
46.99896967,2.915936279,-7.017856293,-1.233584747,7.699007901
47.00905167,1.929038544,-8.080945587,-0.4379891968,8.319537597
47.01913467,1.139580231,-8.725205841,0.002245330811,8.799310491
47.02921667,0.4188290405,-8.806187439,0.713865509,8.844996266
47.03929867,-0.4275109863,-8.657995605,1.520687714,8.800917263
47.04938067,-1.015787659,-8.501271515,1.672322388,8.723537362
47.05946267,-1.53984787,-8.291407928,0.940045166,8.485414652
47.06954467,-1.527573395,-8.105644226,-0.4010160828,8.258072577
47.07962667,-0.7014413452,-8.1484552,-1.75749527,8.365293284
47.08970867,0.3965254211,-8.343649292,-2.687810669,8.774852826
47.09979067,0.9316625977,-9.195078735,-2.432890778,9.557009244
47.10987267,0.7676037598,-10.87219116,-0.3522175598,10.90494445
47.11995467,0.2448907471,-12.10308151,2.097138977,12.28586771
47.13003667,-0.2546205139,-12.477453,3.963158569,13.0942083
47.14011867,-0.8297245789,-12.51667145,4.462819519,13.31436311
47.15020067,-1.358574829,-12.78641052,2.626587982,13.12390887
47.16028267,-1.898202667,-12.99343002,0.3122506714,13.13506367
47.17036467,-3.16861084,-12.80811539,-0.4540058899,13.20204665
47.18044767,-4.465663605,-12.5955574,0.2002835083,13.36526585
47.19052967,-5.419031067,-12.74330017,1.952389984,13.98461382
47.20061167,-5.738766174,-12.86963745,4.175117798,14.69668718
47.21069367,-5.155578918,-12.72683441,5.800587616,14.90634512
47.22077567,-3.983665924,-12.63567398,5.544320526,14.36207998
47.23085767,-3.445534973,-12.8876001,3.323239288,13.74794046
47.24093967,-3.917353821,-12.50619324,2.101779327,13.27282964
47.25102167,-4.311035156,-11.95473999,3.646866302,13.22121273
47.26110367,-3.746858368,-12.59510834,5.557343445,14.26743733
47.27118567,-1.331930237,-14.0952887,3.648662567,14.62066825
47.28126767,0.8693920898,-15.57780579,-2.435734863,15.79103163
47.29134967,1.944905548,-17.98480042,-9.240284729,20.31301468
47.30143167,4.214485931,-19.96787659,-10.83521805,23.10584206
47.31151367,7.182513885,-20.77889008,-7.231462097,23.14400187
47.32159508,9.369915161,-20.12789383,-0.743354187,22.21440964
47.33167708,8.661887512,-17.49157608,5.814808044,20.36652945
47.34176008,7.981701965,-15.1276918,7.545509033,18.69463378
47.35184208,8.505612488,-14.12807053,4.157005463,17.0067197
47.36192408,8.670120392,-13.25598404,-0.07723937988,15.83976219
47.37200608,6.623276825,-11.61599442,-2.869682465,13.67604474
47.38208808,2.110760651,-9.126371613,-2.784210205,9.772297366
47.39217008,-1.396146698,-7.360643463,-1.69776947,7.681843462
47.40225208,-2.972668304,-6.72910675,-1.640887756,7.537250635
47.41233408,-2.587968292,-6.440656586,-1.599423981,7.123046694
47.42241608,-0.4610412598,-6.126459961,-1.747615814,6.387505908
47.43249808,1.654359741,-5.798042908,-2.074236603,6.376257931
47.44258008,2.55668335,-5.347180481,-2.102078705,6.288696505
47.45266208,2.992726593,-5.19749176,-2.27586731,6.414819177
47.46274408,3.15109726,-5.427263947,-2.049238586,6.601816922
47.47282608,2.797083435,-5.480104065,-1.678609314,6.37753444
47.48290808,1.46260849,-5.298082581,-1.275946655,5.642423459
47.49299108,0.4945715332,-4.573738861,-1.225501556,4.760834195
47.50307308,0.2646496582,-3.584895172,-1.623972931,3.944464592
47.51315508,0.7445516968,-2.049238586,-2.131417694,3.049045326
47.52323708,1.347497864,-0.6737489319,-2.870730286,3.242033388
47.53331908,2.069745941,-0.1139131165,-2.955753479,3.610166629
47.54340108,2.902613983,0.3541635132,-2.436034241,3.80589839
47.55348308,3.230731659,-0.04984634399,-1.608704681,3.60943797
47.56356508,3.956272888,-0.5385800171,-0.6727011108,4.049035735
47.57364708,4.060755615,-1.53520752,0.5167254639,4.371910738
47.58372908,3.78173584,-3.298390961,1.954485626,5.385250501
47.59381108,2.885250092,-5.781726837,4.059707794,7.631137575
47.60389308,1.156794434,-9.761351166,8.44214447,12.95731273
47.61397508,-0.918639679,-15.37662415,13.86446869,20.72457384
47.62405708,-4.941074982,-23.85379578,24.76854355,34.74044537
47.63413908,-9.293873291,-35.43925369,32.98570587,49.2988192
47.64422108,-9.167086945,-38.96562057,14.07044037,42.43032361
47.65430408,-7.424111481,-27.05937973,3.661535797,28.29724911
47.66438608,-4.752766571,-12.41458374,4.025878143,13.88950591
47.67446808,-2.193538513,-4.479734344,4.235891418,6.543883183
47.68455008,-0.9792636108,-0.3011737061,2.020947418,2.265809191
47.69463208,0.2290237427,0.2008822632,-3.82379837,3.835914433
47.70471408,3.597918091,-3.977977753,-9.697583771,11.08207799
47.71479608,9.784552917,-10.72549622,-12.68267624,19.27755227
47.72487808,14.84433105,-15.67300781,-12.32432144,24.85731758
47.73496008,15.50550613,-16.29496445,-5.774691467,23.22269684
47.74504208,12.99762131,-16.7348996,18.69402557,28.25706312
47.75512408,2.83630188,-15.35027893,17.93690002,23.77831058
47.76520608,0.2360591125,-11.01334763,-2.971021729,11.40949254
47.77528808,-1.041683807,-6.099066925,-5.453908539,8.2479598
47.78537008,-1.436113586,-3.73368576,-5.776038666,7.026055384
47.79545208,0.6788383484,-4.590354309,-7.037764893,8.429846314
47.80553408,3.992497559,-7.066804504,-8.66562973,11.87320097
47.81561708,5.071004791,-8.358767853,-9.000932465,13.28912619
47.82569908,4.752167816,-8.881181488,-8.439001007,13.14059441
47.83578108,3.301833801,-9.436826019,-6.343209229,11.84027428
47.84586308,1.329385529,-10.51503387,-3.064577179,11.03289792
47.85594508,-1.265468445,-12.10936844,0.1266366577,12.17597024
47.86602708,-3.662882996,-13.19221664,1.857487335,13.81671274
47.87610908,-4.667444,-12.83610718,1.857786713,13.7841232
47.88619108,-4.049379272,-11.41136993,1.025966492,12.15193168
47.89627308,-2.3237677,-9.381141815,0.3008743286,9.669345554
47.90635508,-0.5596861267,-8.014483795,-0.07050338745,8.03431203
47.91643708,1.255888367,-7.235653381,-0.4909790039,7.360230691
47.92651908,3.079845428,-6.917415161,-0.8699908447,7.621874077
47.93660108,4.109703827,-6.782845001,-0.9484277344,7.987250279
47.94668308,3.899091797,-6.936874695,-0.2306703186,7.960926841
47.95676508,2.586920471,-7.682474213,0.2040257263,8.108895982
47.96684708,1.390458527,-8.475375366,0.3091072083,8.59423701
47.97693008,0.6099815369,-8.827293549,0.784069519,8.883014909
47.98701208,-0.0802331543,-8.6527565,1.269659729,8.745780025
47.99709408,-0.7108717346,-8.252937927,1.532662811,8.424095106
48.00717608,-0.9014254761,-7.859106903,1.364263,8.027411958
48.01725808,-0.7222480774,-7.633825378,0.1666035461,7.66972548
48.02734008,0.01841171265,-7.563621368,-1.668131104,7.745409516
48.03742208,0.9089099121,-7.717800751,-2.996917877,8.32899048
48.04750408,1.294508057,-8.166567535,-2.750081177,8.713869571
48.05758608,0.8906478882,-9.440568237,-0.7164102173,9.50951239
48.06766808,0.137713623,-10.91305618,1.766476593,11.05595766
48.07775008,-0.7003935242,-11.95518906,3.708987122,12.53689283
48.08783208,-1.378184052,-12.36443802,4.051923981,13.08421976
48.09791408,-1.585951996,-12.74674301,2.900368652,13.16840307
48.10799608,-1.715133362,-13.28562241,1.178199921,13.44758715
48.11807808,-2.631228333,-13.46734451,0.1667532349,13.72299302
48.12816008,-4.116140442,-13.32843338,0.2948867798,13.95265949
48.13824308,-5.409450989,-13.24969711,1.500928802,14.38990691
48.14832508,-5.965993652,-13.24640396,3.26920166,14.89120471
48.15840708,-5.37532196,-13.08324326,4.875361633,14.96109927
48.16848908,-4.389621735,-12.97022827,5.362149353,14.70538153
48.17857108,-4.29307251,-13.31271606,4.233795776,14.61451016
48.18865308,-4.667893066,-12.46742386,3.415297852,13.74373104
48.19873508,-5.596112823,-11.20674545,3.870501251,13.11062174
48.20881708,-5.58249115,-11.20914047,4.590354309,13.33718075
48.21889908,-3.124602356,-12.45514938,3.247945862,13.24549125
48.22898108,-0.2603086853,-14.35514832,-1.046473846,14.39559486
48.23906308,0.8598120117,-16.47399216,-7.150480499,17.97946233
48.24914508,2.584226074,-18.90164383,-11.16153946,22.10272216
48.25922708,5.705235901,-20.28746201,-9.276808777,23.0258553
48.26930908,8.165220337,-20.55779984,-4.359085236,22.54541154
48.27939208,8.222102051,-18.96690811,2.513273621,20.82457946
48.28947408,7.572003937,-16.28044464,6.812333679,19.20406237
48.29955608,8.270750885,-14.82412308,5.954018555,17.98917125
48.30963808,8.947942657,-14.05307648,2.644101562,16.86848865
48.31971996,7.922574921,-13.02411621,-0.5418731689,15.25412806
48.32980196,5.046006775,-10.92173813,-1.832040253,12.1697543
48.33988396,1.349743195,-9.105115814,-1.271605682,9.29203539
48.34996596,-1.402433624,-8.402626648,-0.9683363342,8.573717392
48.36004796,-1.874551849,-7.692503357,-1.483564911,8.055402993
48.37012996,-0.7441026306,-7.029082947,-1.651365967,7.258698599
48.38021196,0.58737854,-6.896608429,-1.230441284,7.030092967
48.39029396,1.652563477,-6.831344147,-1.426084442,7.171606914
48.40037596,2.870131531,-6.549779663,-1.519789581,7.3107475
48.41045796,3.323239288,-6.111790466,-1.222807159,7.063509002
48.42053996,3.027903442,-5.543422394,-1.478176117,6.487120758
48.43062296,2.337239685,-4.762795715,-1.638941803,5.552750904
48.44070496,1.301244049,-3.650159454,-1.798659668,4.272244927
48.45078696,0.4613406372,-2.858306122,-1.856738892,3.439509904
48.46086896,0.5649252319,-1.896556091,-1.982028351,2.800803797
48.47095096,0.729433136,-0.7914042664,-2.436782684,2.663888748
48.48103296,1.366508331,-0.2040257263,-2.60817627,2.951534342
48.49111496,2.31209198,0.228874054,-2.250569916,3.234689723
48.50119696,2.689157867,-0.01032852173,-1.63115799,3.145211138
48.51127896,3.294349365,-0.6352789307,-0.9036708069,3.474613358
48.52136096,3.650907898,-1.158740387,-0.04894821167,3.830692325
48.53144296,3.650458832,-2.317331085,1.175804901,4.480891675
48.54152496,3.242706757,-4.239933014,2.596949615,5.936019405
48.55160696,2.689008179,-7.120692444,5.04540802,9.131876475
48.56168896,1.067729645,-11.45462997,9.96088623,15.21735355
48.57177096,-1.827549591,-17.31239868,15.24340118,23.13915222
48.58185296,-7.324269104,-26.47634216,29.03871368,39.97359759
48.59193596,-12.57235565,-37.05604156,29.20890976,48.83005993
48.60201796,-10.63538361,-36.81968307,7.666906586,39.08429228
48.61209996,-7.880063324,-22.85537201,2.16704361,24.27260814
48.62218196,-5.182822266,-9.802665253,3.238216095,11.5516205
48.63226396,-2.331701202,-2.734214172,3.4319133,4.968982444
48.64234596,1.513802032,0.3634442139,0.7198530579,1.715189994
48.65242796,5.939199371,-1.192719727,-5.395829315,8.112437582
48.66250996,10.52206924,-6.306685181,-10.72325089,16.29344435
48.67259196,13.25867844,-11.73589508,-11.7210759,21.23458046
48.68267396,14.37939789,-14.7283223,-10.29394363,23.01425291
48.69275596,14.51262085,-15.80308731,-0.7903564453,21.47040744
48.70283796,8.289312286,-16.21652756,21.33573212,28.0517723
48.71291996,-2.115401001,-13.89605301,11.18309464,17.96209387
48.72300196,-4.080664215,-9.967322845,-5.085823975,11.91070739
48.73308396,-4.273912354,-5.589975586,-5.348827057,8.838784121
48.74316696,-2.833158417,-3.384162598,-5.211263123,6.829099972
48.75324896,-0.09250762939,-4.160298615,-6.128106537,7.40745111
48.76333096,3.182831268,-6.589147797,-7.464976501,10.45338021
48.77341296,4.973258057,-8.575217743,-7.161407776,12.22920342
48.78349496,4.622387695,-9.60762085,-6.183790741,12.32526326
48.79357696,3.061433716,-10.11162277,-4.738097076,11.57872426
48.80365896,1.380579071,-11.08998825,-2.580783234,11.46971142
48.81374096,-0.1824705505,-12.75677216,0.1107696533,12.75855796
48.82382296,-1.613794098,-13.80579071,2.156715088,14.06611562
48.83390496,-2.142794037,-13.41136093,2.765798492,13.86022401
48.84398696,-1.12790451,-11.7993631,2.144141235,12.045517
48.85406896,0.07679031372,-9.830657043,1.283131714,9.914340203
48.86415096,0.4390370178,-8.208031311,0.688717804,8.248567374
48.87423296,0.9972262573,-6.559060364,-0.6462062073,6.665831946
48.88431596,1.979932709,-5.844446411,-1.845512238,6.440776568
48.89439796,2.830913086,-6.174060974,-1.796564026,7.0257199
48.90447996,2.630030823,-7.194189606,-1.367107086,7.780900205
48.91456196,2.39980957,-8.142467651,-1.199006653,8.573008946
48.92464396,2.242037659,-9.02488266,-0.5908213806,9.31795631
48.93472596,1.677112427,-9.141639862,0.182769928,9.296003997
48.94480796,1.114133148,-8.59782074,1.108444977,8.74027828
48.95488996,0.516126709,-7.952213287,2.005379791,8.217398071
48.96497196,-0.2029779053,-7.434440002,2.119741974,7.733395387
48.97505396,-0.612077179,-7.231761475,1.095871124,7.33988733
48.98513596,-0.4897814941,-7.526498566,-0.4617897034,7.556541292
48.99521796,-0.1478924561,-8.29589859,-1.594933319,8.449119356
49.00529996,-0.2893482971,-9.539961548,-1.464404755,9.65603801
49.01538196,-0.7259902954,-10.95347214,-0.2544708252,10.98045396
49.02546396,-1.09632019,-11.79352524,1.175206146,11.90253187
49.03554696,-1.39000946,-11.90878555,2.405198364,12.22850272
49.04562896,-1.591939545,-11.7966687,3.1054422,12.3020094
49.05571096,-1.816921692,-12.13032486,2.509082336,12.51964376
49.06579296,-1.998344421,-12.74659332,1.449286194,12.98342991
49.07587496,-2.922672272,-12.88640259,0.8488847351,13.24092105
49.08595696,-4.306245117,-12.79269745,0.9553134155,13.5317951
49.09603896,-5.344336395,-12.97426987,2.33080307,14.22414331
49.10612096,-5.504203949,-12.97591644,4.121379547,14.68524559
49.11620296,-4.548740845,-12.73701324,5.203778687,14.491441
49.12628496,-3.309168549,-12.75602371,4.716541901,13.99687483
49.13636696,-3.049159241,-12.5717569,3.954776001,13.52725755
49.14644896,-4.07303009,-11.71074738,3.260370026,12.82034285
49.15653096,-4.935985565,-11.24506577,3.980971527,12.9098254
49.16661296,-4.25565033,-11.88259003,5.05708374,13.59708062
49.17669496,-2.205064545,-13.79680939,2.638114014,14.21878702
49.18677796,-0.8663983154,-15.26675262,-4.712799683,16.00108942
49.19685996,0.4243675232,-17.43544281,-11.19462067,20.72424391
49.20694196,2.779869232,-19.62389191,-10.72848999,22.53719823
49.21702396,5.718109131,-20.94264954,-5.713618469,22.4485362
49.22710596,7.916886749,-20.83936432,0.6861730957,22.30307231
49.23718796,8.064479828,-18.82395538,6.518644409,21.49115763
49.24726996,8.287516022,-16.65421738,7.102280731,19.9120132
49.25735196,8.829239502,-14.93549149,3.481160889,17.69584294
49.26743396,8.345295868,-13.5617981,0.5920188904,15.93476756
49.27751596,5.942492523,-11.78589111,-1.658850403,13.30309105
49.28759796,1.435065765,-9.410780182,-1.760039978,9.680905852
49.29767996,-1.470541992,-8.131091309,-0.2050735474,8.265542619
49.30776196,-2.337988129,-7.723937988,-0.9720785522,8.128366579
49.31784396,-1.661095734,-6.901997223,-1.807940369,7.325670828
49.32792604,0.3709286499,-6.428082733,-2.007475433,6.7444639
49.33800904,1.743574219,-6.236930237,-1.839075623,6.732128117
49.34809104,3.423381042,-6.231391754,-1.787433014,7.331077529
49.35817304,3.897295532,-5.750292206,-2.07812851,7.250751066
49.36825504,3.59447525,-5.159919891,-2.384391632,6.725351222
49.37833704,3.088677063,-4.543950806,-2.404599609,5.997458979
49.38841904,2.176024933,-3.944297791,-2.048639832,4.948686162
49.39850104,1.441652069,-2.97087204,-2.161954193,3.946959247
49.40858304,0.8503816223,-2.294428711,-2.185605011,3.280917749
49.41866504,1.29645401,-1.459165649,-2.480940857,3.156742772
49.42874704,1.971250763,-0.5833369446,-2.902464294,3.556741562
49.43882904,2.488874359,-0.2137554932,-2.630779266,3.627834965
49.44891104,2.903362427,-0.2565664673,-1.839824066,3.446779994
49.45899304,3.082988892,-0.6462062073,-0.9475296021,3.289409569
49.46907504,3.546724548,-1.242266693,-0.05328918457,3.758366839
49.47915804,3.447480927,-2.305805054,0.6402186584,4.196634558
49.48924004,2.961142273,-4.251908112,1.683848419,5.448158556
49.49932204,2.063159637,-7.13161972,4.1339534,8.497423035
49.50940404,0.6340814209,-11.50268005,9.350605316,14.83736929
49.51948604,-1.07536377,-17.44816635,14.56321564,22.75262987
49.52956804,-5.405708771,-26.5196022,29.31668564,39.89961209
49.53965004,-11.85594543,-36.29412598,29.64001328,48.33588118
49.54973204,-12.98729279,-36.42495392,10.4416864,40.05590914
49.55981404,-10.37163208,-23.40532837,4.875511322,26.06052108
49.56989604,-7.102879486,-10.73268127,3.540138245,13.34818052
49.57997804,-4.838089142,-3.606600037,1.941762085,6.339172688
49.59006004,-2.406395874,0.06122268677,-0.3725752258,2.435836944
49.60014204,0.9572593689,-0.144150238,-7.407346344,7.470334976
49.61022404,6.028563538,-4.2427771,-13.08563828,15.01927644
49.62030604,12.05607925,-10.13751892,-13.10240341,20.48880943
49.63038904,14.89477615,-14.60931976,-10.39543259,23.30990346
49.64047104,15.53170166,-16.39121429,-1.333427124,22.6204264
49.65055304,11.69637726,-18.96166901,29.99761963,37.36585762
49.66063504,1.892664185,-16.62502808,14.83894226,22.36443479
49.67071704,-0.5159770203,-10.46907944,-7.775580597,13.05095821
49.68079904,-2.191891937,-5.710924072,-6.8133815,9.156484669
49.69088104,-3.212918701,-2.850821686,-4.633464661,6.318150491
49.70096304,-1.160386963,-3.040776672,-6.089486847,6.904684695
49.71104504,2.508483582,-5.703439636,-8.4059198,10.46332649
49.72112704,4.969815216,-8.193511505,-8.349936218,12.71039452
49.73120904,5.002297668,-9.3747052,-7.954009552,13.2730685
49.74129104,3.99579071,-9.860894165,-6.742429047,12.59618699
49.75137304,2.885549469,-10.78836548,-4.412224731,12.0076206
49.76145504,1.029259644,-12.62399826,-0.7987390137,12.69104769
49.77153804,-0.75353302,-14.06924286,2.48288681,14.30650669
49.78162004,-1.212778015,-13.79351624,4.585713959,14.5863187
49.79170204,-0.7039860535,-11.95399155,3.945046234,12.60781107
49.80178404,0.4439767456,-9.848170624,1.711391144,10.0056204
49.81186604,1.332528992,-8.283923492,0.3273692322,8.396796565
49.82194804,2.13770462,-6.972799988,-0.7786807251,7.334580042
49.83203004,2.477647705,-6.274502106,-1.939067688,7.019123758
49.84211204,2.684667206,-6.340065765,-1.365610199,7.019171114
49.85219404,2.236349487,-7.319778442,-0.8186476135,7.697441094
49.86227604,1.567540283,-8.492739258,-0.9870474243,8.692414236
49.87235804,1.215622101,-9.201365662,-0.3637435913,9.28844317
49.88244004,0.23635849,-9.316925354,0.6698570251,9.34396446
49.89252204,-0.7590715027,-9.221873016,1.52233429,9.377453448
49.90260404,-1.242865448,-8.938811646,1.830243988,9.20852112
49.91268704,-1.301992493,-8.517587585,1.646875305,8.772495711
49.92276904,-0.7933502197,-8.143066406,0.7250921631,8.213689409
49.93285104,0.2070195007,-7.990084534,-0.6689588928,8.02071156
49.94293304,1.096170502,-8.146808624,-1.799857178,8.414960867
49.95301504,1.351689148,-8.547974396,-1.78084671,8.835516104
49.96309704,0.8626560974,-9.538464661,-0.6635700989,9.600354624
49.97317904,0.1004411316,-10.65738785,1.189127197,10.72399308
49.98326104,-0.5625302124,-11.01604202,2.880310364,11.40025482
49.99334304,-0.9512718201,-10.92997101,4.050127716,11.69498691
