Time (s),Acceleration x (m/s^2),Acceleration y (m/s^2),Acceleration z (m/s^2),Absolute acceleration (m/s^2)
20.00067346,1.741179199,-2.163301392,-2.058519287,3.456744071
20.01075546,2.170636139,-1.889371033,-1.856140137,3.42441825
20.02083746,2.838846588,-1.565744019,-1.495839386,3.570453718
20.03092046,3.29958847,-1.788031769,-1.001716919,3.884298967
20.04100246,3.720812531,-2.17288147,-0.3534150696,4.32328139
20.05108446,4.085753632,-2.568957825,0.5409750366,4.856498845
20.06116746,4.03216507,-3.301833801,1.524280243,5.429907168
20.07124946,3.473826141,-4.690046997,3.176694031,6.64495251
20.08133146,2.767445068,-7.19134552,5.250930634,9.324509377
20.09141425,0.9273216248,-11.02487366,9.027277679,14.27933846
20.10149625,-1.520238647,-16.19796616,13.84590729,21.36338882
20.11157825,-4.64289505,-23.01913147,23.26222595,33.05401707
20.12166125,-8.873996429,-31.44002014,29.98923706,44.34610489
20.13174325,-10.01477417,-32.34668472,13.27709015,36.37148384
20.14182525,-8.206085358,-22.26978973,4.246519318,24.11050182
20.15190825,-5.466033325,-11.70595734,3.872447205,13.48713479
20.16199025,-4.033961334,-5.398224335,3.451223145,7.571301817
20.17207225,-2.26299408,-2.244582367,0.5528004456,3.23494676
20.18215525,1.652563477,-5.286556549,-2.995121613,6.296776927
20.19223725,5.810317383,-11.63889679,-8.323291626,15.44347403
20.20231925,8.260721741,-15.63154404,-11.79517181,21.25348844
20.21240225,9.339977417,-15.28651154,-11.49115402,21.28283895
20.22248425,8.778944092,-12.85122574,-6.351142731,16.80954718
20.23256625,5.512885895,-10.445728,10.79674805,16.00234085
20.24264925,0.307610321,-6.953340454,13.71912094,15.38368769
20.25273125,1.369801483,-4.06838974,3.660338287,5.641473882
20.26281325,-0.4632865906,-1.538949738,-0.8997789001,1.84190196
20.27289525,-2.151026917,-2.747686157,-5.218148804,6.277401768
20.28297825,-0.1654060364,-6.833140411,-8.418643341,10.84401783
20.29306025,3.29614563,-11.04178848,-8.572223969,14.3620574
20.30314225,4.224515076,-13.06198746,-7.471862183,15.62980385
20.31322525,3.63309494,-13.19491104,-6.385720825,15.10240003
20.32330725,2.954855347,-12.58373199,-4.406237183,13.65636874
20.33338925,2.474653931,-12.36743179,-1.48251709,12.69941487
20.34347225,1.364861755,-12.37671249,1.559906158,12.54907036
20.35355425,-0.1405577087,-12.21010895,3.132984924,12.60643136
20.36363625,-0.7602690125,-11.69308411,2.455344086,11.97225708
20.37371925,-0.2845582581,-10.9009314,1.089584198,10.95894486
20.38380125,0.4887336731,-9.842482452,-0.2466870117,9.857696278
20.39388325,0.9750723267,-8.713829498,-1.298998718,8.86391495
20.40396625,1.123114471,-7.906558228,-1.785337372,8.18306047
20.41404825,1.092428284,-7.197931824,-2.345173187,7.648755413
20.42413025,0.9382489014,-6.969806213,-2.272873535,7.390836472
20.43421325,0.4661306763,-7.291187897,-1.013991394,7.376101769
20.44429525,0.06197113037,-7.801027679,0.4680766296,7.815303513
20.45437725,0.1218466187,-8.026309204,1.207089844,8.117484335
20.46446025,-0.05553451538,-8.239465942,1.038540344,8.30484492
20.47454225,-0.409997406,-8.14725769,0.7412585449,8.191176349
20.48462425,-0.3776646423,-7.863298187,0.4724176025,7.886524415
20.49470725,-0.01691482544,-7.744445343,0.2499801636,7.748497265
20.50478925,0.4053570557,-7.817044373,-0.2486329651,7.831495095
20.51487125,0.7976911926,-8.067922668,-0.8298742676,8.149624453
20.52495425,0.7776329041,-8.455167389,-1.196012878,8.574672898
20.53503625,0.4150868225,-8.805438995,-0.5842350769,8.83455622
20.54511825,-0.4504133606,-9.462572479,0.1890568542,9.475172432
20.55520125,-0.9616003418,-10.15787659,0.8852590942,10.24162173
20.56528325,-1.095122681,-10.51323761,1.530118103,10.68029588
20.57536525,-1.134041748,-10.41953247,1.961820374,10.66308805
20.58544825,-1.24496109,-10.47177383,1.89550827,10.71451945
20.59553025,-1.550625458,-10.88865692,1.078956299,11.05130922
20.60561225,-2.467618561,-11.5140564,0.1996847534,11.77720298
20.61569425,-3.823498993,-11.81058975,-0.190254364,12.41552945
20.62577725,-5.159770203,-11.73005722,0.1778302002,12.81597029
20.63585925,-6.15699646,-12.01042419,1.238823853,13.55336044
20.64594125,-6.22256012,-12.55514145,2.951562195,14.32004018
20.65602425,-4.915777588,-12.34333191,4.703518982,14.0941762
20.66610625,-3.266058197,-11.61809006,5.069657593,13.09001837
20.67618825,-2.153571625,-10.67744614,4.881498871,11.93627907
20.68627125,-1.365759888,-9.892777863,5.668711853,11.48332042
20.69635325,-1.422342224,-11.35284164,5.897436218,12.87205596
20.70643525,-1.657203827,-13.25343933,3.019071808,13.69360337
20.71651825,-1.334325256,-14.86244339,-1.108444977,14.96333177
20.72660025,-0.4670288086,-16.55347687,-4.062851257,17.05117218
20.73668225,0.8734336853,-17.99063828,-6.473288727,19.13973403
20.74676525,3.096161499,-19.07363617,-6.598278809,20.41879272
20.75684725,6.185736694,-19.4222612,-4.070335693,20.78593758
20.76692925,9.0190448,-19.06704987,0.07813751221,21.09269222
20.77701225,8.978479156,-18.0779068,4.939578094,20.78035693
20.78709425,7.676037598,-16.79312851,6.930587769,19.72216431
20.79717625,7.321874084,-15.16840714,4.052522736,17.32378006
20.80725925,5.668262787,-13.10000839,0.1986369324,14.27511399
20.81734125,2.061962128,-10.89344696,-1.776655426,11.22832931
20.82742325,-1.259780273,-9.092242584,-1.353186035,9.278309867
20.83750625,-3.708987122,-8.043972473,-0.7008425903,8.885564639
20.84758825,-4.146527252,-7.45105545,-0.6306385803,8.550416399
20.85767025,-2.997217255,-7.104076996,-1.092727661,7.787507623
20.86775325,-1.171613617,-7.052434387,-1.383123779,7.281657822
20.87783525,0.3935316467,-6.867868195,-1.587149506,7.059852991
20.88791725,1.677262115,-6.693780212,-1.822759552,7.137391269
20.89800025,2.541115723,-6.564449158,-3.190764771,7.728534252
20.90808225,1.904040527,-7.035968628,0.4984634399,7.306072178
20.91816425,2.278711395,-7.12817688,-0.6659651184,7.513117914
20.92824625,1.709594879,-6.5466362,-0.7408094788,6.806611409
20.93832925,0.9463320923,-5.510640564,-0.7391629028,5.639952628
20.94841125,0.5451663208,-4.291875,-0.9687854004,4.433502282
20.95849325,1.002165985,-2.97206955,-1.432371368,3.448075087
20.96857625,1.503772888,-1.895208893,-2.006427612,3.14307197
20.97865825,2.194736023,-1.153950348,-2.501148834,3.521961542
20.98874025,2.45714035,-0.8476872253,-2.346819763,3.501953074
20.99882325,3.107238464,-1.055155792,-1.502126312,3.608970501
21.00890525,3.462000732,-1.630559235,-0.6590794373,3.883111921
21.01898725,3.637585602,-2.098635864,0.1612147522,4.202652936
21.02907025,3.687132568,-2.633623352,1.021625519,4.644850615
21.03915225,3.42712326,-3.853885803,1.990111542,5.527942979
21.04923425,3.003504181,-5.841452637,3.160976715,7.2894019
21.05931725,1.991758118,-9.032666473,5.401517487,10.71132836
21.06939925,0.009280700684,-13.74651398,9.916877747,16.95025654
21.07948125,-2.14473999,-19.65143463,15.3613559,25.03497649
21.08956471,-5.619015198,-27.78537003,29.10307983,40.62744608
21.09964671,-10.31100815,-34.78720963,26.66210587,45.02593399
21.10972871,-11.013647,-30.52227859,9.116941223,33.7050223
21.11981171,-7.752229156,-17.8934903,3.988455963,19.90431694
21.12989371,-4.684957581,-8.71128479,4.023034058,10.6780201
21.13997571,-2.994822235,-3.44239151,2.477947083,5.192228931
21.15005871,-0.9753717041,-1.443598022,-1.657652893,2.404815653
21.16014071,2.926115112,-4.607867889,-5.701044617,7.892813558
21.17022271,7.454198914,-10.50650162,-8.332272949,15.34204778
21.18030571,10.43734543,-14.66245926,-10.01806732,20.59824177
21.19038771,10.67115921,-14.24827057,-9.179810486,20.0288735
21.20046971,9.714797974,-11.79352524,-3.097957764,15.59044193
21.21055271,5.077740784,-9.819879456,12.88520508,16.97769106
21.22063471,-0.6352789307,-8.323291626,13.6308046,15.98372913
21.23071671,-0.8678952026,-6.583908691,1.988764343,6.932263653
21.24079871,-3.457360382,-4.425547028,-5.019362183,7.532118163
21.25088171,-3.686084747,-5.504802704,-7.411837006,9.941096588
21.26096371,0.04370910645,-9.023385773,-10.00953506,13.47643104
21.27104571,4.176764374,-11.95668594,-9.09508667,15.59257198
21.28112871,4.871170349,-12.18915253,-6.304140472,14.56179683
21.29121071,4.262386322,-10.95990875,-3.955823822,12.40709793
21.30129271,3.454815674,-9.787397003,-0.615819397,10.39750571
21.31137571,2.14473999,-9.623787231,2.505489807,10.17323299
21.32145771,0.4932243347,-10.5903273,2.495011597,10.89143634
21.33153971,-1.046174469,-11.63021484,1.079555054,11.72696966
21.34162271,-2.007026367,-11.96177536,0.001347198486,12.12898291
21.35170471,-1.68369873,-11.34311188,-0.3791615295,11.47365643
21.36178671,-0.669407959,-10.03318588,-0.503253479,10.06807777
21.37186971,0.2978805542,-8.551267548,-1.21801712,8.64271226
21.38195171,0.6981481934,-7.617060242,-1.878443756,7.876266157
21.39203371,1.019380188,-7.265291748,-1.887275391,7.575315739
21.40211671,1.112187195,-7.409292297,-1.793420563,7.703955479
21.41219871,1.176703033,-8.334368591,-0.9880952454,8.474825193
21.42228071,0.8768765259,-9.204808502,0.07095245361,9.246753282
21.43236371,0.1435514832,-9.50927536,0.8325686646,9.546732189
21.44244571,-0.4005670166,-9.09269165,1.36201767,9.202857573
21.45252771,-0.7662565613,-8.635542297,1.625469818,8.82053808
21.46261071,-1.281634827,-8.292755127,1.164428558,8.471615507
21.47269271,-1.365759888,-8.143066406,0.3273692322,8.263292394
21.48277471,-0.808768158,-8.087831268,-0.5848338318,8.149181012
21.49285771,-0.1646575928,-8.144862671,-1.56679184,8.295826464
21.50293971,0.1279838562,-8.346942444,-2.443967743,8.698322043
21.51302171,0.3520678711,-8.513246613,-2.040257263,8.761390835
21.52310471,-0.01362167358,-8.877289581,-0.9960287476,8.933002246
21.53318671,-0.5092410278,-9.325307922,-0.03876937866,9.339282485
21.54326871,-0.6015989685,-9.966424713,0.910556488,10.025999
21.55335171,-0.4537065125,-10.82399139,1.781894531,10.97906132
21.56343371,-0.3016227722,-11.31137787,2.230361938,11.5331158
21.57351571,-0.4135899353,-11.23503662,1.892514496,11.40082083
21.58359771,-0.7457492065,-10.95287338,0.9717791748,11.02115838
21.59368071,-1.535057831,-11.23892853,-0.04745132446,11.34337554
21.60376271,-2.46776825,-11.59294235,-0.4965174866,11.86308232
21.61384471,-3.682941284,-11.72377029,-0.4628375244,12.29736008
21.62392771,-4.745581512,-11.97105606,-0.1755848694,12.87856969
21.63400971,-5.278323669,-12.29872467,0.7188052368,13.4028359
21.64409171,-4.852459259,-12.7959906,2.297272797,13.8766422
21.65417471,-3.715723114,-12.96813263,3.643573151,13.97335634
21.66425671,-2.986439667,-12.92397446,3.875740356,13.81916426
21.67433871,-3.177292786,-12.47550705,3.770359497,13.41450992
21.68442171,-3.701951752,-11.13339798,3.255280609,12.17595373
21.69450371,-3.862717438,-10.21805145,2.653232574,11.24138802
21.70458571,-3.528462524,-11.13773895,3.39913147,12.16771842
21.71466871,-2.096540222,-12.66426453,3.758983154,13.37568807
21.72475071,-0.3427871704,-14.57713669,3.280128937,14.94555663
21.73483271,1.519639893,-16.85225555,0.652792511,16.93322062
21.74491571,4.005071411,-18.70450378,-4.083059235,19.55940775
21.75499771,6.784491577,-19.4647728,-7.191644897,21.83177644
21.76507971,8.925788727,-19.07498337,-6.73614212,22.1110901
21.77516271,9.182654572,-17.49891083,-2.35190918,19.90136935
21.78524471,6.563700714,-14.78744934,3.994892578,16.66463296
21.79532671,4.702770538,-12.60423935,7.486531677,15.39581297
21.80540971,4.119134216,-11.50193161,4.537514191,13.03267941
21.81549171,2.88659729,-11.2380304,-0.3444337463,11.6079458
21.82557371,2.02663559,-11.04568039,-1.518891449,11.3323139
21.83565671,-0.4306544495,-10.16655853,-1.521436157,10.28878728
21.84573871,-2.516417084,-8.775201874,-1.656305695,9.277923874
21.85582071,-2.4525,-8.032147064,-1.961371307,8.624217073
21.86590371,-1.246008911,-7.861052856,-1.951491852,8.194938112
21.87598571,0.1426533508,-7.642058258,-2.070644073,7.918899625
21.88606771,1.368454285,-7.652985535,-1.276994476,7.878551238
21.89615071,1.76917099,-7.827372894,-0.4905299377,8.03979801
21.90623271,1.458417206,-7.509883118,-0.7044351196,7.682548667
21.91631471,1.353934479,-7.146289215,-1.141226807,7.362403598
21.92639771,1.004411316,-6.434070282,-1.203197937,6.622219247
21.93647971,1.119671631,-5.29463974,-1.115330658,5.525471655
21.94656171,0.6182144165,-3.885170746,-1.660197601,4.270011342
21.95664471,0.4565505981,-2.981649628,-1.684447174,3.45485676
21.96672671,1.173260193,-1.993105316,-1.819616089,2.942789662
21.97680871,1.795516205,-0.8861572266,-2.076931,2.884925554
21.98689171,2.197131042,-0.5348377991,-1.746717682,2.857351737
21.99697371,2.96503418,-0.4825964355,-1.389261017,3.309739141
22.00705571,3.620072021,-0.913250885,-0.8261320496,3.823799522
22.01713871,3.953129425,-1.418899384,0.1791773987,4.203880618
22.02722071,4.094734955,-2.029779053,1.41575592,4.784477211
22.03730271,3.687431946,-3.194806366,2.579885101,5.51903517
22.04738571,3.073259125,-5.094805298,3.57696167,6.942378372
22.05746771,1.470392303,-8.060887299,5.931714935,10.11559191
22.06754971,-0.4549040222,-12.37910751,10.81036972,16.44120841
22.07763271,-1.776805115,-18.35333405,17.09594879,25.14504667
22.08771471,-5.923182678,-27.4937764,30.67780518,41.61874054
22.09779637,-9.253457336,-35.81347549,26.96043549,45.772225
22.10787837,-9.845027161,-32.280672,7.98349823,34.68000272
22.11796137,-8.318501587,-19.19278839,2.140548706,21.02718582
22.12804338,-5.6959552,-9.287286987,3.16861084,11.3462637
22.13812538,-3.305126953,-3.42832077,2.728376312,5.488286142
22.14820838,0.3562591553,-1.795665894,-0.9804611206,2.076689817
22.15829037,6.089636536,-6.227649536,-5.153483276,10.12055738
22.16837237,10.64571213,-12.18975128,-9.348060608,18.68976886
22.17845537,10.61083466,-14.92965363,-11.9758461,21.88390411
22.18853738,9.150621185,-13.25538528,-11.16258728,19.59700135
22.19861938,8.414002991,-10.76052338,-3.853885803,14.19284135
22.20870238,4.249513092,-8.853788452,13.82779495,16.96041995
22.21878437,-0.679586792,-7.861950989,13.30193848,15.46653416
22.22886637,-0.8652008057,-6.278543701,4.121379547,7.560056403
22.23894937,-2.930905151,-3.695814514,-2.100881195,5.163618085
22.24903137,-2.709365845,-4.507576447,-6.932234344,8.70142412
22.25911338,0.06481521606,-7.709867249,-9.821526031,12.48633764
22.26919638,2.936593323,-10.5558989,-8.598569183,13.92788476
22.27927838,3.338806915,-11.52767807,-6.460714874,13.62996075
22.28936037,2.78016861,-11.38966507,-5.020410004,12.75375727
22.29944337,1.511856079,-10.82099762,-2.975662079,11.32405683
22.30952537,0.5216651917,-11.14357681,-0.4360432434,11.16429901
22.31960737,-0.4819976807,-11.88259003,1.102906494,11.94339442
22.32969037,-1.515747986,-12.06565933,1.219064941,12.22144617
22.33977238,-1.804946594,-11.62916702,0.3935316467,11.77498302
22.34985438,-0.4971162415,-10.66532135,-0.3420387268,10.68237776
22.35993738,1.298549652,-9.500743103,-0.6536906433,9.611329885
22.37001937,2.422412567,-8.307274933,-1.117875366,8.725167322
22.38010137,2.641407166,-7.418423309,-1.552870789,8.026297023
22.39018437,2.39052887,-7.19374054,-1.806443481,7.792802402
22.40026637,2.387684784,-7.588769073,-2.052232361,8.215966915
22.41034838,1.941013641,-8.434061279,-1.389261017,8.765327706
22.42043138,0.7484436035,-9.266779633,-0.2856060791,9.301340947
22.43051338,0.1309776306,-9.463021545,0.6759942627,9.488039848
22.44059537,-0.1791773987,-9.477541351,1.069376221,9.539363716
22.45067837,-0.5248086548,-8.982071686,1.285676422,9.088784284
22.46076037,-0.8553213501,-8.267457733,1.751358032,8.494097182
22.47084238,-0.9744735718,-7.844886475,1.691482544,8.084117499
22.48092537,-0.9818083191,-7.840994568,0.3606001282,7.910447259
22.49100738,-0.8066725159,-8.302634583,-1.271306305,8.438049613
22.50108938,-0.3736230469,-8.839867401,-2.01960022,9.075331118
22.51117238,-0.1841171265,-9.252708893,-1.604663086,9.392628205
22.52125437,-0.492026825,-9.607471161,-0.6044430542,9.639032312
22.53133637,-0.7083270264,-9.876461792,0.8678952026,9.93979209
22.54141937,-0.7041357422,-10.02854553,2.538121948,10.36868341
22.55150138,-0.780327301,-10.28271698,3.658092957,10.9418839
22.56158338,-0.9500743103,-10.88476501,3.375480652,11.43567314
22.57166638,-1.490450592,-11.71898026,1.259331207,11.88031381
22.58174837,-2.224224701,-12.37356903,-0.553099823,12.58404965
22.59183037,-3.339106293,-12.52685028,-1.081051941,13.00923834
22.60191337,-4.377646637,-12.30276627,-0.5062472534,13.06821082
22.61199537,-4.723427582,-12.20472015,0.7418572998,13.10787223
22.62207738,-4.181255035,-12.39467514,2.593656464,13.33558845
22.63216038,-2.776875458,-12.48763184,4.279450836,13.48946573
22.64224238,-1.722767487,-12.47445923,4.483476562,13.36718456
22.65232437,-2.320624237,-12.3554567,3.769012299,13.12433087
22.66240737,-3.432362366,-10.96709381,2.794089661,11.82646165
22.67248937,-4.315525818,-10.0063916,2.484533386,11.1769648
22.68257137,-4.531975708,-10.82339264,3.835773468,12.34494999
22.69265437,-2.962040405,-12.45514938,4.862787781,13.69493098
22.70273638,-0.7705975342,-14.34631668,3.578009491,14.80583584
22.71281838,1.314266968,-17.06675949,0.1721420288,17.1181544
22.72290138,3.857328644,-18.81617157,-5.408852234,19.95452278
22.73298337,6.625971222,-19.53048615,-7.936795349,22.09832808
22.74306537,8.961414642,-19.0878566,-6.047574005,21.93687246
22.75314737,9.351054382,-17.69051239,-1.853595428,20.09557819
22.76323037,7.21709198,-15.37797134,3.556005249,17.35550612
22.77331238,5.634582825,-13.28158081,5.887257385,15.58232049
22.78339438,4.763544159,-12.27477448,3.445085907,13.60992499
22.79347738,3.479364624,-11.30089966,-0.5143304443,11.83557549
22.80355937,1.889371033,-10.20457947,-2.116448822,10.59162502
22.81364137,-0.5972579956,-8.74286911,-1.772613831,8.940729119
22.82372437,-2.619253235,-7.801776123,-0.943787384,8.283654556
22.83380638,-2.787203979,-7.431595917,-0.9190887451,7.990109387
22.84388838,-1.939367065,-7.70148468,-0.9059161377,7.993415724
22.85397138,-0.8310717773,-8.046966248,-0.9535171509,8.145768291
22.86405338,0.1095721436,-7.89338562,-1.061891785,7.965246811
22.87413537,0.7409591675,-7.571105804,-0.8809181213,7.65811206
22.88421837,1.018332367,-7.453151093,-0.830173645,7.568067805
22.89430037,1.005758514,-6.844816132,-1.113384705,7.007330702
22.90438238,0.9981243896,-5.776487732,-1.341061249,6.013527092
22.91446538,1.153201904,-4.714595947,-1.52577713,5.087758389
22.92454738,1.108894043,-3.518583069,-1.563348999,4.006760899
22.93462937,1.370699615,-2.199526062,-1.824406128,3.169414781
22.94471237,1.648521881,-1.32923584,-1.864822083,2.821711132
22.95479437,2.025887146,-0.6719526672,-2.068398743,2.972206667
22.96487637,2.252964935,-0.3447331238,-1.791324921,2.898885458
22.97495937,2.569855957,-0.6339317322,-1.173409882,2.895327241
22.98504138,2.928360443,-1.427880707,-0.5081932068,3.297332033
22.99512338,3.067870331,-2.125430145,0.440533905,3.758104814
23.00520638,3.202440491,-2.928809509,1.443448334,4.57352089
23.01528837,3.092868347,-4.196822662,2.486030273,5.775768485
23.02537037,3.089874573,-6.120023346,3.344644775,7.62814914
23.03545337,2.522404633,-9.203311615,5.796546021,11.16527723
23.04553537,0.3454815674,-13.56718689,10.48434769,17.14961994
23.05561738,-2.215093689,-19.47884354,16.71379349,25.76204336
23.06570038,-5.847889252,-29.0557782,31.0942392,42.95681281
23.07578238,-10.21266266,-36.38603485,25.39993057,45.53458558
23.08586437,-10.6394252,-30.94514923,9.764794006,34.14895067
23.09594746,-7.275919647,-17.49906052,4.964875488,19.59097022
23.10602946,-4.725223846,-8.791368256,3.554807739,10.59493059
23.11611146,-3.092419281,-3.190315704,1.056353302,4.566952332
23.12619446,-1.035396881,0.74065979,-2.891836395,3.159642601
23.13627646,2.456242218,-0.2210902405,-7.006779327,7.428119767
23.14635846,6.261928253,-5.741011505,-10.74345886,13.69645454
23.15644146,9.39700882,-11.60177399,-12.42625946,19.42464565
23.16652346,11.63695084,-15.16840714,-11.43487106,22.27679232
23.17660546,12.37311996,-15.94454315,-6.531667328,21.21285535
23.18668846,9.292226715,-15.85562805,14.85675522,23.63196128
23.19677046,-0.6512956238,-13.86357056,24.10093185,27.81146689
23.20685246,-0.8783734131,-10.90212891,4.396657104,11.78806805
23.21693546,-2.370919647,-6.185437317,-7.047195282,9.671807283
23.22701746,-2.790347443,-4.436773682,-7.29552887,8.983080821
23.23709946,0.06706054688,-5.625302124,-7.655230865,9.500056879
23.24718246,3.250191193,-8.1192659,-7.96598465,11.82975625
23.25726446,4.392316132,-9.450447693,-7.785909119,13.00860421
23.26734646,3.931424561,-9.576186218,-7.552245026,12.81389271
23.27742946,3.064577179,-9.963580627,-5.539680176,11.80477144
23.28751146,2.206711121,-10.82473984,-1.932780762,11.21517757
23.29759346,0.439486084,-11.78005325,0.9517208862,11.82660456
23.30767646,-1.628313904,-12.8358078,1.945354614,13.08410381
23.31775846,-2.590513,-13.10569656,1.604363708,13.45526005
23.32784046,-1.927242279,-12.16041229,0.7933502197,12.33771837
23.33792346,-0.5923182678,-10.55380325,0.1360670471,10.57128745
23.34800546,0.1119671631,-9.02248764,-0.1874102783,9.025128391
23.35808746,0.3022215271,-8.019273834,-0.1832189941,8.027057984
23.36817046,0.6997947693,-7.453300781,-0.4453239441,7.499314547
23.37825246,1.02731369,-7.329208832,-1.146016846,7.489060697
23.38833446,1.290017395,-7.627538452,-1.752854919,7.931959915
23.39841746,0.9096583557,-8.099207611,-1.36082016,8.26295793
23.40849946,0.1357676697,-8.258925476,-0.4808001709,8.274022703
23.41858146,-0.09340576172,-8.113577728,0.2838098145,8.1190773
23.42866446,-0.4939727783,-8.098010101,0.6114784241,8.136072921
23.43874646,-0.9431886292,-7.977959747,0.4314028931,8.045095088
23.44882846,-0.8643026733,-7.835605774,0.6014492798,7.906040614
23.45891146,-0.4716691589,-7.830815735,0.5269042969,7.862682431
23.46899346,0.1191522217,-7.928861847,-0.1625619507,7.931423191
23.47907546,0.4317022705,-8.340805206,-1.041085052,8.416605992
23.48915846,0.4876858521,-8.999884644,-1.361718292,9.115373706
23.49924046,0.2809657288,-9.912536774,-0.4213737488,9.92546638
23.50932246,-0.1986369324,-10.85692291,0.8247848511,10.89001845
23.51940546,-0.6081852722,-11.21692429,1.826801147,11.38097018
23.52948746,-0.7650590515,-10.64421524,2.444117432,10.94798353
23.53956946,-1.092727661,-10.1789827,2.467917938,10.53073414
23.54965246,-1.743873596,-10.86141357,1.861528931,11.1569122
23.55973446,-2.47824646,-11.67572021,1.08464447,11.98501571
23.56981646,-3.721860352,-12.01536392,0.5352868652,12.58998597
23.57989946,-5.162913666,-12.01177139,0.3498225403,13.07901775
23.58998146,-6.213728485,-12.17448303,1.253942413,13.7259182
23.60006346,-6.28572876,-12.22238342,2.761607208,14.01868457
23.61014646,-5.179529114,-12.04200851,3.765120392,13.63868111
23.62022846,-3.86825592,-12.31144821,4.00058075,13.51072934
23.63031046,-3.274590454,-12.35351074,3.976630554,13.38453439
23.64039346,-3.096760254,-11.28593079,3.826343079,12.3127194
23.65047546,-3.454815674,-11.13624207,4.519551544,12.50511835
23.66055746,-3.262914734,-12.36922806,4.980892181,13.72784405
23.67064046,-2.150128784,-14.19902298,3.206631775,14.71454365
23.68072246,-0.6743476868,-16.55557251,-0.1035845947,16.56962449
23.69080446,2.04414917,-18.97514099,-3.672163696,19.43500213
23.70088746,5.682183838,-19.9663797,-6.568041687,21.77344031
23.71096946,8.635093231,-20.17040543,-6.869065704,22.99117556
23.72105146,11.45522873,-18.68294861,-4.62418396,22.39772112
23.73113446,11.12726074,-16.67951477,0.3754193115,20.0540042
23.74121646,7.410789185,-14.82487152,4.887785797,17.27967193
23.75129846,5.32742157,-12.80646881,4.310735779,14.52478939
23.76138146,4.341571655,-11.91821594,2.860401764,13.00288483
23.77146346,2.186652832,-11.70041885,1.382824402,11.98304866
23.78154546,-0.1501377869,-10.98041611,-1.195414124,11.04631586
23.79162846,-2.526745605,-9.562265167,-1.934577026,10.07789396
23.80171046,-3.851790161,-8.351133728,-1.629062347,9.339784051
23.81179246,-2.927462311,-7.762108612,-1.26951004,8.392378771
23.82187546,-1.109343109,-7.54356308,-1.253643036,7.727069751
23.83195746,0.3583547974,-7.222780151,-1.539398804,7.393694608
23.84203946,1.270258484,-6.916067963,-1.822909241,7.264196499
23.85212246,1.401984558,-7.113806763,-1.346450043,7.374600672
23.86220446,1.614991608,-7.148684235,-1.159339142,7.419969773
23.87228646,1.145268402,-6.996151428,-1.314865723,7.210176585
23.88236946,0.8885522461,-6.652765503,-1.271006927,6.831125276
23.89245146,0.8219407654,-5.537285156,-1.171164551,5.719155526
23.90253346,0.6619235229,-4.094435577,-1.538949738,4.423902321
23.91261646,0.8514294434,-3.210523682,-1.555864563,3.667847999
23.92269846,1.55855896,-2.114802246,-2.03007843,3.320047139
23.93278046,2.072140961,-1.562001801,-2.389031982,3.527193162
23.94286346,2.792892151,-0.9598040771,-2.579436035,3.921091773
23.95294546,2.986589355,-0.7786807251,-1.947300568,3.649388874
23.96302746,3.408861237,-1.07177124,-1.172661438,3.760872687
23.97311046,3.912863159,-1.465302887,-0.2697390747,4.186928447
23.98319246,4.354893951,-1.970502319,0.6125262451,4.819042345
23.99327446,4.335584106,-3.228486328,1.287772064,5.556866959
24.00335746,3.844754791,-5.1916539,2.108665009,6.795724961
24.01343946,2.688559113,-7.973618774,3.802692261,9.234035677
24.02352146,0.9689350891,-12.09918961,7.76824585,14.41092877
24.03360446,-0.8644523621,-16.90374847,12.41742783,20.99229631
24.04368646,-2.749183044,-23.09217957,21.55577454,31.70896057
24.05376846,-7.169640656,-31.75900681,34.6256955,47.52869711
24.06385146,-9.14193924,-32.94124832,17.26120514,38.29686798
24.07393346,-8.890013123,-22.86839493,4.906646576,25.02141084
24.08401546,-7.005132751,-11.81552948,1.999092865,13.88074184
24.09409875,-5.28296402,-4.895419922,1.717827759,7.404443075
24.10418075,-2.852318573,-1.379830627,0.2589614868,3.179105983
24.11426275,1.403631134,-3.583547974,-3.117716675,4.952994418
24.12434575,5.808072052,-8.728349304,-6.951993256,12.57966584
24.13442775,9.026828613,-13.50431763,-9.153016205,18.64478305
24.14450975,9.894125061,-15.54876617,-10.08527756,21.00882347
24.15459275,8.744964752,-13.52332809,-8.627758484,18.2700035
24.16467475,7.436835022,-11.43996048,-0.3436853027,13.64907801
24.17475675,1.573078766,-11.0097551,20.68922653,23.48900548
24.18483975,-1.033750305,-9.89547226,16.3579834,19.14608659
24.19492175,-0.2670446777,-6.247857513,0.4549040222,6.270085648
24.20500375,-2.192341003,-3.864513702,-6.861281891,8.174228674
24.21508675,-2.800226898,-4.754413147,-8.183332672,9.869784632
24.22516875,-0.2592608643,-7.134314117,-9.062903595,11.53697862
24.23525075,2.597099304,-9.484127655,-8.598569183,13.06250337
24.24533375,3.253783722,-10.52940399,-8.215515747,13.74591415
24.25541575,3.074905701,-10.7204068,-6.903344421,13.11633833
24.26549775,2.484533386,-10.94044922,-4.309987335,12.01841612
24.27558075,1.793869629,-11.4038855,-0.5041516113,11.55511755
24.28566275,0.5745053101,-11.94426178,2.160756683,12.15172067
24.29574475,-0.715512085,-12.23286163,2.977308655,12.61028263
24.30582775,-1.261875916,-11.70011948,2.266736298,11.98429055
24.31590975,-0.9282197571,-10.52162018,0.8839118958,10.59940486
24.32599175,0.076640625,-9.285939789,-0.1483415222,9.287440808
24.33607475,1.173858948,-8.296048279,-0.5279521179,8.395301979
24.34615675,1.779948578,-7.506739655,-1.054407349,7.786599517
24.35623875,2.505489807,-7.030280457,-1.995200958,7.725486997
24.36632175,2.840642853,-7.380552063,-2.082469482,8.17792637
24.37640375,2.009870453,-8.185128937,-1.091081085,8.498610056
24.38648575,0.8699908447,-8.964408417,0.1324745178,9.007499755
24.39656875,0.1516346741,-9.24253006,1.280137939,9.331993792
24.40665075,-0.7824229431,-9.349707184,1.833237762,9.559810185
24.41673275,-1.58310791,-9.040300598,1.937421112,9.380131456
24.42681575,-1.952240295,-8.685688019,2.175126801,9.164256387
24.43689775,-1.925745392,-8.488248596,1.704655151,8.869312754
24.44697975,-1.665436707,-8.541088715,0.2794688416,8.706433178
24.45706275,-1.249002686,-8.687484283,-1.534159698,8.909884223
24.46714475,-0.6857240295,-8.782985687,-2.771336975,9.235332352
24.47722675,-0.3272195435,-8.772956543,-2.98838562,9.273741842
24.48730975,-0.4939727783,-8.944799194,-2.0968396,9.200553138
24.49739175,-0.7092251587,-9.508975983,-0.5174739075,9.54941903
24.50747375,-0.6890171814,-10.384655,1.386865997,10.49948577
24.51755675,-0.5008584595,-10.97113541,3.213367767,11.44300676
24.52763875,-0.457149353,-10.94718521,4.065695343,11.686733
24.53772075,-0.5920188904,-10.82952988,3.546275482,11.41075254
24.54780375,-1.017434235,-11.3308374,1.862576752,11.52788969
24.55788575,-1.703008575,-12.01775894,0.1675016785,12.13897957
24.56796775,-2.77073822,-12.16909424,-0.8346643066,12.50841754
24.57805075,-3.640579376,-12.08931015,-0.620609436,12.64082253
24.58813275,-4.119283905,-12.10906906,0.867146759,12.81990628
24.59821475,-4.208498383,-12.17298615,2.781665497,13.17690075
24.60829775,-4.186194763,-12.34258347,3.778891754,13.56995269
24.61837975,-4.701573029,-12.63791931,3.312761078,13.88510639
24.62846175,-5.536387024,-12.27028381,2.191293182,13.63866606
24.63854475,-5.925577698,-11.07457031,1.435065765,12.64191411
24.64862675,-5.639522552,-11.23653351,2.320025482,12.78461646
24.65870875,-3.756438446,-12.88909698,4.054768066,14.02429303
24.66879175,-0.6695576477,-14.79373627,3.89984024,15.31377465
24.67887375,1.912123718,-16.84117859,0.6911128235,16.96346516
24.68895575,4.856650543,-18.59373413,-3.998036041,19.62901667
24.69903875,7.692952423,-19.95530273,-6.581363983,22.37654969
24.70912075,9.968071289,-19.91039612,-6.353088684,23.15487108
24.71920275,10.48240173,-18.19690933,-2.886746979,21.19767826
24.72928575,8.643026733,-15.68213882,2.979254608,18.15233724
24.73936775,6.445446625,-13.67002304,7.208410034,16.74438674
24.74944975,5.785169678,-11.76643158,5.545368347,14.23615856
24.75953275,5.619763641,-10.97173416,0.6782395935,12.34587797
24.76961475,4.428840179,-11.12441666,-1.226699066,12.03628107
24.77969675,2.091450806,-10.55170761,-1.772015076,10.90196026
24.78977975,-0.602946167,-9.335337067,-1.933678894,9.552548157
24.79986175,-1.941013641,-8.436456299,-1.893113251,8.861444951
24.80994375,-1.947300568,-7.871531067,-1.679208069,8.280864724
24.82002675,-0.375718689,-7.606881409,-1.441951447,7.751453623
24.83010875,1.083746338,-7.460934906,-1.381776581,7.66481326
24.84019075,1.489851837,-7.069498901,-1.29884903,7.340605017
24.85027375,1.360071716,-6.414910126,-1.289867706,6.683159859
24.86035575,1.611399078,-6.01539093,-1.396595764,6.382163799
24.87043775,1.504072266,-5.724994812,-1.241967316,6.048163506
24.88052075,0.98989151,-5.028193817,-1.286873932,5.283811388
24.89060275,0.7384144592,-4.153263245,-1.328487396,4.422638382
24.90068475,0.5284011841,-3.198398895,-2.027833099,3.823750827
24.91076775,0.6846762085,-2.375410309,-2.510579224,3.523402288
24.92084975,1.482816467,-1.319057007,-2.716401215,3.364147979
24.93093175,2.010918274,-0.3459306335,-2.869383087,3.520911758
24.94101475,2.460134125,-0.130229187,-2.333048401,3.392983111
24.95109675,2.902763672,-0.4324507141,-1.592238922,3.338903314
24.96117875,3.23761734,-0.375718689,-0.7137158203,3.336573219
24.97126175,3.239114227,-0.6430627441,0.2384541321,3.31092903
24.98134375,2.520009613,-1.920506287,1.319057007,3.432011689
24.99142675,1.328936462,-4.915927277,3.075654144,5.949122753
25.00150875,0.1206491089,-9.774224396,6.435267792,11.70310601
25.01159075,-2.35190918,-16.20769592,12.063414,20.34076796
25.02167375,-7.056475983,-24.89068954,23.38077942,34.87120769
25.03175575,-10.64885559,-34.77762955,29.50349716,46.83308646
25.04183775,-8.008795624,-37.11442017,16.70376434,41.48055852
25.05192075,-4.278403015,-26.2091478,9.221124573,28.11144427
25.06200275,-2.095492401,-13.25718155,6.923103333,15.10209624
25.07208475,-1.197809143,-5.943240967,5.523064728,8.201286723
25.08216775,-0.1154100037,-1.291514282,2.949017487,3.221495421
25.09224962,2.431842957,0.1758842468,-1.729802856,2.989483794
25.10233163,6.660399628,-4.135300598,-7.959098969,11.17178995
25.11241463,9.27171936,-10.61667252,-11.11812973,17.95247403
25.12249663,10.47776138,-14.25036621,-12.0952977,21.42784747
25.13257862,11.07561813,-14.30724792,-7.880811768,19.73509195
25.14266162,9.656868439,-13.10629532,4.247567139,16.82474106
25.15274362,3.326233063,-11.48381927,14.63776062,18.89989332
25.16282563,0.2450404358,-9.84278183,7.695497131,12.4964425
25.17290863,-1.635199585,-6.633605347,0.2320175171,6.836112178
25.18299063,-2.86549118,-4.84063385,-5.845194855,8.112279499
25.19307262,-1.717378693,-6.114335175,-8.708141327,10.77804294
25.20315563,0.5306465149,-8.426127777,-10.18212616,13.22712774
25.21323762,2.458637238,-10.49258057,-8.301137695,13.60323605
25.22331962,2.309247894,-11.33757339,-5.682333527,12.8903883
25.23340262,1.114582214,-11.40403519,-3.57696167,12.00370638
25.24348463,0.1697470093,-11.40508301,-1.578168182,11.51500531
25.25356663,-0.1704954529,-11.55207733,0.383203125,11.55968875
25.26364963,-0.5240602112,-11.864328,1.39704483,11.95778626
25.27373162,-0.9265731812,-11.58860138,1.284179535,11.69629586
25.28381362,-0.6755451965,-10.79779587,0.7361691284,10.84392465
25.29389662,0.6349795532,-9.842482452,0.4924758911,9.875231256
25.30397862,1.694626007,-8.895701294,0.3847000122,9.063843165
25.31406063,1.906585236,-8.278983765,0.5857319641,8.515851183
25.32414363,1.901645508,-7.684120789,0.4787045288,7.930392547
25.33422563,1.549427948,-7.587571564,-0.07933502197,7.744563464
25.34430762,1.495689697,-7.980354767,-0.6782395935,8.147586073
25.35439062,1.090781708,-8.543633423,-0.7441026306,8.645065964
25.36447262,0.2423460388,-9.045539703,-0.2258802795,9.05160439
25.37455462,-0.2501298523,-9.101972351,0.5020559692,9.119239322
25.38463762,-0.513432312,-8.913813629,1.22744751,9.012564205
25.39471963,-0.8551716614,-8.760083313,1.494342499,8.927678182
25.40480163,-1.136586456,-8.319998474,1.218316498,8.485192895
25.41488463,-1.179696808,-8.092471619,0.4845423889,8.192347819
25.42496662,-0.750838623,-8.020321655,-0.6065386963,8.078193318
25.43504862,-0.1645079041,-7.937394104,-1.858235779,8.153669617
25.44513162,0.3013233948,-7.982749786,-2.656376038,8.41851671
25.45521362,0.4746629333,-7.953560486,-2.357447662,8.309150906
25.46529563,0.2812651062,-8.17300415,-1.294208679,8.27961853
25.47537863,-0.0505947876,-8.896449738,-0.08502319336,8.896999871
25.48546063,-0.1073268127,-10.09470795,1.084494781,10.15336282
25.49554262,0.214354248,-11.12531479,2.181713104,11.33924376
25.50562562,0.396076355,-11.30314499,2.678829346,11.62299831
25.51570762,0.2600093079,-11.03370529,2.5015979,11.31672432
25.52578963,-0.2386038208,-11.2432695,1.983824615,11.41943961
25.53587263,-1.142723694,-12.11236221,1.196911011,12.22488167
25.54595463,-2.361638947,-12.77503418,0.3875440979,12.99726999
25.55603763,-3.896846466,-12.98669403,0.1170565796,13.5592528
25.56611963,-4.933590546,-13.05091049,0.785716095,13.97440267
25.57620162,-5.148842926,-13.06827438,2.483485565,14.26387323
25.58628362,-4.514911194,-12.88191193,4.123175812,14.25933577
25.59636662,-3.649411011,-12.85347107,4.530927887,14.10883506
25.60644863,-3.468587036,-12.7509343,4.318669281,13.90209789
25.61653163,-3.830085297,-11.65850601,3.889661407,12.87321955
25.62661363,-3.791764984,-10.67250641,3.856879578,11.96475636
25.63669562,-3.074306946,-10.95407089,4.805157623,12.35040777
25.64677862,-1.604064331,-12.43224701,4.901407471,13.45947931
25.65686062,0.333356781,-14.2133931,2.363285522,14.41238317
25.66694262,1.38072876,-15.87808136,-3.741469574,16.37126978
25.67702562,2.243384857,-17.70248749,-9.40748703,20.17205124
25.68710763,4.691094818,-18.70989258,-8.838669891,21.21764681
25.69718963,7.251370697,-18.29630264,-5.24314682,20.36731833
25.70727263,8.525521088,-16.63640442,-0.09071136475,18.69392121
25.71735462,7.533084869,-14.73999802,4.936135254,17.27368925
25.72743662,6.627917175,-13.50746109,5.812263336,16.1295752
25.73751962,6.80050827,-12.56891281,3.486549683,14.709878
25.74760162,5.561684418,-11.35388947,0.2606080627,12.64559434
25.75768363,3.486100616,-10.61218185,-0.3903881836,11.17692731
25.76776663,1.113235016,-9.792187042,-0.4926255798,9.867568051
25.77784863,-1.392703857,-8.649163971,-1.017284546,8.819440418
25.78793062,-2.566562805,-7.798333282,-1.558708649,8.356483667
25.79801362,-2.375859375,-7.65358429,-1.367406464,8.129690073
25.80809562,-1.644330597,-7.534432068,-1.345102844,7.828204862
25.81817762,0.004939727783,-7.41363327,-1.343605957,7.534405062
25.82826062,1.342558136,-6.987020416,-1.217717743,7.218292952
25.83834263,1.408570862,-6.504423981,-1.195114746,6.761649388
25.84842463,1.2952565,-6.009403381,-1.52113678,6.332809448
25.85850763,1.726360016,-5.758375397,-1.542093201,6.20622732
25.86858962,1.861379242,-5.00798584,-1.448837128,5.535682783
25.87867162,1.307381287,-4.249363403,-1.343605957,4.644524963
25.88875462,1.372795258,-3.592229919,-1.13493988,4.009584909
25.89883663,1.488504639,-2.696193237,-1.975442047,3.658889902
25.90891863,1.5527211,-2.034269714,-2.386487274,3.499216712
25.91900163,1.893262939,-1.463955688,-2.170037384,3.230584013
25.92908363,2.137405243,-1.449884949,-1.668729858,3.074951524
25.93916562,2.846181335,-1.576521606,-1.089284821,3.431138294
25.94924862,3.121159515,-1.84057251,-0.228874054,3.630664845
25.95933062,3.50436264,-2.358495483,0.7014413452,4.28194797
25.96941263,3.496728516,-3.440744934,1.683549042,5.186537707
25.97949563,3.364703064,-5.23266861,2.700234833,6.781837188
25.98957763,2.608625336,-8.075257416,4.190236359,9.464290212
25.99966063,0.9201365662,-12.47445923,7.984096985,14.83929207
26.00974262,-1.768871613,-18.29764984,13.92778702,23.06330739
26.01982462,-4.670437775,-26.07412857,24.85790771,36.32614411
26.02990762,-8.472680969,-35.12236267,29.08975754,46.38513421
26.03998962,-10.31894165,-34.07514038,13.89575363,38.21894449
26.05007163,-8.41879303,-21.24696671,6.116430817,23.65841069
26.06015463,-5.930517426,-10.27433441,4.757706299,12.78157869
26.07023663,-4.87102066,-3.338806915,2.653232574,6.474111289
26.08031862,-2.723286896,1.377734985,-1.628164215,3.459098715
26.09040162,1.189426575,2.025288391,-6.236481171,6.664099792
26.100484,5.00559082,-1.759740601,-9.18519928,10.60756863
26.110566,8.504864044,-7.809709625,-12.06191711,16.69772803
26.120649,11.97704361,-13.1211145,-12.77039383,21.87912654
26.130731,12.91574158,-15.92523331,-9.823172607,22.73596614
26.140813,11.5246843,-16.8874324,-1.49539032,20.49975399
26.150896,1.414558411,-17.73212585,27.36758881,32.6406829
26.160978,-4.448000336,-15.92373642,21.19712036,26.88248501
26.17106,-1.767225037,-10.73298065,0.3137475586,10.88202167
26.181143,-1.738933868,-4.990771637,-8.397387543,9.922086982
26.191225,-1.184486847,-2.696642303,-8.583450623,9.074718364
26.201307,1.38536911,-3.731290741,-5.921985168,7.135242568
26.21139,4.322860565,-6.388115845,-6.705306244,10.22038548
26.221472,5.570665741,-8.59198288,-8.891360321,13.56137069
26.231554,4.894072723,-9.920769653,-8.888516235,14.19081883
26.241637,3.389551392,-11.29566055,-6.074967041,13.26598019
26.251719,1.605112152,-12.87397842,-2.235301666,13.16481215
26.261801,-0.6670129395,-13.85937927,1.075812836,13.91706411
26.271884,-2.642904053,-13.64173187,2.819087677,14.1784712
26.281966,-2.725831604,-12.30965195,2.484832764,12.85037287
26.292048,-1.542542267,-10.63538361,1.252445526,10.81940113
26.302131,-0.382155304,-8.988957367,0.02978805542,8.997126461
26.312213,0.007185058594,-7.792645111,-1.03674408,7.861310816
26.322295,0.9545649719,-7.128476257,-1.692979431,7.388676972
26.332378,2.264640656,-6.878645782,-2.333946533,7.608657669
26.34246,2.970572662,-7.29552887,-1.820963287,8.084859351
26.352542,2.606829071,-8.096064148,-0.6529421997,8.530424726
26.362625,1.987566833,-8.580606537,0.3131488037,8.81335876
26.372707,1.351838837,-8.602910156,0.8713380432,8.751957574
26.38279,0.4251159668,-8.320597229,0.9851014709,8.389486679
26.392872,-0.676892395,-7.807763672,1.227896576,7.932659508
26.402954,-0.9339079285,-7.061116333,1.728904724,7.329437866
26.413037,-0.7946974182,-6.664590912,0.7333250427,6.751746561
26.423119,-0.7646099854,-7.310348053,-1.034947815,7.422730903
26.433201,-0.5264552307,-8.437204742,-1.557660828,8.595922651
26.443284,-0.5363346863,-9.466763763,-0.9442364502,9.528843242
26.453366,-0.7667056274,-10.49557434,0.1519340515,10.52463787
26.463448,-0.8610095215,-11.52169052,1.681154022,11.6754858
26.473531,-0.734223175,-12.02060303,3.145109711,12.44691512
26.483613,-0.3779640198,-11.88244034,3.863465881,12.50046454
26.493695,-0.3939807129,-11.57587784,3.406017151,12.0729914
26.503778,-1.014590149,-11.80879349,2.057471466,12.02955467
26.51386,-2.218686218,-12.68013153,0.8128097534,12.89840935
26.523942,-3.969295807,-13.2272438,0.3670367432,13.81484722
26.534025,-5.444927216,-12.96334259,0.4234693909,14.06679814
26.544107,-5.714217224,-12.37820938,1.648821259,13.7328423
26.554189,-4.601131897,-12.01716019,4.033512268,13.48524286
26.564272,-2.151925049,-11.3362262,5.786965942,12.90851582
26.574354,0.3956272888,-10.48853897,6.561754761,12.37831153
26.584436,1.778152313,-10.04995102,7.256011047,12.52250125
26.594519,1.3841716,-11.0441835,6.067931671,12.67713355
26.604601,-0.1216969299,-12.45455063,2.250270538,12.65679102
26.614683,-1.634451141,-13.35028793,-2.104623413,13.61363501
26.624766,-2.125280457,-15.12724274,-5.009333038,16.07618448
26.634848,-1.416055298,-17.3095546,-7.835605774,19.05315225
26.644931,0.5126838684,-18.51499786,-8.047415314,20.19477368
26.655013,3.052153015,-18.63160538,-5.443729706,19.64908522
26.665095,6.431675262,-17.90771072,-1.297052765,19.07183515
26.675177,7.855514374,-16.78714096,3.685336304,18.89706092
26.68526,6.956932983,-16.27026581,6.754553833,18.94055077
26.695342,7.23700058,-16.0434874,4.964276733,18.28692726
26.705425,7.03566925,-14.97366211,-0.1281335449,16.54471568
26.715507,4.912933502,-13.07770477,-1.074315948,14.01133229
26.725589,1.248852997,-10.74600357,-0.1369651794,10.81919526
26.735672,-2.288441162,-9.084608459,-0.3135978699,9.3736555
26.745754,-4.160298615,-8.126151581,-0.5673202515,9.146817826
26.755836,-3.915707245,-7.736511841,-0.9413923645,8.72196069
26.765919,-2.210603027,-7.74249939,-1.123563538,8.129911289
26.776001,-0.4825964355,-7.558831329,-2.108066254,7.862110004
26.786083,0.8503816223,-7.351811829,-2.683769073,7.87241402
26.796166,1.957778778,-7.255561981,-2.116299133,7.80735547
26.806248,2.40100708,-6.877597961,-1.917662201,7.532835922
26.81633,2.471510468,-6.429280243,-2.129771118,7.209711052
26.826413,2.44546463,-5.948779449,-1.584006042,6.623997987
26.836495,2.107018433,-5.061275024,-1.096020813,5.590822227
26.846577,1.937121735,-3.711082764,-0.9478289795,4.292197068
26.85666,1.473984833,-2.121687927,-1.781894531,3.138365668
26.866742,1.280437317,-1.398691406,-2.367177429,3.033049019
26.876824,1.883383484,-0.9187893677,-2.508034515,3.268263205
26.886907,2.170636139,-0.2369572449,-2.381846924,3.231254362
26.896989,2.361489258,-0.3963757324,-1.685345306,2.928162229
26.907071,2.976859589,-0.9139993286,-0.6800358582,3.187402791
26.917154,3.30078598,-1.675765228,0.3061134338,3.714442438
26.927236,3.466341705,-2.796035614,0.8381071472,4.531640273
26.937318,3.176993408,-4.332740021,1.427880707,5.559205565
26.947401,2.383044434,-6.561305695,2.705923004,7.486765156
26.957483,0.9948312378,-10.15548157,5.809718628,11.74207501
26.967566,-0.7952961731,-14.68775665,10.60409866,18.13310784
26.977648,-2.251468048,-20.40631485,16.9285968,26.60947545
26.98773,-5.515430603,-28.91297516,31.90450424,43.40826532
26.997813,-9.733359375,-34.58902176,24.08506485,43.25770521
27.007895,-10.47252228,-28.78603912,8.705147552,31.84476982
27.017977,-7.461084595,-16.59509033,4.096381531,18.65060718
27.02806,-4.89092926,-8.42223587,3.348536682,10.29892926
27.038142,-2.799777832,-3.170556793,1.093925171,4.368965389
27.048224,-0.3252735901,-0.9581575012,-3.329825592,3.480173441
27.058307,3.250041504,-3.008593597,-7.667954407,8.855051101
27.068389,6.889273682,-7.516319733,-10.55440201,14.67489543
27.078471,10.0794397,-11.90010361,-12.25172241,19.83210207
27.088554,11.34595596,-13.62825989,-10.87787933,20.80356804
27.09863496,10.37178177,-12.98220337,-6.632856903,17.89151341
27.10871696,8.216264191,-14.02912628,11.16827545,19.7244457
27.11879996,0.9285191345,-15.58499084,32.54696823,36.09791169
27.12888196,1.819765778,-12.50304977,11.00870728,16.75796637
27.13896396,1.087338867,-6.772067413,-7.679031372,10.29615101
27.14904696,-1.965861969,-3.962260437,-11.27290787,12.10960663
27.15912896,-1.2461586,-4.312382355,-8.666976929,9.760432465
27.16921096,1.622326355,-5.789510651,-7.784112854,9.835791239
27.17929396,3.728895721,-7.58682312,-8.640032959,12.0877921
27.18937596,3.729195099,-8.902137909,-9.573342133,13.59425743
27.19945796,3.282523956,-10.2572699,-7.187453613,12.94781984
27.20954096,2.297123108,-11.75655212,-3.437302094,12.4622766
27.21962296,0.6119274902,-12.88700134,-0.169896698,12.90264019
27.22970596,-1.104104004,-13.52572311,2.369123383,13.77595648
27.23978796,-1.941313019,-13.21841217,3.548221436,13.82334952
27.24986996,-1.453028412,-11.90369614,2.658771057,12.28325432
27.25995296,-0.1094224548,-10.31250504,1.139430542,10.37583902
27.27003496,1.081351318,-8.657845917,0.05298980713,8.725275039
27.28011696,1.768572235,-7.619455261,-0.9126521301,7.875079691
27.29019996,2.21150116,-7.212900696,-1.705253906,7.734634103
27.30028196,2.235301666,-7.165299683,-2.337089996,7.861302865
27.31036396,1.878294067,-7.912246399,-1.874701538,8.345426145
27.32044696,1.031504974,-8.762178955,-0.8512797546,8.863659502
27.33052896,-0.02933898926,-9.242380371,0.0983454895,9.242950153
27.34061096,-0.5769003296,-9.209299164,1.159189453,9.299877702
27.35069396,-1.151106262,-9.135652313,1.596729584,9.345305462
27.36077596,-1.708846436,-8.762927399,1.81482605,9.110578814
27.37085796,-1.920655975,-8.165070648,1.935774536,8.60839829
27.38094096,-1.754501495,-7.852370911,1.328337708,8.154905608
27.39102296,-1.397194519,-7.928562469,-0.4932243347,8.065824546
27.40110496,-0.7259902954,-8.132438507,-2.253264313,8.469995162
27.41118796,0.04281097412,-8.354576569,-2.394121399,8.690949298
27.42126996,0.3122506714,-8.59782074,-1.331181793,8.705863939
27.43135296,0.3577560425,-9.065897369,0.3285667419,9.078900848
27.44143496,0.2421963501,-9.971663818,2.071242828,10.18738363
27.45151696,0.1911524963,-10.81665665,3.439697113,11.35200936
27.46159996,-0.01032852173,-11.15615067,3.764821014,11.77428051
27.47168196,-0.4810995483,-11.3202095,2.830164642,11.67854579
27.48176396,-1.115180969,-11.80400345,1.339264984,11.93196366
27.49184696,-1.882185974,-12.20442078,0.2685415649,12.35162439
27.50192896,-3.212918701,-12.28405518,0.2029779053,12.69889988
27.51201096,-4.392016754,-12.26669128,1.079405365,13.07389162
27.52209396,-5.093757477,-12.27881607,2.7391539,13.57271725
27.53217596,-4.979245605,-12.02778809,4.378844147,13.73444025
27.54225796,-4.238885193,-11.73664352,5.066214752,13.46786846
27.55234096,-3.893703003,-11.99740128,4.632566528,13.43723309
27.56242296,-3.949985962,-11.56510025,3.534001007,12.7217568
27.57250496,-4.570595398,-11.44774429,4.16553772,13.01126036
27.58258796,-4.347259827,-12.4084465,5.671256561,14.31891629
27.59266996,-2.548749847,-13.61823074,5.112618256,14.76791115
27.60275196,-0.4438270569,-15.47062866,1.981878662,15.60337068
27.61283496,1.224004669,-17.78541504,-4.851411438,18.47580495
27.62291696,3.589984589,-19.48049011,-10.52027298,22.42885704
27.63299896,6.647077332,-20.09286667,-9.567204895,23.22581188
27.64308196,9.330097961,-19.71804611,-4.099075928,22.19582154
27.65316396,9.726324005,-17.68437515,2.629881134,20.35324981
27.66324596,7.484286346,-15.18801636,6.811285858,18.25058898
27.67332896,6.715934143,-13.94889313,5.413193207,16.40055034
27.68341096,6.593638458,-13.20913147,1.922302551,14.88799749
27.69349396,5.035977631,-12.22792191,-0.9743238831,13.26018295
27.70357596,2.303410034,-11.33996841,-1.221459961,11.63583026
27.71365796,-0.590072937,-9.68366272,-1.239272919,9.780455363
27.72374096,-2.505340118,-8.574169922,-0.8776249695,8.975708582
27.73382296,-2.404898987,-7.976013794,-0.6457571411,8.35567696
27.74390496,-1.180295563,-7.43473938,-1.111289062,7.609429062
27.75398796,0.0845741272,-7.247927856,-1.262923737,7.357621039
27.76406996,1.138382721,-7.09779007,-1.322350159,7.309114107
27.77415196,2.100132751,-6.927294617,-1.696871338,7.434873275
27.78423496,2.480791168,-6.598727875,-1.652862854,7.240821086
27.79431696,2.185605011,-6.196963348,-1.720222778,6.792524598
27.80439896,1.927541656,-5.783822479,-1.44509491,6.265486303
27.81448196,1.479822693,-4.742737427,-1.161135406,5.102123963
27.82456396,0.8289761353,-3.604504395,-1.209484863,3.89133743
27.83464596,0.7454498291,-2.578088837,-1.511407013,3.080030626
27.84472896,0.7195536804,-1.581161957,-2.113455048,2.735785604
27.85481096,1.229393463,-0.7842192078,-2.85621048,3.206921633
27.86489396,1.70016449,0.09415420532,-3.130140839,3.563313904
27.87497596,2.06525528,0.04251159668,-2.572101288,3.298907644
27.88505796,2.872676239,-0.4939727783,-1.588197327,3.319434986
27.89514096,3.188070374,-1.289119263,-0.4484674072,3.467959659
27.90522296,3.616180115,-2.30745163,0.650098114,4.338631029
27.91530496,3.609593811,-3.803740082,1.726809082,5.520822013
27.92538796,3.377725983,-5.876629486,2.7099646,7.299843496
27.93546996,2.647843781,-9.043144684,5.248535614,10.78594774
27.94555196,0.6063890076,-13.71418121,10.52715866,17.29935095
27.95563496,-1.55855896,-20.3233873,18.14391953,27.28866052
27.96571696,-5.040019226,-30.00839722,31.99835907,44.15654742
27.97579896,-8.763526154,-37.57920364,26.72542419,46.93872852
27.98588196,-8.851243744,-31.34526718,9.634265442,33.96600302
27.99596396,-6.38048172,-17.3294632,4.721631317,19.06081436
28.00604596,-4.590354309,-8.20114563,3.654500427,10.08392363
28.01612896,-3.046165466,-2.125130768,0.3282673645,3.728681307
28.02621096,-0.2219883728,0.713865509,-4.751269684,4.809724151
28.03629296,3.710933075,-2.006577301,-8.475824432,9.467680633
28.04637596,7.711813202,-8.755442963,-12.47490829,17.08078398
28.05645796,11.73409882,-14.14378784,-14.62698303,23.48796377
28.06653996,13.11078598,-15.66971466,-11.86313049,23.62554828
28.07662296,11.67691772,-15.35821243,1.348096619,19.34017738
28.08670496,2.10971283,-14.45873291,26.6125589,30.36007472
28.09678846,-0.3141966248,-12.12089447,10.58269318,16.09373161
28.10687046,1.140029297,-7.336543579,-4.150419159,8.50591075
28.11695246,-1.790426788,-3.381767578,-7.464976501,8.388554953
28.12703546,-0.3646417236,-4.40653656,-6.674470367,8.006190275
28.13711746,3.974385223,-7.545958099,-7.839497681,11.5842542
28.14719946,5.543572083,-9.286688232,-8.053402863,13.48447505
28.15728246,5.180576935,-9.687404938,-6.922055511,12.98456947
28.16736446,4.133204956,-9.964029694,-5.160967712,11.95829665
28.17744646,2.863096161,-10.85692291,-2.150727539,11.43222304
28.18752946,0.9201365662,-12.34512817,0.2980302429,12.38295857
28.19761146,-1.561253357,-13.64622253,1.42862915,13.80934042
28.20769346,-2.968926086,-14.31637894,1.715732117,14.72130988
28.21777646,-2.811603241,-13.94844406,1.454824677,14.30317165
28.22785846,-1.773062897,-12.11475723,0.6706054688,12.26216973
28.23794046,-0.5887257385,-9.905501404,-0.1309776306,9.923845585
28.24802346,0.4173321533,-7.961194611,0.1836680603,7.974241012
28.25810546,0.5025050354,-6.637197876,0.2633024597,6.661398888
28.26818746,0.4989125061,-5.835614777,-0.724044342,5.901487416
28.27827046,0.4495152283,-5.746549988,-1.751507721,6.024340628
28.28835246,0.2389031982,-6.652765503,-2.085912323,6.976201961
28.29843546,0.1428030396,-7.987539825,-1.59598114,8.146676683
28.30851746,0.2827619934,-8.90782608,-0.8587641907,8.953591221
28.31859946,0.3911366272,-9.156758423,-0.3315605164,9.171103808
28.32868246,0.05748046875,-8.914711761,0.3255729675,8.92084007
28.33876446,0.1637594604,-8.192463684,1.138831787,8.27286022
28.34884646,0.3282673645,-7.586074677,1.221759338,7.690837688
28.35892946,0.426612854,-7.201224976,0.4824467468,7.229965044
28.36901146,0.6032455444,-7.268285522,-0.3373983765,7.301076447
28.37909346,0.6346801758,-7.677983551,-0.4819976807,7.719233906
28.38917646,0.1805245972,-8.258925476,-0.3236270142,8.267234942
28.39925846,-0.630788269,-8.897946625,0.3815565491,8.928433982
28.40934046,-1.444047089,-9.720785522,1.237326965,9.905045239
28.41942346,-1.885628815,-10.54871384,1.831591187,10.87132402
28.42950546,-2.036065979,-11.03116058,1.874551849,11.37303887
28.43958746,-2.061962128,-11.29341522,1.497935028,11.57742305
28.44967046,-2.209405518,-11.52947433,1.111438751,11.7917576
28.45975246,-2.591261444,-11.90399551,0.7625143433,12.20660367
28.46983546,-3.044369202,-12.39512421,0.776585083,12.78711744
28.47991746,-3.522774353,-12.66695892,1.13269455,13.19639286
28.48999946,-3.801345062,-12.76889694,1.895807648,13.45693279
28.50008246,-3.623963928,-12.85182449,3.343447266,13.76521511
28.51016446,-3.069217529,-12.91634033,4.560117188,14.03732925
28.52024646,-2.754721527,-13.04267761,4.30938858,14.00966666
28.53032946,-2.483186188,-12.67743713,4.192481689,13.58162467
28.54041146,-2.206711121,-11.59848083,5.299429779,12.94134026
28.55049346,-2.534529419,-11.75984528,5.581593018,13.26167338
28.56057646,-2.589764557,-12.69629791,3.278182983,13.36597714
28.57065846,-1.800006866,-14.06505157,0.3390449524,14.18381655
28.58074046,-0.3540138245,-15.9439444,-3.705993347,16.37281513
28.59082346,1.692380676,-17.76056671,-7.822882233,19.48074354
28.60090546,4.492757263,-19.04309967,-8.17075882,21.2034387
28.61098746,7.14808548,-19.26119614,-4.885690155,21.11773593
28.62107046,9.325158234,-18.06383606,0.4508624268,20.33381485
28.63115246,8.723559265,-15.65669174,5.356461182,18.70625989
28.64123546,7.067552948,-14.04888519,6.228996735,16.9151376
28.65131746,6.812782745,-13.00765045,3.811074829,15.17027588
28.66139946,6.051166534,-11.68679718,0.196690979,13.16193497
28.67148246,3.542084198,-11.34296219,-0.4655319214,11.892261
28.68156446,0.5281018066,-10.85767136,0.7695497131,10.89771194
28.69164646,-1.659000092,-10.33121613,-0.06242019653,10.4637567
28.70172946,-2.513423309,-9.554331665,-1.470092926,9.988179189
28.71181146,-2.154769135,-9.045839081,-1.459465027,9.412771795
28.72189346,-1.001417542,-8.531209259,-1.139879608,8.665084768
28.73197646,0.2787203979,-8.050259399,-1.605112152,8.213449122
28.74205846,1.365161133,-7.999514923,-1.455872498,8.244723686
28.75214046,1.658401337,-7.995623016,-0.9319619751,8.218809861
28.76222346,1.342857513,-7.232809296,-0.7906558228,7.398779172
28.77230546,1.029259644,-6.558162231,-1.144070892,6.736302062
28.78238746,1.279539185,-5.739963684,-0.7325765991,5.926303409
28.79247046,0.7289840698,-4.314477997,-1.12565918,4.518102118
28.80255246,-0.0722996521,-3.40841217,-1.387015686,3.680531657
28.81263446,0.5484594727,-2.654280396,-1.56559433,3.1300316
28.82271746,1.245260468,-1.63699585,-2.280208282,3.070794499
28.83279946,2.115999756,-1.075812836,-2.595003662,3.516940749
28.84288246,2.716251526,-0.8774752808,-2.583777008,3.850180366
28.85296446,3.07385788,-0.795894928,-2.232307892,3.881397883
28.86304646,3.315305786,-0.8915460205,-1.66274231,3.814553545
28.87312946,3.335364075,-1.325343933,-1.01803299,3.730627457
28.88321146,3.572471008,-1.924697571,-0.3321592712,4.071527923
28.89329346,3.468287659,-2.949017487,0.5974076843,4.591581357
28.90337646,2.975063324,-4.589755554,1.878743134,5.783297813
28.91345846,2.535128174,-7.29552887,3.759282532,8.589750957
28.92354046,1.287772064,-11.20195541,7.09539505,13.32241693
28.93362346,-0.6234535217,-16.07043137,11.34116592,19.67916419
28.94370546,-3.337609406,-22.51902145,19.7607074,30.14517409
28.95378746,-8.643176422,-31.04648849,31.36637329,44.97152788
28.96387046,-10.4204306,-34.46253479,18.07955338,40.2879874
28.97395246,-7.871082001,-25.80588638,6.82505722,27.82946478
28.98403546,-5.087171173,-13.51255051,4.801116028,15.21574996
28.99411746,-3.494932251,-6.325845337,3.64132782,8.092597788
29.00419946,-1.052162018,-2.812501373,0.7439529419,3.093650734
29.01428246,4.778812408,-4.709356842,-2.189496918,7.057548204
29.02436446,10.56083862,-9.930649109,-6.284830627,15.8002595
29.03444646,12.24513611,-13.90563309,-9.572294312,20.8551866
29.04452946,10.90227859,-14.47295334,-9.286538544,20.36089033
29.05461146,8.987161102,-12.10951813,-6.828050995,16.55390511
29.06469346,5.90072937,-9.244625702,3.980073395,11.66716314
29.07477646,0.1333726501,-7.08835968,10.37447617,12.56552374
29.08485846,-1.390608215,-5.602848816,4.10700943,7.084718239
29.09494046,-2.632276154,-3.616479492,2.793341217,5.273571543
29.10502333,-1.639839935,-4.436623993,-2.706521759,5.449584158
29.11510533,0.5276527405,-7.504494324,-8.889564056,11.64560868
29.12518733,2.976410522,-10.30337402,-9.645492096,14.42407895
29.13527033,4.109703827,-11.57273438,-6.685098267,13.98243131
29.14535233,3.152594147,-11.16737732,-4.586911469,12.47753673
29.15543433,1.711391144,-10.32418076,-2.921325073,10.86516029
29.16551733,0.8373587036,-10.28196854,-0.8036787415,10.34726757
29.17559933,-0.3565585327,-11.06768463,0.8554710388,11.10642192
29.18568233,-1.913620605,-12.1669986,1.418450317,12.39797564
29.19576433,-2.754721527,-12.63866776,0.927171936,12.96857976
29.20584633,-2.302062836,-12.18361404,0.190254364,12.40065084
29.21592933,-0.8994795227,-10.81051941,-0.1935475159,10.84960156
29.22601133,0.3252735901,-9.081914063,-0.6730004883,9.112622872
29.23609333,0.9837542725,-7.722441101,-1.030457153,7.852751809
29.24617633,1.213975525,-6.778653717,-1.440005493,7.035445872
29.25625833,1.276246033,-6.587950287,-1.819616089,6.952761727
29.26634033,1.652563477,-7.290888519,-1.824705505,7.695295422
29.27642333,1.689536591,-8.237669678,-1.166673889,8.489691607
29.28650533,1.187929688,-8.832382965,-0.06391708374,8.912140662
29.29658733,0.8138575745,-8.993597717,0.8942404175,9.074515413
29.30667033,0.5933660889,-8.93596756,1.677411804,9.111383534
29.31675233,0.3972738647,-8.797206116,1.705553284,8.969814601
29.32683533,0.1980381775,-8.60126358,1.122815094,8.67650091
29.33691733,0.1267863464,-8.286767578,0.5315446472,8.304765583
29.34699933,0.1389111328,-8.058641968,-0.2182461548,8.06279344
29.35708233,0.3460803223,-7.93440033,-1.133143616,8.022374626
29.36716433,0.359103241,-8.065976715,-1.898951111,8.29427217
29.37724633,0.4939727783,-8.52177887,-1.723066864,8.708253764
29.38732933,0.4146377563,-9.164242859,-0.8463400269,9.212576354
29.39741133,0.203127594,-9.817783813,-0.004790039062,9.819886088
29.40749333,0.05822891235,-10.74615326,1.271006927,10.82121338
29.41757633,-0.1535806274,-11.4928006,2.563419342,11.7762121
29.42765833,-0.6099815369,-11.66224823,3.296894073,12.13464552
29.43774033,-1.493743744,-11.43322449,3.144660645,11.95151803
29.44782333,-2.513423309,-11.51585266,1.916464691,11.94173338
29.45790533,-3.448678436,-12.04844513,0.322130127,12.53643413
29.46798733,-4.477339325,-12.5412204,-0.4192781067,13.32308413
29.47807033,-5.155578918,-13.00899765,0.1983375549,13.99476158
29.48815233,-5.269941101,-13.23218353,1.640887756,14.3372059
29.49823533,-4.654720459,-13.18563034,3.943549347,14.52855297
29.50831733,-3.191662903,-12.71351212,5.73921524,14.30939181
29.51839933,-2.090852051,-12.4323967,5.779631195,13.86868006
29.52848233,-2.328258362,-12.07718536,4.367467804,13.05197182
29.53856433,-3.033591614,-11.21797211,3.242108002,12.06469397
29.54864633,-3.734583893,-11.03580093,4.132306824,12.36171423
29.55872933,-3.067271576,-11.79502213,4.984634399,13.16728073
29.56881133,-1.128503265,-13.01693115,3.309916992,13.47848533
29.57889333,0.3270698547,-14.86513779,-0.8979826355,14.89582723
29.58897633,2.110760651,-17.16959564,-7.499404907,18.85447955
29.59905833,4.862189026,-18.99010986,-10.85886887,22.40937723
29.60914033,7.582482147,-19.52988739,-8.015531616,22.43121227
29.61922333,8.953780518,-18.65465744,-2.211800537,20.81005746
29.62930533,7.312892761,-16.40378815,3.33596283,18.26721966
29.63938733,5.577551422,-14.57174789,6.556066589,16.92415214
29.64947033,5.518274689,-13.44399307,5.926026764,15.69426961
29.65955233,4.955445099,-12.11191315,1.550176392,13.17793319
29.66963533,3.876189423,-11.47977768,-0.7993377686,12.14286131
29.67971733,1.426832886,-10.93446167,-1.2461586,11.09735173
29.68979933,-1.33387619,-9.757758636,-1.464255066,9.956762636
29.69988233,-2.838547211,-8.61772934,-1.09871521,9.139463023
29.70996433,-2.686014404,-7.817194061,-1.168769531,8.348006863
29.72004633,-1.055155792,-7.608827362,-1.233135681,7.77998915
29.73012933,0.8231382751,-7.437433777,-1.395098877,7.611785512
29.74021133,1.728006592,-7.024292908,-1.738484802,7.439692671
29.75029333,1.972448273,-6.731202393,-1.582359467,7.190514538
29.76037633,2.252665558,-6.073320465,-1.5527211,6.661131015
29.77045833,2.296224976,-5.538332977,-1.676962738,6.225591163
29.78054033,2.409090271,-4.793481903,-1.085392914,5.473505501
29.79062333,1.584155731,-3.589236145,-1.147064667,4.08753261
29.80070533,0.6273454285,-2.939736786,-1.550176392,3.382109032
29.81078833,0.9762698364,-2.268532562,-1.444346466,2.861027699
29.82087033,1.432521057,-1.69312912,-1.793570251,2.852314331
29.83095233,1.994602203,-0.646355896,-2.37990097,3.171772773
29.84103533,2.384990387,-0.2893482971,-2.18455719,3.247182117
29.85111733,2.908302155,-0.8406518555,-1.880689087,3.563973682
29.86119933,3.523223419,-1.291065216,-1.20170105,3.940055592
29.87128233,3.895050201,-1.879940643,-0.006735992432,4.325001534
29.88136433,4.027524719,-2.918930054,1.009051666,5.075361395
29.89144633,3.823648682,-4.760251007,1.876647491,6.387650953
29.90152933,3.560495911,-7.42770401,3.20019516,8.836807515
29.91161133,1.758543091,-11.47932861,6.848857727,13.48237039
29.92169333,-0.7238946533,-17.16495529,12.73267227,21.3841216
29.93177633,-3.044069824,-25.01029083,22.7745401,33.96263661
29.94185833,-8.835526428,-36.06360535,36.27077454,51.90586906
29.95194033,-10.35262161,-37.95432358,18.8821843,43.63764815
29.96202333,-8.258925476,-25.30712357,4.825515289,27.05449964
29.97210533,-6.128256226,-12.20067856,2.449655914,13.87129755
29.98218833,-4.226461029,-4.462969208,2.283052368,6.556934886
29.99227033,-1.913919983,1.265767822,0.04834945679,2.2951243
