Time (s),Acceleration x (m/s^2),Acceleration y (m/s^2),Acceleration z (m/s^2),Absolute acceleration (m/s^2)
40.00636496,-0.8975335693,-13.549823,1.602118378,13.67369932
40.01644696,-2.237397308,-13.67181931,1.728006592,13.96103852
40.02652896,-3.176843719,-13.89934616,2.665057983,14.50471281
40.03661196,-3.374283142,-14.2093515,4.190535736,15.19381606
40.04669396,-3.033292236,-13.67077148,5.552852783,15.06403096
40.05677596,-2.353555756,-12.43718674,5.698799286,13.88161201
40.06685896,-2.075284424,-11.7355957,5.548661499,13.14605098
40.07694096,-2.092498627,-11.15914444,5.695206757,12.70198548
40.08702296,-2.451152802,-11.1848909,6.996151428,13.41849728
40.09710508,-2.658621368,-12.45065872,7.306306458,14.67887204
40.10718808,-2.231858826,-13.7315451,3.058889008,14.24406286
40.11727008,-1.742676086,-15.46464111,-3.74655899,16.00714681
40.12735208,-1.534758453,-18.13598602,-9.160949707,20.37627228
40.13743508,-0.09190887451,-19.9928746,-9.295819244,22.04848606
40.14751708,2.46297821,-19.24068878,-6.34305954,20.40844851
40.15759908,5.199587402,-18.26995743,-3.714824982,19.35528295
40.16768208,7.109914856,-16.84641769,-0.1013392639,18.285594
40.17776408,8.036937103,-15.7129747,4.398902435,18.18901522
40.18784608,8.495733032,-14.90121277,5.235662384,17.93420704
40.19792808,8.323141937,-13.31600922,1.888921967,15.81640981
40.20801108,6.927144928,-11.15121094,-1.07536377,13.1716077
40.21809308,4.111949158,-9.59938797,-1.089135132,10.49964717
40.22817508,1.595681763,-8.506211243,-1.067879333,8.720217673
40.23825808,-0.3679348755,-7.743996277,-1.378782806,7.874382289
40.24834008,-2.031874695,-7.478747864,-0.5316943359,7.76806818
40.25842208,-2.772983551,-7.803722076,-0.2094145203,8.284405257
40.26850508,-1.931134186,-8.185278625,-0.5776487732,8.429812781
40.27858708,-0.7852670288,-8.25144104,-1.323847046,8.393777132
40.28866908,0.02020797729,-7.88754776,-1.743574219,8.077986698
40.29875208,0.5688171387,-7.292984161,-1.981579285,7.578774794
40.30883408,1.333427124,-6.573131104,-2.307002563,7.09269633
40.31891608,1.672472076,-5.511389008,-2.285896454,6.196603444
40.32899808,1.725012817,-4.404291229,-2.140698395,5.191920653
40.33908108,1.744322662,-3.424578552,-2.140548706,4.399130434
40.34916308,1.687890015,-2.494562531,-2.453847198,3.884994336
40.35924508,1.778152313,-1.689536591,-2.581082611,3.560666649
40.36932808,1.862427063,-1.113384705,-2.542313232,3.34239684
40.37941008,2.07333847,-0.7973918152,-2.511627045,3.353033929
40.38949208,2.303260345,-0.7455995178,-2.155966644,3.241777141
40.39957508,2.90650589,-1.111438751,-1.51754425,3.462082197
40.40965708,3.5301091,-1.453926544,-0.8286767578,3.906696536
40.41973908,4.057163086,-1.914069672,-0.03158432007,4.486115534
40.42982108,4.308340759,-2.985840912,0.8740324402,5.314224191
40.43990408,4.468657379,-5.093458099,2.053429871,7.080168671
40.44998608,4.480183411,-8.144862671,3.839515686,10.05747046
40.46006808,3.946992188,-12.14065338,7.536078644,14.82453012
40.47015108,3.322939911,-16.84851334,15.38590485,23.05732854
40.48023308,3.305576019,-22.74609924,23.44364868,32.83163912
40.49031508,3.886218567,-29.44676514,27.44482819,40.44049043
40.50039808,0.6201603699,-32.60863998,24.52125778,40.80441255
40.51048008,-2.828518066,-23.71458527,10.61981598,26.1373786
40.52056208,-4.006717987,-12.91020309,4.381837921,14.21012444
40.53064408,-5.100044403,-5.558091888,4.148473206,8.608871488
40.54072708,-5.525459747,-1.032552795,3.805536346,6.788149791
40.55080908,-2.066303101,-1.86392395,-1.712438965,3.267455922
40.56089108,3.630101166,-8.333171082,-7.681127014,11.9003818
40.57097408,6.664740601,-14.49346069,-12.13915649,20.04590458
40.58105608,8.597221985,-15.8828714,-14.57055038,23.2051453
40.59113808,8.785829773,-13.47902023,-10.12389725,19.00968402
40.60122108,8.119415588,-10.97338074,-4.21463562,14.28646729
40.61130308,6.497238922,-10.1152153,15.04057297,19.25488326
40.62138508,4.405788116,-8.815168762,17.89843002,20.43213074
40.63146708,3.564387817,-4.541705475,-4.049978027,7.052252913
40.64155008,-0.4393363953,-2.724484406,-10.58628571,10.94007664
40.65163208,-2.1950354,-3.789519653,-7.399712219,8.598510367
40.66171408,-1.83697998,-6.728657684,-5.687273254,8.999689259
40.67179708,-0.4796026611,-9.260642395,-6.722221069,11.45328653
40.68187908,-0.01137634277,-10.63837738,-6.929689636,12.69629084
40.69196108,0.3517684937,-12.05518112,-5.563330994,13.28163336
40.70204408,0.7505392456,-13.37214249,-3.313509521,13.79698696
40.71212608,0.7475454712,-14.16743866,-1.199605408,14.23777355
40.72220808,0.7973918152,-14.02119278,0.2145039368,14.04548656
40.73229108,1.092278595,-13.02172119,1.822460175,13.19392498
40.74237308,1.396895142,-11.74727142,3.442990265,12.32087188
40.75245508,1.907633057,-10.42821442,4.274660797,11.43063623
40.76253708,2.268981628,-8.916657715,3.551065521,9.862308491
40.77262008,2.367776184,-7.855214996,1.794618073,8.39829868
40.78270208,2.46537323,-6.976841583,-1.175505524,7.492409284
40.79278408,1.766476593,-6.05984848,-3.372337189,7.156455916
40.80286708,1.196461945,-6.127956848,-3.037483521,6.943319268
40.81294908,0.5170248413,-6.875202942,-1.487307129,7.053212933
40.82303108,0.3007246399,-7.842042389,-0.07334747314,7.848149081
40.83311408,0.4326004028,-8.456065521,0.5875282288,8.487483527
40.84319608,0.2127076721,-8.71951767,1.022373962,8.781826773
40.85327808,-0.03113525391,-8.760233002,1.310973816,8.857838562
40.86336108,0.01017883301,-8.632698212,1.184337158,8.713566235
40.87344308,0.1746867371,-8.26551178,0.9816586304,8.325434169
40.88352508,0.1857637024,-7.97646286,0.4376898193,7.990622021
40.89360708,0.1157093811,-7.812553711,-0.5794450378,7.834866987
40.90369008,0.1697470093,-7.833210754,-1.395547943,7.95836408
40.91377208,0.573457489,-8.040379944,-1.150507507,8.142495358
40.92385408,1.09632019,-8.593180389,0.09610015869,8.663365536
40.93393708,1.782642975,-9.450896759,1.648821259,9.757862321
40.94401908,2.331252136,-10.48000671,2.655777283,11.05976628
40.95410108,2.332898712,-11.33757339,2.56716156,11.85636139
40.96418408,2.158511353,-11.90713898,2.634820862,12.3847249
40.97426608,1.468146973,-12.25905716,2.932551727,12.69014569
40.98434808,-0.009879455566,-12.28719864,2.702031097,12.58079171
40.99443008,-2.005828857,-12.29468307,1.629212036,12.56331617
41.00451308,-3.707490234,-12.92307632,1.505569153,13.52841912
41.01459508,-3.996539154,-13.94634842,2.872825928,14.78939107
41.02467708,-3.302881622,-13.88527542,4.245621185,14.89077566
41.03476008,-2.520907745,-12.84179535,4.728516998,13.91494005
41.04484208,-2.329156494,-12.31444199,4.515060883,13.32126969
41.05492408,-2.498304749,-12.47490829,3.787124634,13.27430513
41.06500708,-2.631378021,-12.89194107,3.999233551,13.75209671
41.07508908,-2.722688141,-13.32588867,4.841531982,14.43720096
41.08517108,-2.133663025,-13.85473892,4.509372711,14.7255136
41.09525421,-0.5074447632,-15.0043483,1.901944885,15.13292313
41.10533621,0.6680607605,-17.14145416,-4.321513367,17.69042774
41.11541821,1.401385803,-19.45639023,-9.364975433,21.63834023
41.12550021,2.993624725,-19.32511322,-9.430688782,21.71081944
41.13558321,4.544549561,-17.45505203,-7.019652557,19.35477445
41.14566521,5.66556839,-15.47526901,-3.119063873,16.77233364
41.15574721,5.972579956,-13.94769562,2.268382874,15.34129999
41.16583021,6.625522156,-13.53545288,5.695356445,16.11034182
41.17591221,6.50921402,-12.55828491,3.547622681,14.58307285
41.18599421,5.288951569,-11.06259521,-0.3600013733,12.26717663
41.19607721,3.35691925,-10.346185,-1.061891785,10.92886385
41.20615921,0.6855743408,-9.493707733,-0.9300160217,9.563755983
41.21624121,-1.004710693,-9.073232117,-1.764979706,9.297749082
41.22632421,-1.644779663,-8.383017426,-1.327888641,8.645436342
41.23640621,-1.827250214,-8.077502747,-0.5626799011,8.300692901
41.24648821,-1.046922913,-8.386160889,-0.846789093,8.493573677
41.25657021,0.4022135925,-8.653504944,-1.255888367,8.753409574
41.26665321,1.28238327,-8.518635406,-1.519490204,8.747600043
41.27673521,1.573378143,-8.176297302,-1.685644684,8.4952195
41.28681721,1.816921692,-7.607629852,-1.86272644,8.040334955
41.29690021,1.878294067,-6.701713715,-2.211052094,7.302719129
41.30698221,1.652862854,-5.751340027,-2.398312683,6.446841975
41.31706421,1.408121796,-4.796026611,-2.17991684,5.453138149
41.32714721,1.418300629,-3.877087555,-2.254461823,4.703826388
41.33722921,1.596579895,-3.063679047,-2.550396423,4.294149343
41.34731121,2.058369598,-2.43723175,-2.706821136,4.183762024
41.35739321,2.45714035,-2.031425629,-2.817441101,4.254668394
41.36747621,2.713257751,-1.681004333,-2.648741913,4.147695374
41.37755821,2.918630676,-1.517693939,-2.053729248,3.878092797
41.38764021,3.355721741,-1.578617249,-1.194815369,3.896214135
41.39772321,3.789669342,-1.675316162,-0.315693512,4.155471136
41.40780521,4.180207214,-1.927541656,0.2781216431,4.611605018
41.41788721,4.350552979,-2.87611908,1.22744751,5.357798015
41.42797021,4.302951965,-4.831203461,2.634671173,6.985514633
41.43805221,4.100572815,-7.708370361,4.484075317,9.815324879
41.44813421,3.480562134,-11.34535721,7.890840912,14.25120392
41.45821721,2.370919647,-15.7500975,14.41367661,21.48117559
41.46829921,2.139650574,-21.46670975,21.08979355,30.16914191
41.47838121,3.157982941,-27.79914139,24.87212814,37.43511555
41.48846321,1.321152649,-31.46082687,22.38490036,38.63434788
41.49854621,-1.942061462,-24.67274277,9.682614899,26.57571955
41.50862821,-3.282973022,-14.37999664,4.007616119,15.28473756
41.51871021,-3.666475525,-7.414531403,4.121229858,9.24136647
41.52879321,-3.319646759,-2.960393829,4.414320374,6.266594816
41.53887521,-0.2905458069,-2.357896729,1.096170502,2.616425733
41.54895721,4.055965576,-6.284830627,-4.766088867,8.86936051
41.55904021,5.54970932,-11.02996307,-9.09508667,15.33557826
41.56912221,6.146817627,-13.649366,-12.37237152,19.4207141
41.57920421,7.245682526,-13.29415466,-10.57685532,18.46901004
41.58928721,7.258855133,-11.83274368,-6.417305145,15.2933517
41.59936921,6.442602539,-10.2717897,-0.004490661621,12.12504892
41.60945121,2.752176819,-10.32448013,23.2709079,25.60672805
41.61953321,3.038531342,-6.823111267,8.164621582,11.065648
41.62961621,0.9931846619,-3.342100067,-6.955136719,7.780101247
41.63969821,-2.429447937,-3.355122986,-8.153544617,9.145455557
41.64978021,-3.812422028,-5.076842651,-4.884342957,8.010349502
41.65986321,-1.738484802,-8.739725647,-5.612728271,10.53127972
41.66994521,-0.3640429688,-11.94486053,-7.180567932,13.94176374
41.68002721,-0.7330256653,-13.04492294,-7.1000354,14.87003174
41.69011021,-0.6864724731,-13.46330292,-5.40106842,14.52251046
41.70019221,-0.02125579834,-13.80025223,-2.463576965,14.01843874
41.71027421,0.7740403748,-13.15150131,-0.06541397095,13.17442235
41.72035621,1.308279419,-12.04170914,2.043999481,12.2838222
41.73043921,1.767524414,-11.15615067,3.668571167,11.87612119
41.74052121,2.148781586,-10.17149826,4.142635345,11.19098149
41.75060321,2.566862183,-9.156309357,3.604953461,10.16968397
41.76068621,3.821403351,-8.010292511,2.454146576,9.208189024
41.77076821,4.21583313,-6.81921936,0.3246748352,8.023740737
41.78085021,3.260519714,-6.24127121,-1.264420624,7.154244519
41.79093321,2.270029449,-6.150559845,-1.442400513,6.712893515
41.80101521,1.115480347,-6.731352081,-0.9900411987,6.894605052
41.81109721,0.6771917725,-7.713609467,-0.08412506104,7.743735321
41.82118021,0.3372486877,-8.344248047,0.6198609924,8.374033663
41.83126221,-0.06676116943,-8.666078796,0.9854008484,8.72217826
41.84134421,-0.3409909058,-8.854536896,0.8834628296,8.905032566
41.85142621,-0.1868115234,-8.804690552,0.549357605,8.823789891
41.86150921,0.1922003174,-8.5240242,0.1371148682,8.527293241
41.87159121,0.4504133606,-8.149802399,-0.5815406799,8.182929848
41.88167321,0.5656736755,-7.784711609,-1.450633392,7.938895312
41.89175621,0.4171824646,-7.636519775,-1.745669861,7.84460571
41.90183821,0.5523513794,-7.944429474,-0.9924362183,8.025209116
41.91192021,0.675844574,-8.458909607,-0.01766326904,8.485884139
41.92200321,0.8972341919,-9.19567749,0.7072792053,9.266377802
41.93208521,1.419797516,-10.20173538,1.413360901,10.39657727
41.94216721,2.004930725,-11.12291977,2.036065979,11.4841045
41.95225021,2.132764893,-11.45582748,2.441273346,11.90564929
41.96233221,1.561403046,-11.27620102,2.738255768,11.70848981
41.97241421,0.4915777588,-11.39939484,2.561623077,11.69400548
41.98249621,-0.6695576477,-11.94276489,1.654060364,12.07534084
41.99257921,-2.205513611,-12.73117538,1.213526459,12.97766402
42.00266121,-3.485202484,-13.34430038,1.662891998,13.8918033
42.01274321,-3.849095764,-13.44953156,2.644850006,14.23729851
42.02282621,-3.438948669,-13.31960175,4.269571381,14.40372863
42.03290821,-2.762804718,-13.25358902,5.322182465,14.54703881
42.04299021,-2.415526886,-13.28457458,5.02085907,14.40568353
42.05307321,-2.037862244,-13.06303528,4.290827179,13.89989105
42.06315521,-1.994452515,-12.47296234,4.243226166,13.32507406
42.07323721,-1.522783356,-12.98295181,5.080285492,14.02445035
42.08332021,-0.6423143005,-14.18854477,5.070406036,15.08099425
42.09340183,0.03367996216,-15.62630493,2.080822906,15.76427493
42.10348383,0.1410067749,-17.45041168,-4.322710876,17.97839203
42.11356583,0.07813751221,-19.5152179,-9.211843872,21.58026651
42.12364883,2.118394775,-19.59634918,-9.38638092,21.83136836
42.13373083,5.050647125,-18.13808167,-6.118227081,19.79726611
42.14381283,7.333250427,-16.07372452,-1.306034088,17.71572484
42.15389583,7.669600983,-13.63364868,2.947969666,15.91821852
42.16397783,7.481292572,-12.44616806,5.283263397,15.45282207
42.17405983,7.302264862,-11.6453334,3.595074005,14.20779432
42.18414283,6.392456818,-10.66786606,0.04655319214,12.43660073
42.19422483,4.218228149,-10.02929398,-1.606908417,10.9982881
42.20430683,1.474134521,-9.436526642,-1.6708255,9.696018023
42.21438883,-0.2420466614,-8.842412109,-1.649420013,8.998190089
42.22447183,-1.134041748,-8.199648743,-1.500479736,8.412593514
42.23455383,-1.107846222,-7.83485733,-1.057101746,7.983093181
42.24463583,-0.3174897766,-7.908354492,-0.6072871399,7.937988927
42.25471883,0.5641767883,-8.019872589,-1.178798676,8.125651858
42.26480083,1.268911285,-8.165070648,-1.913321228,8.481704585
42.27488283,1.556014252,-7.977510681,-2.192939758,8.418482156
42.28496583,1.481918335,-7.442223816,-2.368674316,7.949427356
42.29504783,1.300046539,-6.562203827,-2.575095062,7.168246274
42.30512983,1.192719727,-5.753136292,-2.415826263,6.352745396
42.31521283,1.40647522,-4.870272217,-2.125130768,5.496717638
42.32529483,1.478774872,-3.926335144,-2.008822632,4.651693364
42.33537683,1.795067139,-3.018323364,-2.01960022,4.051089608
42.34545983,2.188299408,-2.168839874,-1.988315277,3.666867647
42.35554183,2.381996613,-1.576970673,-2.01960022,3.498503882
42.36562383,2.398462372,-1.183289337,-1.912123718,3.28770627
42.37570583,2.620899811,-1.114881592,-1.309177551,3.134648727
42.38578883,2.995121613,-1.194965057,-0.5351371765,3.268802037
42.39587083,3.234773254,-1.329385529,0.1796264648,3.501897994
42.40595283,3.304827576,-1.918710022,0.8351133728,3.911617031
42.41603583,3.336711273,-3.508553925,2.074386292,5.267510916
42.42611783,3.645818481,-5.98380661,3.635040894,7.89376059
42.43619983,3.405867462,-9.319320374,6.277196503,11.74107582
42.44628283,2.679278412,-13.72376129,12.06625809,18.46929184
42.45636483,1.33971405,-19.19383621,20.3790715,28.02685743
42.46644683,1.824256439,-26.09957565,25.15968018,36.29773088
42.47652883,1.505269775,-32.07784378,25.27643738,40.86749546
42.48661183,-1.940414886,-29.1526268,12.88670197,31.93286625
42.49669383,-4.002077637,-17.61282394,3.885021057,18.47489056
42.50677583,-3.540138245,-9.18400177,3.91046814,10.59104473
42.51685883,-3.438200226,-3.994144135,4.129911804,6.695564179
42.52694083,-1.727557526,-2.255359955,1.685794373,3.303483948
42.53702283,2.35535202,-6.272107086,-3.182082825,7.417052079
42.54710583,3.813170471,-11.77825699,-9.359586639,15.51997
42.55718783,4.702171783,-14.5623175,-14.73041794,21.24045017
42.56726983,6.175258484,-13.51853806,-12.76575348,19.59206856
42.57735283,6.989265747,-11.13190109,-7.58218277,15.17427274
42.58743483,7.630981293,-9.256451111,-3.034190369,12.37416962
42.59751683,6.358926544,-9.320068817,21.39665543,24.18918132
42.60759883,5.024601288,-6.74677002,15.18292694,17.35761488
42.61768183,1.438508606,-2.997217255,-5.915847931,6.786005822
42.62776383,-3.154091034,-3.010838928,-11.06289459,11.89121853
42.63784583,-5.143005066,-4.692891083,-5.810167694,9.068173821
42.64792883,-2.579885101,-8.154592438,-4.926555176,9.870366298
42.65801083,-0.02395019531,-11.72197403,-6.413413239,13.36177825
42.66809283,-0.09565109253,-13.2975975,-6.209088135,14.67610384
42.67817583,-0.1266366577,-13.72046814,-4.799918518,14.5363854
42.68825783,0.6316864014,-14.01789963,-3.341201935,14.42442956
42.69833983,1.614991608,-13.39145233,-1.695973206,13.59468714
42.70842283,2.28754303,-12.09514801,1.063388672,12.35541395
42.71850483,2.738405457,-10.87922653,3.710933075,11.81640633
42.72858683,2.773432617,-9.66495163,4.132456512,10.87108161
42.73866883,3.101250916,-8.503367157,3.11247757,9.571443301
42.74875183,4.125570831,-7.203170929,1.528022461,8.44043001
42.75883383,3.570375366,-6.176306305,-0.9548643494,7.197645848
42.76891583,2.687960358,-5.752238159,-2.280357971,6.746362516
42.77899883,1.812880096,-6.370302887,-2.250719604,6.995214925
42.78908083,1.09632019,-7.18086731,-1.547781372,7.427139453
42.79916283,0.866098938,-7.993677063,-0.726738739,8.073236622
42.80924583,0.885408783,-8.512647858,0.2085163879,8.56110982
42.81932783,0.6539900208,-8.653055878,1.037642212,8.739552639
42.82940983,0.5282514954,-8.639434204,1.653461609,8.812083085
42.83949283,0.6300398254,-8.562194824,2.008523254,8.817159183
42.84957483,0.7430548096,-8.575068054,1.46844635,8.731566713
42.85965683,0.6129753113,-8.593928833,0.03772155762,8.615844383
42.86973883,0.540226593,-8.556057587,-1.797162781,8.759438353
42.87982183,0.6610253906,-8.354875946,-3.242108002,8.986221171
42.88990383,0.8399034119,-8.241112518,-3.473676453,8.982638887
42.89998583,1.297501831,-8.745713196,-2.0079245,9.066574386
42.91006883,2.035467224,-9.760303345,0.5619314575,9.986111113
42.92015083,2.488874359,-10.81875229,2.921774139,11.47940159
42.93023283,2.07573349,-11.54878418,4.276007996,12.48868808
42.94031583,0.9193881226,-11.83259399,4.403093719,12.6587041
42.95039783,-0.429307251,-12.08047852,3.4810112,12.57933642
42.96047983,-1.617985382,-12.62774048,1.462159424,12.81466412
42.97056283,-3.030148773,-13.16841614,-0.382155304,13.51795206
42.98064483,-3.986210632,-13.7303476,-0.6834786987,14.31361112
42.99072683,-3.843557281,-14.0328685,0.7845185852,14.57085448
43.00080883,-2.649939423,-14.00831955,2.966381378,14.56209511
43.01089183,-0.8611592102,-14.1469313,4.205354919,14.78385168
43.02097383,0.2643502808,-14.39855804,4.304598541,15.0305663
43.03105583,-0.6644682312,-13.63140335,3.081342316,13.99111667
43.04113883,-2.351011047,-13.20269485,2.109563141,13.57529598
43.05122083,-2.307751007,-13.25852875,1.871857452,13.58742616
43.06130283,-1.837429047,-13.16287766,1.689985657,13.39752011
43.07138583,-0.5409750366,-13.80504227,2.95919632,14.12900169
43.08146783,2.335293732,-14.96153732,4.247267761,15.72706201
43.09154983,3.840114441,-15.94978226,-0.08786727905,16.40578415
43.10163358,4.290976868,-16.84117859,-7.281308441,18.84290931
43.11171558,5.211113434,-17.21734634,-10.01222946,20.58731301
43.12179758,6.375392303,-16.00816086,-7.768694916,18.90130847
43.13187958,7.40315506,-14.10307251,-2.034718781,16.05750415
43.14196258,6.663094025,-12.50304977,3.737727356,14.6524292
43.15204458,5.522316284,-11.73185349,5.926326141,14.25670736
43.16212658,4.63241684,-10.914104,3.161425781,12.27076057
43.17220958,3.271896057,-10.13736923,-1.934726715,10.826575
43.18229158,0.9629475403,-10.17733612,-3.490142212,10.802154
43.19237358,-1.165925446,-9.815089417,-2.846480713,10.28580648
43.20245658,-1.689985657,-9.365125122,-1.582509155,9.647069778
43.21253858,-0.9171427917,-8.862021332,-0.7249424744,8.938798274
43.22262058,0.03592529297,-8.424481201,-0.3668870544,8.432542929
43.23270358,0.8187973022,-8.157137146,-0.4860392761,8.212523949
43.24278558,1.497036896,-7.962990875,-1.136586456,8.181819597
43.25286758,1.798659668,-7.56811203,-1.692829742,7.960977882
43.26294958,1.758842468,-7.068301392,-2.135010223,7.59030171
43.27303258,1.14556778,-6.776558075,-2.314786377,7.25205494
43.28311458,1.008303223,-6.198460236,-2.527194672,6.769364637
43.29319658,0.9014254761,-5.468128967,-2.487976227,6.074786251
43.30327958,0.82373703,-4.659211121,-2.253863068,5.240867265
43.31336158,1.144969025,-3.687132568,-2.313139801,4.500723984
43.32344358,1.509760437,-2.791245575,-2.329455872,3.936596639
43.33352658,1.960922241,-2.193089447,-2.20326828,3.675492956
43.34360858,2.412084045,-1.766027527,-2.102827148,3.654980805
43.35369058,2.599644012,-1.568438416,-1.695823517,3.477637913
43.36377358,2.770438843,-1.5925383,-1.152154083,3.396905746
43.37385558,3.132086792,-1.650617523,-0.4252656555,3.56585989
43.38393758,3.797004089,-1.763632507,0.5807922363,4.226696026
43.39401958,4.114194489,-2.430645447,1.817520447,5.112535003
43.40410258,3.991449738,-4.083208923,3.157683563,6.524969855
43.41418458,4.320166168,-6.755302277,4.853058014,9.372839306
43.42426658,4.640799408,-10.50979477,8.399932251,14.23206475
43.43434958,4.093238068,-15.48365158,15.69605988,22.42463734
43.44443158,3.777245178,-22.41034744,23.62552048,32.78195344
43.45451358,4.569248199,-29.2363028,26.3616806,39.63051393
43.46459658,2.250420227,-31.69389221,22.83142181,39.12596346
43.47467858,-1.905238037,-22.939048,11.39490417,25.6841137
43.48476058,-4.442611542,-12.0926033,4.978497162,13.81134627
43.49484358,-6.169420624,-5.070406036,4.233646088,9.038502498
43.50492558,-5.989345093,-0.9577084351,3.33476532,6.921713648
43.51500758,-2.671494598,-2.546654205,-2.427501984,4.417589491
43.52508958,1.484313354,-8.512947235,-8.106242981,11.84840209
43.53517258,4.845573578,-13.72436005,-16.85599777,22.27021111
43.54525458,7.600444794,-14.72622665,-16.41486511,23.32544339
43.55533658,8.596772919,-12.94223648,-9.685009918,18.30861565
43.56541958,8.203390961,-10.82084793,-4.815336456,14.40742303
43.57550158,5.934858398,-11.42708725,23.0080545,26.36610398
43.58558358,4.958289185,-9.738897858,14.21788376,17.93262339
43.59566658,3.494183807,-4.497098236,-6.606960754,8.722679831
43.60574858,0.3227288818,-2.981499939,-9.821226654,10.2688845
43.61583058,-0.6382727051,-4.534370728,-4.633015594,6.51404202
43.62591358,-0.1287322998,-7.143145752,-4.709356842,8.556818632
43.63599558,1.331032104,-9.921218719,-6.639742584,12.01201103
43.64607758,0.9777667236,-11.46316223,-6.739884338,13.33364755
43.65616058,0.4697232056,-12.61845978,-5.438041534,13.74839855
43.66624258,0.5379812622,-13.59966934,-3.564687195,14.06937898
43.67632458,0.4354444885,-13.96969986,-1.612297211,14.06917298
43.68640658,0.5522016907,-13.25688217,-0.1622625732,13.26937002
43.69648958,1.039139099,-12.0541333,1.161434784,12.15445887
43.70657158,1.524280243,-11.00676132,2.649490356,11.42331056
43.71665358,1.90718399,-9.816586304,3.440295868,10.57536539
43.72673658,2.124681702,-8.847950592,3.224295044,9.653837607
43.73681858,2.642155609,-7.994425507,2.015109558,8.657510726
43.74690058,2.847378845,-6.978787537,0.3002755737,7.543288884
43.75698358,2.048041077,-6.506819,-1.275796967,6.939799972
43.76706558,1.379680939,-6.550528107,-2.000589752,6.986794496
43.77714758,0.855920105,-6.960675201,-1.285227356,7.12989536
43.78722958,0.2574645996,-7.393574982,-0.5043013,7.4152248
43.79731258,0.2101629639,-7.88051239,-0.0513432312,7.883481473
43.80739458,0.33230896,-8.150700531,0.3824546814,8.166432512
43.81747658,0.3445834351,-8.207432556,0.4718188477,8.2282015
43.82755958,0.4558021545,-8.107590179,0.08711883545,8.120859795
43.83764158,0.7432044983,-7.976163483,-0.5852828979,8.03206654
43.84772358,0.7732919312,-7.79623764,-1.343456268,7.948847495
43.85780658,0.4927752686,-7.855364685,-1.977537689,8.115432035
43.86788858,0.3035687256,-7.964487762,-1.953587494,8.206200301
43.87797058,0.5216651917,-8.396040344,-1.049018555,8.47738568
43.88805358,0.8385562134,-9.102870483,-0.04969665527,9.141547862
43.89813558,1.425934753,-9.971813507,0.9916877747,10.12194641
43.90821758,1.864971771,-10.96170502,1.799857178,11.26395057
43.91830058,1.966011658,-11.649375,2.320474548,12.03983978
43.92838258,1.579515381,-11.69996979,2.773432617,12.12749316
43.93846458,0.3608995056,-11.61300064,2.825374603,11.95720594
43.94854658,-1.084045715,-12.16146011,2.199825439,12.40626854
43.95862958,-2.507585449,-12.95226562,1.668131104,13.29781302
43.96871158,-3.721710663,-13.08249481,1.447789307,13.6784098
43.97879358,-4.306843872,-13.09970901,1.682950287,13.8918538
43.98887658,-3.616479492,-13.3706456,3.318149872,14.24300552
43.99895858,-1.778601379,-13.29969315,5.222938843,14.39876213
44.00904058,-0.5487588501,-12.78102173,5.587430878,13.95976492
44.01912358,-0.8399034119,-12.73671387,4.755460968,13.62144364
44.02920558,-1.03898941,-12.54376511,4.095782776,13.23635065
44.03928758,-1.763482819,-11.76149185,4.488865356,12.71190286
44.04937058,-2.114802246,-11.75864777,5.665269012,13.22246039
44.05945258,-1.265019379,-12.91828629,4.518354034,13.74401389
44.06953458,-0.05119354248,-14.90809845,0.7098239136,14.92507521
44.07961658,0.6108796692,-17.96384399,-5.997428284,18.94840392
44.08969958,1.233734436,-20.96929413,-11.63455582,24.01241941
44.09978146,3.954476624,-20.73503128,-11.50851791,24.04215864
44.10986346,6.892267456,-18.9086792,-6.562054138,21.16842116
44.11994646,8.369246063,-16.51126465,0.610430603,18.52130572
44.13002846,7.997718658,-14.35948929,5.79774353,17.42906384
44.14011046,7.500153351,-13.24535614,6.659052429,16.61429321
44.15019346,6.895410919,-11.80220718,3.34883606,14.0731478
44.16027546,5.783822479,-10.45994843,-0.2318678284,11.95478508
44.17035746,2.983894958,-9.681118011,-0.9476792908,10.17476148
44.18044046,0.3558100891,-8.833131409,-1.483564911,8.963915224
44.19052246,-0.4050576782,-8.169261932,-1.84521286,8.384850788
44.20060446,-0.6821315002,-7.369774475,-1.48835495,7.549442341
44.21068646,-0.1881587219,-7.199728088,-1.060694275,7.279873666
44.22076946,1.132544861,-7.48503479,-0.9354048157,7.627803474
44.23085146,2.019151154,-7.820936279,-1.382525024,8.194839297
44.24093346,2.088457031,-7.9507164,-1.879940643,8.432657996
44.25101646,1.650767212,-7.901019745,-1.679507446,8.244506696
44.26109846,1.437460785,-7.355703735,-1.653162231,7.674999434
44.27118046,1.229692841,-6.490951996,-1.706451416,6.823238141
44.28126346,0.7860154724,-5.302124176,-1.772613831,5.645573566
44.29134546,0.7542814636,-4.36447403,-1.90374115,4.820975466
44.30142746,0.8768765259,-3.405867462,-2.058968353,4.075315484
44.31151046,1.015787659,-2.471809845,-2.360291748,3.565479717
44.32159246,1.32459549,-1.835183716,-2.561024323,3.417791401
44.33167446,1.521885223,-1.458117828,-2.625839539,3.367087097
44.34175746,2.120789795,-1.386865997,-2.283651123,3.41118881
44.35183946,2.743345184,-1.39824234,-1.574126587,3.458164102
44.36192146,3.43655365,-1.407373352,-0.7975415039,3.798246068
44.37200346,3.961362305,-1.745520172,0.1537303162,4.331612285
44.38208646,3.854933624,-2.826123047,1.105301514,4.906034668
44.39216846,3.60615097,-4.764142914,2.369722137,6.427827435
44.40225046,3.549418945,-7.753875732,3.925137634,9.387633843
44.41233346,2.945574646,-12.08631638,7.988437958,14.7841332
44.42241546,1.542242889,-17.343983,16.68430481,24.11551962
44.43249746,0.6762936401,-23.88388321,24.78575775,34.42718457
44.44258046,1.074315948,-31.03990219,29.63806732,42.93069668
44.45266246,-0.8443940735,-31.62518509,22.09809677,38.59004035
44.46274446,-2.757116547,-20.30407745,7.117399292,21.6913491
44.47282746,-3.211571503,-10.384655,2.369572449,11.12520223
44.48290946,-3.47637085,-3.852837982,1.992356873,5.558686959
44.49299146,-2.061363373,-0.6364764404,-0.8072712708,2.303477397
44.50307346,3.088527374,-4.131857758,-5.91015976,7.844822385
44.51315646,6.206244049,-10.6898703,-12.002341,17.22924786
44.52323846,7.190896454,-13.85653519,-16.65137329,22.82500365
44.53332046,9.043743439,-13.48560654,-12.58358231,20.54257585
44.54340346,8.451275482,-11.94755493,-5.443430328,15.61406609
44.55348546,3.573369141,-10.50485504,15.00015701,18.65812576
44.56356746,-1.787133636,-10.16266663,20.76032867,23.18328894
44.57365046,-0.1272354126,-6.280938721,-4.420158234,7.681417765
44.58373246,-1.138083344,-3.87888382,-8.8704039,9.74807872
44.59381446,-0.3817062378,-4.44395874,-4.296814728,6.193309757
44.60389746,0.5912704468,-6.867119751,-3.892355804,7.915640727
44.61397946,1.878144379,-9.492061157,-6.766528931,11.80730982
44.62406146,1.802401886,-10.97098572,-7.065906372,13.17339034
44.63414446,0.8997789001,-11.81732574,-5.571713562,13.09590706
44.64422646,0.8208929443,-12.92636948,-2.870430908,13.26665997
44.65430846,0.7161108398,-13.81267639,-0.3579057312,13.83585705
44.66439046,0.4960684204,-13.88856857,1.126108246,13.9429746
44.67447346,0.615819397,-13.36316116,2.001338196,13.52622136
44.68455546,0.6583309937,-12.04395447,2.57883728,12.33453042
44.69463746,0.8002359009,-10.30831375,2.746937714,10.69800807
44.70472046,1.189127197,-8.853489075,2.129771118,9.183366338
44.71480246,2.058369598,-7.879763947,0.9550140381,8.199976651
44.72488446,2.8081604,-6.82984726,-1.059646454,7.460256633
44.73496746,3.099754028,-6.245163116,-2.424508209,7.381651404
44.74504946,2.903362427,-6.168821869,-1.460812225,6.972650069
44.75513146,2.305954742,-6.680906982,0.1022373962,7.068408439
44.76521446,1.890568542,-7.473059692,0.8970845032,7.760517456
44.77529646,1.256187744,-8.146060181,0.6836283875,8.270650028
44.78537846,0.8665480042,-8.338859253,0.495769043,8.398408541
44.79546046,0.2915936279,-8.311615906,0.09939331055,8.317323177
44.80554346,0.0860710144,-8.178991699,-0.3433859253,8.186649335
44.81562546,0.02140548706,-7.962841187,-0.682281189,7.992046395
44.82570746,0.2017803955,-7.73666153,-1.001118164,7.803773736
44.83579046,0.3153941345,-7.654931488,-1.28358078,7.768206303
44.84587246,0.3993695068,-7.91329422,-1.189426575,8.012144344
44.85595446,0.2725831604,-8.509953461,-0.5745053101,8.53367833
44.86603746,0.2203417969,-9.401798859,0.3412902832,9.410571255
44.87611946,0.5522016907,-10.37956558,1.202748871,10.46359944
44.88620146,0.8749305725,-10.94823303,1.574725342,11.09545267
44.89628446,0.860710144,-11.03535187,1.934726715,11.23668013
44.90636646,0.8063731384,-10.96335159,2.73795639,11.32880051
44.91644846,0.1254391479,-11.26766876,2.438878326,11.52927673
44.92653146,-0.722996521,-11.83109711,1.698517914,11.9742451
44.93661346,-1.897603912,-12.3726709,1.319356384,12.58668292
44.94669546,-3.327280884,-12.84927979,1.361269226,13.34270748
44.95677746,-4.232298889,-13.2645163,2.257006531,14.10509925
44.96686046,-4.288881226,-13.24341019,4.058210907,14.50005142
44.97694246,-3.134930878,-12.53792725,5.156327362,13.91456514
44.98702446,-1.787433014,-12.00413727,5.274132385,13.23293999
44.99710746,-1.382974091,-11.55102951,5.506299591,12.87082885
45.00718946,-0.5357359314,-11.13190109,6.646628265,12.9762823
45.01727146,0.2559677124,-11.59204422,7.099436646,13.59569819
45.02735446,-0.02903961182,-12.63582367,3.727548523,13.17419831
45.03743646,-0.4683760071,-14.56112,-2.179467773,14.73077294
45.04751846,-0.3712280273,-17.20522156,-5.965245209,18.21377527
45.05760146,0.177381134,-19.16779037,-6.074517975,20.10809341
45.06768346,2.023342438,-18.92529465,-6.163433075,20.00621402
45.07776546,4.054319,-18.2690593,-5.675298157,19.55517935
45.08784746,6.266418915,-17.55459503,-2.95096344,18.87167184
45.09792996,7.681725769,-16.71768539,1.032403107,18.42703915
45.10801196,7.859106903,-16.32130966,3.463647308,18.44308985
45.11809396,8.25144104,-15.38605453,3.366499329,17.78061504
45.12817696,7.87587204,-13.42842545,1.962568817,15.69087782
45.13825896,6.680906982,-11.35089569,0.7231462097,13.19091701
45.14834096,4.669988708,-9.829160156,0.07903564453,10.88243679
45.15842396,2.262245636,-8.974138184,-0.4231700134,9.264555268
45.16850596,0.8628057861,-8.539741516,-0.9443861389,8.635015007
45.17858796,-0.5170248413,-8.327782288,-0.9168434143,8.394038025
45.18867096,-1.101559296,-8.414302368,-0.6116281128,8.508114137
45.19875296,-0.4457730103,-8.430768127,-0.6899153137,8.470687572
45.20883496,0.4894821167,-8.209677887,-1.048569489,8.29083239
45.21891796,0.9235794067,-7.814499664,-1.225651245,7.963769516
45.22899996,0.8608598328,-7.051236877,-1.203796692,7.204869716
45.23908196,0.8750802612,-6.181695099,-1.274300079,6.372045233
45.24916396,0.951870575,-5.482349396,-1.359323273,5.727998974
45.25924696,0.9623487854,-4.894222412,-1.29645401,5.153670653
45.26932896,1.025218048,-4.254303131,-1.43925705,4.606693829
45.27941096,1.222058716,-3.625610504,-1.66618515,4.173086626
45.28949396,1.505269775,-2.846331024,-2.022593994,3.80241027
45.29957596,2.072889404,-2.250420227,-2.266586609,3.80771277
45.30965796,2.259700928,-1.580263824,-2.534529419,3.745306585
45.31974096,2.177372131,-1.090033264,-2.182910614,3.27020193
45.32982296,2.142195282,-1.022224274,-1.726360016,2.935006303
45.33990496,2.369273071,-1.102307739,-1.190175018,2.871420173
45.34998796,2.512974243,-1.191222839,-0.4501139832,2.817206772
45.36006996,2.598296814,-1.616488495,0.4647834778,3.095190635
45.37015196,2.604434052,-2.731220398,1.591490479,4.095788512
45.38023496,2.606230316,-4.753065948,2.753973083,6.08016777
45.39031696,2.642305298,-7.87003418,4.436623993,9.412908569
45.40039896,2.674188995,-12.03527252,8.441994781,14.94209983
45.41048096,2.097438354,-17.09505066,16.04318802,23.53771201
45.42056396,2.142494659,-23.46505417,21.81129318,32.10812297
45.43064596,2.722388763,-30.28382446,25.3955896,39.61637787
45.44072796,0.9976753235,-31.03017242,18.89386002,36.34342998
45.45081096,-1.817819824,-20.26979874,9.951006775,22.6537358
45.46089296,-2.475701752,-10.43495041,7.185956726,12.90950283
45.47097496,-2.912044373,-4.571643219,5.16590744,7.487758265
45.48105796,-3.212469635,-0.7828720093,1.382525024,3.583884092
45.49113996,-2.236199799,0.5330415344,-5.400170288,5.869119351
45.50122196,1.584754486,-3.039579163,-10.08572662,10.65234105
45.51130496,6.193819885,-8.718020782,-12.4828418,16.43741557
45.52138696,9.754465485,-12.96289352,-12.37835907,20.40612601
45.53146896,11.77616135,-14.74044708,-9.103020172,20.94812002
45.54155196,11.82870209,-15.56238785,-4.739144897,20.11381622
45.55163396,7.096442871,-16.65840866,14.13929718,22.97350224
45.56171596,-0.2462379456,-17.94183975,27.58254181,32.90542295
45.57179796,0.8405021667,-12.35650452,-1.638792114,12.49300954
45.58188096,-1.16772171,-6.296656036,-9.876761169,11.77123029
45.59196296,-3.247796173,-2.893782349,-9.426647186,10.38189932
45.60204496,-1.856439514,-2.301913147,-4.668491821,5.526299638
45.61212796,0.01347198486,-3.540287933,-4.096680908,5.414481934
45.62220996,1.029858398,-6.035149841,-6.013444977,8.581675968
45.63229196,0.6194119263,-8.85992569,-6.606511688,11.06923444
45.64237496,0.1222956848,-11.58949951,-5.430257721,12.79918568
45.65245696,-0.2844085693,-13.73079666,-2.910697174,14.03879707
45.66253896,-1.123713226,-14.94626907,-0.5459147644,14.99839037
45.67262196,-1.448388062,-14.76484634,0.9466314697,14.86588802
45.68270396,-1.007255402,-13.15808762,2.465522919,13.42492594
45.69278596,-0.137713623,-11.04792572,3.464695129,11.57928064
45.70286896,0.9909393311,-9.256750488,3.102747803,9.81307466
45.71295096,2.608775024,-7.665559387,1.709295502,8.275759721
45.72303296,3.994742889,-6.445446625,-0.2634521484,7.587566143
45.73311496,4.283193054,-6.015241241,-1.480870514,7.531390802
45.74319796,3.834875336,-6.345903625,-1.366059265,7.539421701
45.75327996,2.642904053,-7.112160187,-0.729433136,7.622324911
45.76336196,1.614542542,-8.301287384,-0.3107537842,8.462546175
45.77344496,1.15365097,-8.950337677,0.6491999817,9.047702234
45.78352696,0.6017486572,-9.031319275,1.836381226,9.235752557
45.79360896,-0.1604663086,-8.8704039,2.376757507,9.184704189
45.80369196,-0.6183641052,-8.458909607,1.736688538,8.657459961
45.81377396,-0.7604187012,-8.127349091,0.5926176453,8.184328654
45.82385596,-1.039288788,-7.990683289,-1.09048233,8.131438515
45.83393896,-1.028960266,-8.008196869,-2.442470856,8.435380264
45.84402096,-0.8491841125,-7.9905336,-3.066523132,8.600773511
45.85410296,-0.664019165,-8.370293884,-2.39516922,8.731527745
45.86418596,0.05194198608,-9.431287537,-0.5312452698,9.446380476
45.87426796,1.005758514,-10.77070221,1.544937286,10.92732389
45.88434996,1.786235504,-11.87794968,3.34763855,12.46928264
45.89443196,2.141746216,-12.23959763,4.379891968,13.17491103
45.90451496,1.779948578,-12.13496521,4.092190247,12.9294864
45.91459696,0.9074130249,-12.10712311,2.821931763,12.46471529
45.92467896,-0.01586700439,-12.31863327,1.524878998,12.41266423
45.93476196,-1.395398254,-12.60498779,1.284628601,12.74688684
45.94484396,-2.896925812,-13.013638,1.832040253,13.45746353
45.95492596,-3.440595245,-13.66119141,2.768343201,14.35721318
45.96500896,-3.004402313,-13.69277573,3.929478607,14.55882353
45.97509096,-2.077380066,-13.06213715,4.80904953,14.07344635
45.98517296,-1.614542542,-12.34048782,4.782255249,13.33282988
45.99525596,-2.191293182,-11.4993869,3.661535797,12.26558231
46.00533796,-1.986069946,-11.62886765,4.31522644,12.56169637
46.01541996,-1.52697464,-12.68117935,5.787714386,14.02289553
46.02550296,-0.8012837219,-13.60730347,4.405638428,14.32516713
46.03558496,-0.06706054688,-15.00614456,-1.235680389,15.05708397
46.04566696,0.290994873,-17.18426514,-8.143066406,19.01823275
46.05574896,1.630110168,-19.11509995,-9.930050354,21.60208798
46.06583196,3.422782288,-19.1023764,-6.722071381,20.53783013
46.07591396,6.120921478,-18.41784988,-2.245779877,19.53781977
46.08599596,8.257129211,-16.95194824,1.279239807,18.89934355
46.09607925,8.214916992,-15.20148834,3.716770935,17.67440226
46.10616125,8.009394379,-14.03301819,3.930825806,16.6291127
46.11624325,7.867040405,-13.1012059,1.938468933,15.40420665
46.12632625,6.645131378,-11.66449356,-0.4767585754,13.43299966
46.13640825,4.021237793,-10.1842218,-1.417402496,11.04073172
46.14649025,0.9240284729,-9.015302582,-1.11982132,9.131457115
46.15657325,-0.8315208435,-8.365054779,-1.41351059,8.524293552
46.16665525,-1.857487335,-7.785460052,-0.9307644653,8.057913497
46.17673725,-2.102078705,-7.554640045,-0.5207670593,7.858913374
46.18681925,-1.112336884,-7.750881958,-0.4055067444,7.840784412
46.19690225,0.4040098572,-7.789801025,-1.059945831,7.871957136
46.20698425,1.65570694,-7.481591949,-1.540746002,7.815976063
46.21706625,2.062710571,-7.042854309,-1.7902771,7.553917117
46.22714925,2.031126251,-6.570586395,-2.242486725,7.23372837
46.23723125,1.939217377,-5.934409332,-2.515069885,6.730776678
46.24731325,1.500479736,-5.146447906,-2.291285248,5.829867372
46.25739625,1.18763031,-4.171525269,-2.255060577,4.888495375
46.26747825,1.188079376,-3.16980835,-2.515069885,4.217202166
46.27756025,1.479223938,-2.124382324,-2.690205688,3.733404661
46.28764325,1.739083557,-1.21337677,-2.671644287,3.410920404
46.29772525,1.931732941,-0.5138813782,-2.706970825,3.365019654
46.30780725,2.009870453,-0.06945556641,-2.367327118,3.106226166
46.31789025,2.289788361,-0.1504371643,-1.710343323,2.861998665
46.32797225,2.64320343,-0.3353027344,-0.9710307312,2.835816104
46.33805425,3.091072083,-0.6827302551,0.1140628052,3.167626484
46.34813625,3.453169098,-1.692530365,1.332379303,4.06992266
46.35821925,3.552861786,-3.437002716,2.501747589,5.540266739
46.36830125,3.405717773,-6.282734985,3.916006622,8.149035545
46.37838325,3.215463409,-10.79644867,6.818919983,13.16815016
46.38846625,2.05238205,-16.75914917,15.33456161,22.80855394
46.39854825,1.754501495,-24.93514709,26.37904449,36.34135144
46.40863025,4.0052211,-34.98824158,30.99724091,46.91532573
46.41871325,2.542013855,-38.66654251,23.86487274,45.50929021
46.42879525,-1.650916901,-26.00676865,8.229436798,27.32766313
46.43887725,-3.345692596,-12.42985199,3.705993347,13.39512098
46.44896025,-3.638184357,-4.850962372,2.40100708,6.521737218
46.45904225,-2.177821198,0.1303788757,-0.2043251038,2.191267343
46.46912425,3.128194885,0.7890092468,-5.353916473,6.250804783
46.47920725,8.842861176,-5.148543549,-10.01103195,14.31518268
46.48928925,8.801247711,-11.29670837,-13.06453217,19.38451913
46.49937125,7.553143158,-13.28711929,-13.77255981,20.57379193
46.50945425,6.574627991,-12.12598389,-9.311835938,16.64258114
46.51953625,5.546116791,-11.05900269,-1.127156067,12.42302027
46.52961825,-0.4513114929,-11.95219528,22.09270798,25.12262725
46.53970025,-2.304158478,-10.46533722,10.01297791,14.66602045
46.54978325,0.3267704773,-7.010671234,-6.181695099,9.352520751
46.55986525,-0.1091230774,-5.299729156,-8.138126678,9.712267645
46.56994725,0.7378157043,-5.655838623,-5.227130127,7.736651208
46.58003025,1.704954529,-6.933132477,-4.420158234,8.397201599
46.59011225,2.283351746,-8.34978653,-5.382656708,10.19341079
46.60019425,1.950144653,-9.39925415,-5.746699677,11.18810082
46.61027725,1.547332306,-10.62715073,-4.587360535,11.67794702
46.62035925,1.093925171,-12.15008377,-2.099683685,12.37860572
46.63044125,0.3210823059,-13.40761871,0.1664538574,13.41249568
46.64052425,-0.2993774414,-13.79291748,1.449286194,13.87208095
46.65060625,-0.6607260132,-13.04671921,1.861229553,13.19536344
46.66068825,-0.6369255066,-11.27036316,1.854942627,11.43973653
46.67077125,-0.01317260742,-9.325457611,1.46260849,9.439468034
46.68085325,0.6054908752,-7.866591339,0.9018745422,7.941237699
46.69093525,1.485061798,-6.726112976,-0.7414082336,6.92789221
46.70101725,2.333647156,-5.936654663,-2.681374054,6.919504639
46.71110025,2.233804779,-5.97796875,-2.699037323,6.928982367
46.72118225,1.744921417,-6.909032593,-1.31756012,7.246754224
46.73126425,1.526675262,-8.123307495,0.1263372803,8.266487956
46.74134725,1.265169067,-8.895850983,0.7482939148,9.016471663
46.75142925,0.8195457458,-9.28459259,0.7488926697,9.350730187
46.76151125,0.6393205261,-9.106163635,1.125958557,9.197756768
46.77159425,0.510737915,-8.365354156,1.59134079,8.530672241
46.78167625,0.5394781494,-7.667056274,1.350940704,7.803834274
46.79175825,0.8599617004,-7.286996613,0.3441343689,7.345630145
46.80184125,1.062640228,-7.370223541,-0.9142987061,7.502355725
46.81192325,1.003213806,-7.796836395,-1.359772339,7.977849117
46.82200525,0.652792511,-8.644074554,-0.7206015015,8.698587787
46.83208825,0.4087998962,-9.682315521,0.5459147644,9.706305896
46.84217025,0.3245251465,-10.59362045,1.748663635,10.74187765
46.85225225,0.2359094238,-11.23368942,2.415676575,11.49290758
46.86233425,-0.08217910767,-11.42319534,2.576891327,11.71053005
46.87241725,-0.613125,-11.66943329,2.325264587,11.9146318
46.88249925,-1.362317047,-12.46637604,1.945354614,12.69058091
46.89258125,-2.070045319,-13.39743988,1.598825226,13.65037454
46.90266425,-2.914140015,-13.49503693,1.546284485,13.89241625
46.91274625,-3.547023926,-13.273797,2.221230927,13.91793563
46.92282825,-3.298390961,-13.51734055,3.742218018,14.4084029
46.93291125,-2.140848083,-13.57961105,5.074597321,14.65403033
46.94299325,-0.9018745422,-12.88789948,5.447172546,14.02080666
46.95307525,-0.5156776428,-12.34033813,5.392685852,13.47705196
46.96315825,-0.476459198,-11.69727539,5.149890747,12.78963016
46.97324025,-0.1094224548,-11.78768738,7.134912872,13.77927896
46.98332225,-0.2402503967,-12.53837631,8.193212128,14.97989739
46.99340525,-0.9969268799,-12.86649399,2.653232574,13.17498288
47.00348725,-1.474733276,-13.89470581,-5.676196289,15.08167405
47.01356925,-1.65570694,-16.4588736,-10.86620361,19.79167164
47.02365225,-0.3180885315,-19.50608688,-9.591454468,21.73901112
47.03373425,2.778821411,-20.23537033,-4.882097626,21.00064137
47.04381625,6.218368835,-20.00514908,-0.03951782227,20.94935947
47.05389825,8.155640259,-18.70525223,2.284549255,20.53338974
47.06398125,8.48196167,-16.54584274,3.524121552,18.92427062
47.07406325,8.57087677,-15.13352966,3.391647034,17.71967602
47.08414525,8.400680695,-13.51629272,0.8029302979,15.93443762
47.09422825,7.238347778,-11.71254364,-0.6911128235,13.78604345
47.1043095,4.614753571,-9.837842102,0.06227050781,10.86659861
47.1143915,1.946103058,-8.430768127,-0.7336244202,8.683511566
47.1244745,-0.9131011963,-7.124734039,-2.369572449,7.563759813
47.1345565,-2.50743576,-6.287824402,-1.756746826,6.993577712
47.1446385,-2.925965424,-6.124663696,-0.9181906128,6.849514804
47.1547215,-1.791175232,-6.6753685,-0.4620890808,6.926931473
47.1648035,-0.2483335876,-7.088060303,-1.071920929,7.172954963
47.1748855,0.4890330505,-7.003336487,-1.479523315,7.174598561
47.1849685,0.8312214661,-6.652466125,-1.689386902,6.913773411
47.1950505,1.102906494,-6.249055023,-1.94939621,6.638315826
47.2051325,1.349892883,-5.727988586,-2.216440887,6.288455633
47.2152145,1.348395996,-4.73420517,-2.094743958,5.349656307
47.2252975,1.377884674,-3.438050537,-2.110311584,4.262883139
47.2353795,1.52697464,-2.262095947,-2.319277039,3.58158842
47.2454615,1.558259583,-1.350791016,-2.549198914,3.278905975
47.2555445,1.761087799,-0.8538244629,-2.713706818,3.345840872
47.2656265,1.809586945,-0.4993615723,-2.869832153,3.429271567
47.2757085,2.244432678,-0.6008505249,-2.30041626,3.269619912
47.2857915,2.726430359,-0.9993218994,-1.592687988,3.311906066
47.2958735,3.328628082,-1.407523041,-0.8334667969,3.708847924
47.3059555,3.963308258,-2.084116058,0.230969696,4.48382639
47.3160385,3.811074829,-3.407064972,1.404229889,5.301343665
47.3261205,3.610342255,-5.65269516,2.74035141,7.245485465
47.3362025,3.618275757,-9.111552429,5.131778412,11.0655979
47.3462855,3.139870605,-13.72211472,10.95511871,17.8373161
47.3563675,2.581681366,-19.46297653,20.92992599,28.69728796
47.3664495,3.254382477,-27.44003815,27.49871613,38.98366437
47.3765325,2.417472839,-35.70120895,30.08683411,46.75080836
47.3866145,-2.206112366,-32.96594696,17.81176025,37.53504222
47.3966965,-4.457131348,-19.0466922,5.865253143,20.42164778
47.4067785,-4.460873566,-9.435927887,2.797831879,10.80573881
47.4168615,-4.741390228,-3.112776947,2.132315826,6.059449843
47.4269435,-4.100872192,1.24960144,-0.8833131409,4.377087914
47.4370255,-0.9895921326,1.449585571,-6.920708313,7.139803532
47.4471085,3.902684326,-4.618944855,-10.39243881,12.02365922
47.4571905,7.863298187,-11.69772446,-13.6174823,19.5985724
47.4672725,11.36391861,-15.68722824,-14.97321304,24.48315513
47.4773555,12.58687546,-16.44869476,-10.68178711,23.3042822
47.4874375,9.982441406,-14.56860443,-1.561852112,17.72943184
47.4975195,1.776056671,-14.80870514,33.0490242,36.25865587
47.5076025,0.1460961914,-11.27934448,8.706794128,14.24967438
47.5176845,1.420396271,-5.668861542,-7.366780701,9.403349118
47.5277665,-0.2821632385,-3.186423798,-7.378456421,8.042047741
47.5378495,0.1649569702,-3.064876556,-3.948189697,5.00088802
47.5479315,0.8405021667,-4.839586029,-4.651576996,6.764998549
47.5580135,2.439028015,-7.448361053,-8.297545166,11.41385981
47.5680955,2.966531067,-9.65432373,-9.62977478,13.95488572
47.5781785,2.349065094,-11.46346161,-8.043523407,14.19955378
47.5882605,1.564995575,-12.90226959,-5.029241638,13.93596223
47.5983425,0.6279441833,-14.2837468,-1.626966705,14.38981435
47.6084255,-0.6301895142,-14.61919922,1.042132874,14.66983863
47.6185075,-1.454076233,-13.687836,3.495680695,14.2017948
47.6285895,-1.51754425,-11.72856033,4.270918579,12.57389413
47.6386725,-0.8282276917,-9.547445984,3.167862396,10.09331651
47.6487545,0.3320095825,-7.599097595,0.6083349609,7.630634708
47.6588365,2.096540222,-6.2400737,-1.998943176,6.879663837
47.6689195,3.137924652,-5.290598145,-3.641926575,7.148470398
47.6790015,3.154839478,-5.558391266,-3.155288544,7.127732556
47.6890835,2.801125031,-6.846911774,-0.8821156311,7.450142969
47.6991665,2.089953918,-8.238867188,0.3400927734,8.50661525
47.7092485,1.320404205,-9.315727844,0.7979905701,9.44261836
47.7193305,0.6692582703,-9.514664154,1.833836517,9.71286245
47.7294135,-0.07349716187,-9.16409317,3.1545401,9.692116833
47.7394955,-0.5806425476,-8.419242096,3.120411072,8.997652388
47.7495775,-0.6020480347,-7.875273285,1.442999268,8.02898736
47.7596595,-0.406255188,-7.765252075,-0.7731422424,7.81421346
47.7697425,-0.3483256531,-8.004754028,-2.446213074,8.377432555
47.7798245,-0.2531236267,-8.550519104,-2.411784668,8.887753023
47.7899065,-0.2784210205,-9.46945816,-1.214424591,9.551072359
47.7999895,-0.2791694641,-10.55335419,0.4308041382,10.56583231
47.8100715,-0.06691085815,-11.36481674,2.314487,11.5982924
47.8201535,-0.04041595459,-11.71209457,3.525618439,12.23130321
47.8302365,-0.120050354,-11.73679321,3.904181213,12.36969514
47.8403185,-0.1960922241,-12.11026657,3.435954895,12.5897893
47.8504005,-0.4047583008,-12.67698807,2.374661865,12.90383178
47.8604835,-1.006956024,-12.90137146,1.320104828,13.00776778
47.8705655,-2.067051544,-12.51622238,1.38536911,12.76118225
47.8806475,-2.743345184,-12.30815506,2.410437469,12.83849028
47.8907305,-2.649939423,-12.75407776,4.035308533,13.63716955
47.9008125,-2.257305908,-12.76126282,4.730013885,13.79558951
47.9108945,-2.055974579,-12.26818817,4.668791199,13.28657532
47.9209765,-1.980531464,-11.9957547,4.257296906,12.88197239
47.9310595,-1.285077667,-11.95967972,5.468128967,13.21309192
47.9411415,-0.7336244202,-12.89224045,8.887767792,15.67611192
47.9512235,-0.6683601379,-13.22454941,7.773934021,15.35478631
47.9613065,-0.5438191223,-13.94350433,-0.7177574158,13.97255267
47.9713885,-0.8861572266,-16.4455513,-9.390721893,18.95856244
47.9814705,0.4149371338,-19.93150223,-11.63066391,23.08049603
47.9915535,3.212769012,-20.60914307,-7.916437683,22.30983299
48.0016355,6.44604538,-19.87731491,-2.265538788,21.01884429
48.0117175,9.320966949,-18.24361221,2.542313232,20.64396202
48.0218005,8.876690826,-15.33590881,4.486769714,18.27886325
48.0318825,8.49243988,-13.87838974,3.751199341,16.69738702
48.0419645,8.315956879,-12.98370026,1.060245209,15.45495814
48.0520475,7.125033417,-11.60371994,-1.098864899,13.66089022
48.0621295,4.803960114,-10.20353165,-0.8599617004,11.3105979
48.0722115,1.84177002,-8.77325592,-0.6318360901,8.986732059
48.0822945,-0.3622467041,-7.713609467,-1.114731903,7.802154888
48.0923765,-1.146316223,-6.865622864,-1.080303497,7.043995588
48.10245933,-1.452878723,-6.338718567,-1.074315948,6.591233907
48.11254233,-0.6785389709,-6.572831726,-0.950223999,6.67573649
48.12262433,0.592767334,-6.919211426,-1.374292145,7.079232922
48.13270633,1.437011719,-6.940018158,-1.565444641,7.258062526
48.14278833,1.813029785,-6.889123993,-1.630858612,7.307996046
48.15287133,1.790426788,-6.60396698,-1.705852661,7.051804114
48.16295333,1.709295502,-6.218817902,-1.844314728,6.707971677
48.17303533,1.163680115,-5.586981812,-1.679208069,5.948802981
48.18311833,0.8985813904,-4.882846069,-1.305884399,5.133709021
48.19320033,0.653840332,-3.988905029,-1.450633392,4.294555594
48.20328233,0.5017565918,-3.209026794,-1.879491577,3.752612588
48.21336533,0.9782157898,-2.444416809,-2.54964798,3.665076328
48.22344733,1.561552734,-1.663790131,-3.039429474,3.800628378
48.23352933,2.078727264,-1.101708984,-2.641407166,3.537216637
48.24361233,2.618504791,-1.013542328,-1.830393677,3.351742294
48.25369433,3.416495361,-1.0484198,-1.097966766,3.738603436
48.26377633,4.133354645,-1.22744751,-0.01616638184,4.311787258
48.27385933,4.596491547,-2.112107849,1.306632843,5.224559646
48.28394133,4.385280762,-3.784579926,2.55428833,6.33072835
48.29402333,3.839515686,-6.484814758,3.969445496,8.517699261
48.30410533,3.031196594,-10.33944901,7.193141785,12.95506261
48.31418833,2.178419952,-15.06063126,14.27057419,20.86186509
48.32427033,1.689536591,-20.96764755,22.51587799,30.81333379
48.33435233,1.461710358,-28.7159848,30.54263626,41.9475507
48.34443533,-0.4870870972,-33.8664743,24.23729828,41.64879306
48.35451733,-3.6986586,-26.75281723,9.783954163,28.7248858
48.36459933,-4.769531708,-14.78819778,4.816234589,16.26761636
48.37468233,-4.123624878,-6.776109009,4.64993042,9.194660861
48.38476433,-2.96727951,-2.867586823,2.894530792,5.040447439
48.39484633,1.429377594,-4.36791687,-4.281845856,6.281402871
48.40492933,6.30324234,-9.504335632,-11.60087585,16.26786957
48.41501133,8.988957367,-14.05951309,-13.57646759,21.5125948
48.42509333,10.4681813,-14.68281693,-12.71590714,22.06495472
48.43517633,10.01642075,-12.04051163,-7.852221222,17.52027348
48.44525833,7.391778717,-8.766968994,1.575773163,11.5750248
48.45534033,0.0288899231,-7.532486115,25.51294556,26.60168364
48.46542333,-1.833088074,-5.619763641,7.887996826,9.85710146
48.47550533,-1.594633942,-3.552712097,-7.535779266,8.482487242
48.48558733,-2.960393829,-2.959495697,-7.604037323,8.680088134
48.49567033,-2.024989014,-5.138813782,-5.909111938,8.088608749
48.50575233,0.8482859802,-9.089847565,-7.79743515,12.00603651
48.51583433,2.294728088,-11.54728729,-8.626860352,14.59549041
48.52591633,1.768572235,-12.02389618,-6.510261841,13.7871475
48.53599933,1.093326416,-12.41757751,-2.966231689,12.81366944
48.54608133,0.3704795837,-12.95930099,0.6328839111,12.98003388
48.55616333,0.06032455444,-13.04237823,3.345393219,13.46472892
48.56624633,0.07379653931,-12.47490829,5.091961212,13.47430339
48.57632833,-0.02110610962,-11.56001083,5.144052887,12.65288805
48.58641033,-0.3252735901,-10.07390121,3.428919525,10.64644437
48.59649333,0.3403921509,-8.495433655,0.6665638733,8.528339064
48.60657533,1.607806549,-7.039860535,-1.952389984,7.48040807
48.61665733,2.565365295,-6.080206146,-3.979324951,7.7061685
48.62674033,3.215613098,-5.756429443,-4.362378387,7.906136397
48.63682233,3.026107178,-6.449787598,-2.687361603,7.614394072
48.64690433,2.722987518,-7.695347443,-1.275048523,8.261887316
48.65698733,2.299967194,-8.715176697,0.06661148071,9.013800033
48.66706933,1.578317871,-9.392218781,0.8126600647,9.558518573
48.67715133,1.292562103,-9.484876099,1.804647217,9.741167434
48.68723333,0.7012916565,-9.034462738,2.679877167,9.449606795
48.69731633,0.06825805664,-8.263715515,2.567460938,8.653641369
48.70739833,-0.199385376,-7.754624176,1.396146698,7.881825692
48.71748033,-0.1435514832,-7.79039978,-0.2312690735,7.795153696
48.72756333,-0.05718109131,-7.916886749,-2.019300842,8.170553309
48.73764533,-0.01407073975,-7.871231689,-2.877765656,8.380812697
48.74772733,-0.03188369751,-8.077203369,-2.539169769,8.466971947
48.75781033,0.07679031372,-8.889564056,-1.116977234,8.959792632
48.76789233,0.4385879517,-10.10279114,0.5746549988,10.12862165
48.77797433,1.032103729,-11.26602219,2.106419678,11.50762781
48.78805733,1.354533234,-11.97165482,3.215463409,12.46974275
48.79813933,0.9687854004,-11.94351334,3.492387543,12.48129908
48.80822133,0.1047821045,-11.89441544,2.927162933,12.24975023
48.81830433,-0.698896637,-12.5451123,1.594484253,12.66533376
48.82838633,-1.669627991,-13.228591,0.7129673767,13.35258777
48.83846833,-2.696791992,-13.56389374,0.4938230896,13.83819936
48.84855133,-3.200943604,-13.53350693,1.270258484,13.96479167
48.85863333,-2.680775299,-13.10240341,3.006348267,13.70757678
48.86871533,-1.343605957,-12.73087601,4.324956207,13.51242861
48.87879833,-0.752485199,-12.32417175,4.581073608,13.16957398
48.88888033,-1.6708255,-11.93064011,3.798950043,12.63185864
48.89896233,-2.884501648,-11.6215329,3.321443024,12.42627701
48.90904433,-2.819237366,-11.23099503,4.323758698,12.36034942
48.91912733,-2.64559845,-11.86477707,5.512137451,13.34750109
48.92920933,-0.729433136,-13.01004547,5.114264832,13.99818062
48.93929133,1.064885559,-14.02867722,1.855990448,14.19092901
48.94937433,1.783990173,-16.14632355,-4.199217682,16.77855221
48.95945633,2.357896729,-18.7441713,-9.274264069,21.0455603
48.96953833,3.873794403,-19.76983841,-9.347611542,22.20879635
48.97962133,6.542744293,-19.23260559,-5.501060486,21.04666927
48.98970333,8.873996429,-17.93495407,-0.7327262878,20.02366795
48.99978533,9.082063751,-16.27580429,2.517315216,18.80751348
49.00986833,8.495583344,-15.1317334,4.453538818,17.91586727
49.01995033,8.023165741,-13.9000946,3.46230011,16.41862785
49.03003233,6.874005432,-12.15202972,-0.3300636292,13.96541153
49.04011533,4.996759186,-10.61652283,-1.62053009,11.84501064
49.05019733,2.434237976,-9.363179169,-0.6878196716,9.69885223
49.06027933,0.5644761658,-8.426576843,-1.323098602,8.54847475
49.07036233,-0.5745053101,-7.115752716,-1.300196228,7.256342281
49.08044433,-0.8020321655,-6.376739502,-1.002615051,6.504713615
49.09052633,-0.612077179,-6.395899658,-1.021326141,6.505788038
49.10060771,0.3588038635,-6.762936401,-1.545386353,6.946529202
49.11069071,0.923429718,-6.9912117,-1.617236938,7.234999572
49.12077271,0.7466473389,-6.950047302,-1.531914368,7.155934697
49.13085471,0.7485932922,-6.791377258,-1.582209778,7.01331482
49.14093771,0.7502398682,-6.437363434,-1.646575928,6.686831845
49.15101971,0.5143304443,-5.532644806,-1.811233521,5.84425027
49.16110171,0.02424957275,-4.598736877,-1.913321228,4.980940376
49.17118471,0.007484436035,-3.683839417,-1.942959595,4.164831431
49.18126671,0.2206411743,-2.568808136,-2.199825439,3.389201931
49.19134871,0.8065228271,-1.437909851,-2.648442535,3.119665314
49.20143171,1.259181519,-0.6337820435,-2.789748688,3.125686407
49.21151371,1.542841644,-0.1637594604,-2.483335876,2.928162321
49.22159571,2.091899872,-0.2266287231,-1.990859985,2.896710053
49.23167871,2.695295105,-0.3980223083,-1.261277161,3.002308701
49.24176071,3.257675629,-0.7740403748,-0.2011816406,3.354409494
49.25184271,3.365750885,-1.807042236,0.7717950439,3.897351441
49.26192571,2.811154175,-3.685935059,1.776356049,4.964287045
49.27200771,2.237696686,-6.850354614,3.585942993,8.049449171
49.28208971,2.015708313,-11.44534927,7.90625885,14.05588948
49.29217271,1.327140198,-17.30910553,17.89438843,24.93141738
49.30225471,1.068029022,-25.2946994,28.43457001,38.07213253
49.31233671,1.61124939,-34.38260101,31.53103088,46.67938823
49.32241871,-0.4914280701,-35.80763763,19.94003448,40.98821038
49.33250171,-2.731819153,-22.92303131,6.504124603,23.98399127
49.34258371,-2.450554047,-11.26662094,4.020189972,12.21081037
49.35266571,-2.556084595,-4.407434692,3.093317413,5.960508505
49.36274871,-1.78084671,-0.3752696228,0.6747967529,1.941028839
49.37283071,1.24735611,0.1848655701,-4.70486618,4.870917605
49.38291271,5.515580292,-4.13619873,-10.32732422,12.4170605
49.39299571,8.321944427,-10.02420456,-13.59368179,18.82890387
49.40307771,9.858499146,-12.69031036,-14.01535492,21.32285525
49.41315971,11.43517044,-13.00405792,-9.722432098,19.85936382
49.42324271,10.08243347,-12.86394928,-1.649569702,16.4273472
49.43332471,2.799328766,-13.95637756,27.9754747,31.38859508
49.44340671,-2.033221893,-13.23053696,15.50370987,20.48282498
49.45348971,-0.7918533325,-7.990383911,-8.133336639,11.42910459
49.46357171,-2.368824005,-4.417763214,-9.834249573,11.03813497
49.47365371,-1.211131439,-3.901337128,-5.264552307,6.663541231
49.48373671,0.08502319336,-4.768483887,-3.863914948,6.138037654
49.49381871,1.706301727,-6.954238586,-5.535339203,9.050573462
49.50390071,1.750160522,-9.036857758,-6.947203217,11.53219374
49.51398371,0.9035211182,-10.776091,-6.295608215,12.51300006
49.52406571,0.3787124634,-12.66291733,-3.736380157,13.20808219
49.53414771,-0.1360670471,-14.01370834,-0.5034031677,14.02340724
49.54422971,-0.7123686218,-14.19617889,1.6907341,14.31424277
49.55431271,-0.7289840698,-13.32484085,2.70756958,13.6166712
49.56439471,-0.3797602844,-11.7224231,2.961291962,12.09663884
49.57447671,0.1296304321,-9.87780899,2.552342377,10.2030567
49.58455971,0.5941145325,-8.259823608,1.711391144,8.456152657
49.59464171,1.388362885,-7.159012756,0.3963757324,7.303158828
49.60472371,2.561772766,-6.35713028,-1.68369873,7.057664381
49.61480671,3.18851944,-5.885610809,-3.021766205,7.344259106
49.62488871,3.16861084,-6.496640167,-2.132465515,7.536168608
49.63497071,2.753374329,-7.472311249,-0.359103241,7.971540675
49.64505371,2.044298859,-8.631351013,0.01466949463,8.870151821
49.65513571,1.569785614,-9.29282547,0.2866539001,9.428838876
49.66521771,1.035995636,-9.26124115,1.112486572,9.38517453
49.67530071,0.5923182678,-8.706045685,1.712438965,8.892610393
49.68538271,0.1088237,-8.171656952,1.549278259,8.317937428
49.69546471,0.04535568237,-7.863747253,0.7752378845,7.901997961
49.70554771,0.2380050659,-7.578290863,-0.5132826233,7.599381413
49.71562971,0.227227478,-7.547155609,-1.762285309,7.75350499
49.72571171,0.1103205872,-7.902067566,-2.166444855,8.194408201
49.73579471,-0.005089416504,-8.998387756,-1.269809418,9.087542246
49.74587671,0.1422042847,-10.38705002,0.443228302,10.39747476
49.75595871,0.6221063232,-11.31212631,1.862127686,11.48123415
49.76604071,0.94543396,-11.64308807,2.603984985,11.9681278
49.77612371,0.9199868774,-11.52752838,3.124752045,11.97891321
49.78620571,0.3650907898,-11.90863586,2.689756622,12.21407754
49.79628771,-0.5460644531,-12.8079657,1.482068024,12.9049873
49.80637071,-1.880988464,-13.20568863,0.9704319763,13.37423149
49.81645271,-3.083437958,-13.32079926,1.417701874,13.74631445
49.82653471,-3.628155212,-13.46270416,2.531236267,14.17092342
49.83661771,-3.138523407,-13.61927856,4.071383514,14.55717148
49.84669971,-1.812131653,-13.39025482,5.382057953,14.54473421
49.85678171,-0.699944458,-12.60633499,5.615422668,13.81819727
49.86686471,-0.7682025146,-11.98587524,4.894222412,12.96937753
49.87694671,-1.165775757,-11.44819336,4.382885742,12.31380736
49.88702871,-1.169817352,-11.49235153,5.663921814,12.86555971
49.89711171,-1.195713501,-12.15846634,6.738387451,13.95220054
49.90719371,-0.7544311523,-12.85781204,3.971690826,13.47838362
49.91727571,-0.6023474121,-14.19333481,-2.793490906,14.47816172
49.92735871,-0.7213499451,-17.08457245,-9.370813293,19.49910519
49.93744071,0.0983454895,-20.13807266,-10.68612808,22.79791604
49.94752271,3.095113678,-20.28401917,-7.137457581,21.7247431
49.95760471,6.740932159,-19.03232208,-2.261197815,20.31704865
49.96768771,8.766370239,-17.16016525,2.327809296,19.40977112
49.97776971,8.813971252,-15.36824158,4.99631012,18.40739127
49.98785171,8.904233551,-14.09424088,3.820954285,17.10358713
49.99793471,8.810079346,-12.55813522,0.5932164001,15.35174792
