Time (s),Acceleration x (m/s^2),Acceleration y (m/s^2),Acceleration z (m/s^2),Absolute acceleration (m/s^2)
20.00309471,0.9768685913,-3.128045197,-3.547023926,4.829111484
20.01317671,6.435567169,-8.866362305,-9.652826843,14.60157428
20.02325871,8.154442749,-14.33239563,-12.87128403,20.91847159
20.03334071,8.67970047,-14.75676315,-14.50543579,22.43896001
20.04342371,8.495283966,-11.90010361,-10.71576645,18.12760233
20.05350571,7.597001953,-8.673712921,-4.317172394,12.31201494
20.06358771,3.559148712,-6.91756485,17.81655029,19.44092866
20.07367071,1.552571411,-5.27937149,15.72584793,16.66086836
20.08375271,2.776276703,-3.884571991,-4.129013672,6.312397784
20.09383471,0.8228388977,-3.663930817,-9.608668671,10.3163931
20.10391671,1.068478088,-5.134921875,-6.317762146,8.211162319
20.11399971,2.721490631,-8.021070099,-5.266797638,9.97412824
20.12408171,3.495531006,-10.45785278,-6.66249527,12.88309998
20.13416371,2.635569305,-11.3693074,-6.534062347,13.37540082
20.14424671,1.497186584,-12.17178864,-4.201013947,12.96312171
20.15432871,0.5216651917,-13.32109863,-1.120270386,13.3782962
20.16441071,-1.049168243,-14.29003372,1.175804901,14.37665938
20.17449271,-2.661016388,-14.5106749,2.681972809,14.99445472
20.18457571,-3.240910492,-13.77959518,3.024460602,14.47508571
20.19465771,-2.657723236,-11.93498108,1.889520721,12.37245144
20.20473971,-1.253343658,-9.494156799,-0.2838098145,9.580732314
20.21482271,0.4328997803,-7.272327118,-2.052980804,7.568941413
20.22490471,1.903441772,-6.086642761,-2.965782623,7.033219551
20.23498671,2.667303314,-5.461842041,-3.118165741,6.831484688
20.24506971,2.899769897,-5.645360413,-1.058748322,6.434260459
20.25515171,2.452949066,-6.759792938,0.8360115051,7.239521733
20.26523371,1.935026093,-8.216713257,1.308578796,8.542311232
20.27531571,1.376986542,-8.953032074,1.271605682,9.147122841
20.28539871,0.7744894409,-8.982071686,1.137484589,9.086876078
20.29548071,0.2734812927,-8.804690552,0.973276062,8.862541059
20.30556271,0.05628295898,-8.240813141,0.8412506104,8.283831938
20.31564571,0.1185534668,-7.641908569,0.1646575928,7.6446016
20.32572771,0.3809577942,-7.379953308,-1.133742371,7.476243136
20.33580971,0.5773493958,-7.435637512,-2.198777618,7.775388129
20.34589171,0.8448431396,-7.799530792,-2.231110382,8.156242643
20.35597471,0.8909472656,-8.424032135,-1.291963348,8.568971568
20.36605671,0.8541238403,-9.212891693,0.3005749512,9.257280712
20.37613871,0.8970845032,-9.77721817,1.859433289,9.99280981
20.38622171,0.8797206116,-10.55095917,2.937940521,10.98763588
20.39630371,0.4831951904,-11.51824768,3.266207886,11.98213759
20.40638571,-0.2752775574,-11.87286026,2.632874908,12.16439965
20.41646771,-1.080902252,-12.09874054,1.174308014,12.20355979
20.42655071,-1.766925659,-12.79359558,-0.07499404907,12.91525216
20.43663271,-2.719544678,-13.18997131,-0.1077758789,13.46784623
20.44671471,-3.435206451,-13.09686493,1.097368011,13.58428249
20.45679771,-3.419189758,-13.15180069,2.940036163,13.90340004
20.46687971,-2.476001129,-13.35642517,4.866979065,14.42955856
20.47696171,-1.236279144,-13.19071976,5.878874817,14.49429691
20.48704471,-0.8062234497,-12.48224304,5.767057343,13.77371911
20.49712671,-1.476828918,-11.57557846,4.852758636,12.63820821
20.50720871,-2.00313446,-10.8265361,4.1140448,11.75379923
20.51729071,-1.473386078,-10.46264282,4.95993576,11.67213451
20.52737371,-0.918639679,-11.3919104,7.037016449,13.42159163
20.53745571,-0.3529660034,-12.69285507,6.598877563,14.31007827
20.54753771,0.2007325745,-14.48597626,1.240769806,14.54040273
20.55762071,-0.3421884155,-17.27557526,-7.602989502,18.87771286
20.56770271,-0.4302053833,-20.15977753,-12.23645416,23.58670212
20.57778471,1.102008362,-20.1482515,-10.81441132,22.89362254
20.58786671,4.86638031,-18.62367188,-6.863976288,20.43616847
20.59794971,8.153843994,-17.78930695,-0.6396199036,19.57942101
20.60803171,9.003028107,-16.90419754,5.346881104,19.88455549
20.61811371,8.92893219,-15.70010147,6.020480347,19.03851885
20.62819671,9.328750763,-14.21818314,2.114053802,17.13626406
20.63827871,8.527467041,-12.22417969,-1.163380737,14.94997384
20.64836071,5.879922638,-10.47910858,-0.8047265625,12.0429561
20.65844271,2.758164368,-8.918304291,-0.0007484436035,9.335074861
20.66852571,0.9270222473,-7.828271027,-1.035845947,7.950734201
20.67860771,-0.3344046021,-7.226372681,-1.967508545,7.496891251
20.68868971,-0.8141569519,-6.870412903,-1.333127747,7.045754366
20.69877271,-0.5357359314,-7.129673767,-0.8446934509,7.199497763
20.70885471,0.4101470947,-7.542066193,-1.074615326,7.629271341
20.71893671,1.195713501,-7.679779816,-1.645228729,7.944528077
20.72901971,1.045276337,-7.571854248,-1.95987442,7.890924351
20.73910171,0.6882687378,-7.07548645,-1.906734924,7.36015356
20.74918371,0.6863227844,-6.304290161,-1.801653442,6.592500931
20.75926571,0.4993615723,-5.184468842,-1.8194664,5.517113116
20.76934871,0.3885919189,-3.746259613,-1.986519012,4.258136042
20.77943071,0.5360353088,-2.340532837,-2.22901474,3.276268384
20.78951271,0.7075785828,-1.04138443,-2.500699768,2.799758617
20.79959571,0.9647438049,-0.03412902832,-2.646197205,2.816780972
20.80967771,1.256487122,0.5195695496,-2.657423859,2.985065153
20.81975971,1.596430206,0.5679190063,-2.211800537,2.786248915
20.82984171,2.244432678,0.01137634277,-1.442999268,2.668305521
20.83992471,2.880609741,-0.6018983459,-0.5553451538,2.994762485
20.85000671,3.492986298,-1.349294128,0.4213737488,3.768169815
20.86008871,3.820954285,-2.637215881,1.459015961,4.866551841
20.87017171,4.086951141,-4.737198944,2.311343536,6.669822517
20.88025371,3.777544556,-8.03259613,3.568878479,9.567096585
20.89033571,3.228486328,-12.86709274,7.730673981,15.35410433
20.90041771,2.352358246,-18.53056549,16.87620575,25.173831
20.91050071,1.852098541,-25.76786545,25.61233887,36.37863468
20.92058271,0.8686436462,-34.78331772,31.9223172,47.21936116
20.93066471,-2.418969727,-35.49179443,21.32300858,41.47516825
20.94074771,-5.071902924,-22.36005203,7.759264526,24.20541907
20.95082971,-4.85814743,-10.78028229,4.609963531,12.69125078
20.96091171,-5.216801605,-3.612737274,4.037404175,7.521138349
20.97099471,-4.898713074,0.8795709229,1.788630524,5.288689246
20.98107671,-1.450184326,-0.04819976807,-6.342161407,6.506025601
20.99115871,3.805985413,-6.485712891,-12.52714966,14.61093684
21.00124071,8.633147278,-12.26699066,-15.97912125,21.91671982
21.01132371,12.07044937,-14.79942444,-14.07059006,23.72130301
21.02140571,11.82256485,-13.66493362,-8.929381256,20.15532933
21.03148771,9.736951904,-11.80579971,-1.302740936,15.35845934
21.04157071,1.776356049,-12.38928635,28.25808701,30.90581399
21.05165271,-0.3128494263,-9.681417389,8.757837982,13.05861568
21.06173471,-0.5665718079,-5.728138275,-8.534502411,10.29418783
21.07181671,-3.163671112,-4.027973785,-9.229357452,10.55530325
21.08190025,-1.572180634,-5.145549774,-4.936883698,7.302140444
21.09198225,2.04998703,-7.223378906,-6.606062622,10.0009856
21.10206425,3.391946411,-8.493787079,-8.235873413,12.30769395
21.11214725,3.922592926,-9.55957077,-6.652316437,12.28924093
21.12222925,4.172872467,-11.29880402,-3.629053345,12.57958127
21.13231125,2.586621094,-12.88909698,-1.268312531,13.20712105
21.14239325,1.006956024,-14.18899384,-0.1396595764,14.22536507
21.15247625,-0.6134243774,-14.53836731,1.240021362,14.60404281
21.16255825,-1.683998108,-13.8975499,2.798280945,14.2761381
21.17264025,-1.778601379,-12.10173431,3.038082275,12.60338606
21.18272325,-0.7934999084,-9.867181091,1.836381226,10.06792932
21.19280525,0.7282356262,-7.696994019,-0.4023632813,7.74183055
21.20288725,2.153871002,-6.56414978,-2.405797119,7.315400359
21.21296925,2.810854797,-5.810467072,-3.276386719,7.238587031
21.22305225,3.131488037,-5.735922089,-2.000290375,6.834338382
21.23313425,2.525248718,-6.399043121,-0.2915936279,6.885467363
21.24321625,1.883383484,-7.318281555,0.505947876,7.573662359
21.25329925,1.088985443,-8.311316528,0.4135899353,8.392551958
21.26338125,0.5023553467,-8.662935333,0.4391867065,8.688595654
21.27346325,-0.04640350342,-8.518336029,1.009949799,8.578123372
21.28354625,-0.3577560425,-8.219557343,1.328188019,8.333858393
21.29362825,-0.2302212524,-7.85132309,0.8149053955,7.896856773
21.30371025,0.05643264771,-7.602390747,-0.3981719971,7.613019812
21.31379225,0.3498225403,-7.651039581,-1.673819275,7.839799325
21.32387525,0.7110214233,-8.103398895,-2.100581818,8.401373048
21.33395725,0.846789093,-8.784781952,-1.44734024,8.943390827
21.34403925,0.8669970703,-9.677076416,0.1239422607,9.716627685
21.35412225,0.9032217407,-10.64406555,1.741328888,10.82331591
21.36420425,0.8581654358,-11.53052216,2.885100403,11.91692886
21.37428625,0.5258564758,-12.06371338,3.422033844,12.55069803
21.38436825,-0.152233429,-12.43269608,3.320844269,12.86946438
21.39445125,-1.044078827,-12.96124695,2.685565338,13.2776611
21.40453325,-2.261497192,-13.29654968,1.330583038,13.55297216
21.41461525,-3.422931976,-13.24879898,0.5637277222,13.69543452
21.42469825,-3.626358948,-13.33052902,1.487307129,13.89480355
21.43478025,-3.187621307,-13.44294525,3.42832077,14.23471426
21.44486225,-2.32960556,-13.43381424,5.011278992,14.52609184
21.45494425,-1.600471802,-13.35672455,4.999453583,14.35124165
21.46502725,-1.990410919,-13.22110657,3.652255096,13.85995533
21.47510925,-3.119363251,-12.94223648,2.441572723,13.53488787
21.48519125,-3.109334106,-12.12942673,2.705024872,12.8104688
21.49527425,-2.379302216,-12.03602097,4.48841629,13.06417852
21.50535625,-0.9255253601,-12.83969971,5.356311493,13.94290352
21.51543825,1.065184937,-14.10486877,2.747686157,14.40943168
21.52552025,2.529589691,-16.28613281,-3.500321045,16.84901164
21.53560325,3.638783112,-18.46814529,-8.877139893,20.81145708
21.54568525,5.311554565,-19.01316193,-9.385482788,21.8586419
21.55576725,7.512427826,-18.0806012,-5.57425827,20.35723623
21.56585025,9.684860229,-16.51141434,-0.09086105347,19.14240259
21.57593225,9.391021271,-14.89028549,3.697910156,17.98850806
21.58601425,8.598269806,-13.92688889,4.351900177,16.93598278
21.59609625,8.182135162,-13.01842804,2.577490082,15.59071068
21.60617925,6.467600555,-11.64129181,-0.1586700439,13.31820964
21.61626125,3.680995331,-10.46099625,-1.689985657,11.21776362
21.62634325,0.9665400696,-9.435179443,-1.646875305,9.626474386
21.63642625,-0.8065228271,-8.553213501,-1.580563202,8.735337446
21.64650825,-1.341210938,-7.68861145,-1.620230713,7.971119142
21.65659025,-1.498234406,-7.131919098,-1.429227905,7.426416953
21.66667325,-0.7261399841,-7.365433502,-1.209784241,7.499364497
21.67675525,0.3995191956,-7.58921814,-1.218615875,7.696809223
21.68683725,1.116677856,-7.43354187,-1.296004944,7.627853105
21.69691925,1.356030121,-7.210505676,-1.256337433,7.443694885
21.70700225,1.494641876,-6.875502319,-1.350940704,7.16460238
21.71708425,1.488953705,-6.1113414,-1.378633118,6.439418151
21.72716625,1.013093262,-5.105732574,-1.25663681,5.354810842
21.73724925,0.7017407227,-4.134851532,-1.284329224,4.38622147
21.74733125,0.5939648438,-3.012186127,-1.488055573,3.411798482
21.75741325,0.53004776,-1.867965546,-1.77500885,2.630760788
21.76749525,0.8530760193,-0.8729846191,-2.138003998,2.461889911
21.77757825,1.328188019,-0.2800675964,-2.455044708,2.805310284
21.78766025,1.811682587,-0.2145039368,-2.008373566,2.71325821
21.79774225,2.506837006,-0.7336244202,-1.306483154,2.92050249
21.80782525,2.99542099,-1.218466187,-0.7352709961,3.316297663
21.81790725,3.408262482,-1.600322113,0.1049317932,3.766735283
21.82798925,3.590283966,-2.202819214,1.279239807,4.402159235
21.83807125,3.715274048,-3.494632874,2.690056,5.766465248
21.84815425,3.880231018,-5.884562988,4.27900177,8.245855351
21.85823625,3.405119019,-9.848320312,6.958729248,12.53028975
21.86831825,2.389780426,-15.03847733,14.26862823,20.86769279
21.87840125,1.658101959,-21.92685287,23.54873016,32.21923139
21.88848325,2.485880585,-30.89021347,28.90399384,42.37718431
21.89856525,0.6918612671,-36.82312592,25.06971725,44.5523512
21.90864725,-3.261268158,-28.1838414,9.99366806,30.08052838
21.91873025,-5.245841217,-14.13720154,4.722529449,15.80131646
21.92881225,-5.07938736,-5.481301575,3.074157257,8.080549842
21.93889425,-4.121978302,-0.579894104,0.2399510193,4.169479438
21.94897725,0.5706134033,-1.511556702,-5.529950409,5.7611418
21.95905925,6.103108521,-8.72415802,-10.21909927,14.75767111
21.96914125,8.365952911,-14.18076096,-14.56276657,21.98083983
21.97922425,10.02659958,-14.69673798,-14.31084045,22.8325855
21.98930625,9.714648285,-12.31384323,-9.326655121,18.24805804
21.99938825,7.582631836,-9.728419647,-2.42675354,12.5709024
22.00947025,2.063009949,-9.429042206,23.81248169,25.69430153
22.01955325,0.8470884705,-7.753127289,10.51503387,13.09177142
22.02963525,1.689237213,-5.553750916,-7.776329041,9.704069504
22.03971725,-0.162412262,-5.243446198,-10.44692551,11.69009659
22.04980025,0.1113684082,-6.543792114,-6.690187683,9.359072037
22.05988225,1.427581329,-8.317603455,-6.198460236,10.47098013
22.06996425,2.169588318,-9.835447083,-7.166197815,12.36112956
22.08004608,2.081271973,-10.72998688,-6.358926544,12.64516739
22.09012908,1.327738953,-11.66434387,-4.064647522,12.4234121
22.10021108,0.1598675537,-12.69884262,-1.66618515,12.808682
22.11029308,-0.9809101868,-13.33472031,0.1755848694,13.37190265
22.12037608,-1.653012543,-13.33097809,1.670675812,13.53656474
22.13045808,-1.800455933,-12.55020172,2.291884003,12.8841739
22.14054008,-1.012195129,-10.92832443,2.255509644,11.20446954
22.15062208,0.4522096252,-8.882977753,1.799108734,9.074611812
22.16070508,1.666933594,-7.298522644,1.078207855,7.56370495
22.17078708,2.981799316,-6.295907593,-0.1788780212,6.968613702
22.18086908,2.936443634,-5.851930847,-1.242117004,6.664131639
22.19095208,2.223625946,-6.168372803,-0.5547463989,6.580355534
22.20103408,1.359472961,-6.929689636,0.7680528259,7.103426661
22.21111608,0.4396357727,-7.960446167,1.080602875,8.045476081
22.22119908,0.01556762695,-8.806786194,0.9985734558,8.863231598
22.23128108,-0.1981878662,-8.963210907,1.026864624,9.024016797
22.24136308,-0.2667453003,-8.784632263,0.9318122864,8.837940438
22.25144508,-0.1025367737,-8.402776337,0.6798861694,8.430860523
22.26152808,0.326920166,-7.997718658,-0.3073109436,8.010294661
22.27161008,0.6445596313,-7.643704834,-1.685195618,7.853761199
22.28169208,0.8949888611,-7.501500549,-2.766247559,8.045224739
22.29177508,1.113983459,-7.910300446,-2.495011597,8.368924373
22.30185708,1.016236725,-8.669970703,-0.7414082336,8.760754262
22.31193908,0.7126679993,-9.797875214,0.9596543884,9.87052131
22.32202108,0.7493417358,-11.06334366,1.994901581,11.2667084
22.33210408,0.8683442688,-11.65955383,2.437980194,11.94332302
22.34218608,0.3845503235,-11.46480881,1.952689362,11.63626726
22.35226808,-0.06346801758,-11.41990219,1.440753937,11.51060234
22.36235108,-0.6256988525,-12.26624222,1.208437042,12.34149575
22.37243308,-1.730251923,-12.99807037,0.872535553,13.14172452
22.38251508,-3.074157257,-13.08024948,0.868793335,13.46470093
22.39259708,-3.528612213,-13.35298233,2.230661316,13.99032134
22.40268008,-2.949316864,-13.95338379,4.125121765,14.84627963
22.41276208,-1.797761536,-14.33703598,4.691693573,15.19192337
22.42284408,-1.171014862,-14.23030792,3.885320435,14.79758947
22.43292708,-1.616937561,-14.07328445,2.992127838,14.4784202
22.44300908,-2.592159576,-13.23772202,2.792443085,13.77513389
22.45309108,-2.69469635,-12.19993011,3.058889008,12.86298897
22.46317308,-1.74102951,-12.22822128,3.325933685,12.79149774
22.47325608,0.5149291992,-13.22904007,1.994153137,13.3884017
22.48333808,2.334994354,-15.01392838,-1.932331696,15.31679306
22.49342008,3.459456024,-16.68744827,-7.592211914,18.6569142
22.50350308,4.782854004,-16.93742844,-8.730594635,19.6462581
22.51358508,6.012546844,-16.08210709,-5.839356995,18.13513104
22.52366708,7.593110046,-15.10508881,-1.736538849,16.99513446
22.53374908,8.24560318,-14.03466476,2.365979919,16.44869745
22.54383208,7.525301056,-13.47467926,4.216880951,15.99935068
22.55391408,7.994425507,-13.20763458,2.403102722,15.62457529
22.56399608,7.922125854,-12.65064285,-0.2167492676,14.9280214
22.57407908,5.227279816,-11.72421936,-0.4641847229,12.8451252
22.58416108,2.445165253,-10.55814423,-0.6697073364,10.85825725
22.59424308,0.4468208313,-9.46017746,-1.015039215,9.524962521
22.60432608,-0.7297325134,-8.764424286,-0.9743238831,8.848556359
22.61440808,-0.7725434875,-8.442443848,-0.369282074,8.48575576
22.62449008,-0.2038760376,-8.014783173,-0.3836521912,8.026549928
22.63457208,0.2430944824,-7.85356842,-0.7238946533,7.890605511
22.64465508,1.355581055,-7.871980133,-1.103056183,8.063647075
22.65473708,1.883982239,-7.631580048,-1.277443542,7.96380971
22.66481908,1.82066391,-7.173532562,-1.486708374,7.548820324
22.67490208,1.956581268,-6.542744293,-1.443298645,6.979887114
22.68498408,1.808539124,-5.804479523,-1.348096619,6.2273719
22.69506608,1.335971832,-4.893623657,-1.355431366,5.250673045
22.70514808,0.7122189331,-3.997437286,-1.321302338,4.269964934
22.71523108,0.4192781067,-3.082390137,-1.60541153,3.500609842
22.72531308,0.5887257385,-2.076781311,-2.034868469,2.966531358
22.73539508,1.062640228,-1.269659729,-2.219284973,2.768838362
22.74547808,1.495839386,-0.756227417,-2.347119141,2.88416082
22.75556008,1.877096558,-0.5733078003,-1.99145874,2.796083195
22.76564208,2.310595093,-0.8445437622,-1.434167633,2.847620173
22.77572408,2.651286621,-1.19586319,-0.8921447754,3.042257684
22.78580708,2.739303589,-1.703307953,-0.1106199646,3.227580969
22.79588908,2.697839813,-2.583477631,0.8690927124,3.83510345
22.80597108,2.765499115,-3.91510849,1.953288116,5.176040408
22.81605408,2.823728027,-6.146667938,3.322640533,7.536239568
22.82613608,2.435285797,-9.77721817,5.993386688,11.72370658
22.83621808,1.984273682,-14.60138626,12.1869072,19.12219992
22.84630008,1.050814819,-20.90268265,21.4514415,29.96982976
22.85638308,0.5575904846,-29.20920914,27.95631454,40.43568138
22.86646508,-1.139131165,-34.87807068,24.53802292,42.66019225
22.87654708,-3.902534637,-28.08504684,11.35059631,30.54235861
22.88663008,-3.803440704,-15.5285582,5.329367523,16.85243125
22.89671208,-2.417472839,-7.725135498,3.835923157,8.957466152
22.90679408,-1.449585571,-3.06802002,2.15881073,4.02175446
22.91687708,0.8479866028,-1.117126923,-1.419498138,1.995502144
22.92695908,5.11321701,-3.922742615,-6.843917999,9.400644201
22.93704108,9.295669556,-10.10368927,-10.59317139,17.34097141
22.94712308,10.20323227,-14.25964691,-12.73446854,21.67049071
22.95720608,9.593699799,-13.77720016,-11.82780396,20.53648623
22.96728808,8.200397186,-11.31601822,-6.33482666,15.34368962
22.97737008,5.264552307,-9.508526917,5.00559082,11.96593225
22.98745308,-0.7566764832,-9.655820618,25.15908142,26.95898383
22.99753508,-0.4300556946,-7.422764282,4.215084686,8.546889282
23.00761708,-0.17902771,-5.309309235,-8.204139404,9.773879416
23.01769908,-1.160536652,-4.969815216,-8.462651825,9.882428068
23.02778208,0.1353186035,-6.452781372,-5.370232544,8.396195337
23.03786408,1.148561554,-8.14501236,-6.185287628,10.29165696
23.04794608,1.717229004,-9.639504547,-7.421417084,12.28602275
23.05802908,1.873803406,-10.57326279,-6.507717133,12.55609045
23.06811108,1.312919769,-11.68350403,-3.548071747,12.2807507
23.07819283,0.4143383789,-12.75213181,-0.4305047607,12.76612221
23.08827483,-0.5969586182,-13.25658279,1.259780273,13.32968092
23.09835783,-1.254990234,-13.26107346,2.040107574,13.47564873
23.10843983,-1.398092651,-12.57789413,2.124232635,12.83239838
23.11852183,-0.873583374,-11.04163879,1.297352142,11.15186342
23.12860483,0.1213975525,-9.214987335,0.4821473694,9.228390707
23.13868683,1.433419189,-7.780220947,-0.3504212952,7.918921874
23.14876883,2.750979309,-6.945107574,-1.385518799,7.597504111
23.15885083,3.196153564,-6.406826935,-2.287393341,7.516315406
23.16893383,3.027154999,-6.487808533,-1.486259308,7.311928178
23.17901583,2.410736847,-7.37621109,0.03143463135,7.760227466
23.18909783,1.850751343,-8.285719757,1.075513458,8.557754473
23.19918083,1.270408173,-8.66922226,1.42638382,8.877157333
23.20926283,0.5348377991,-8.940308533,1.406774597,9.066100755
23.21934483,0.08637039185,-8.630452881,1.54329071,8.76777754
23.22942683,-0.1128652954,-8.193960571,1.042282562,8.260755496
23.23950983,-0.04655319214,-7.88635025,-0.01092727661,7.886495221
23.24959183,0.1374142456,-7.683522034,-1.222358093,7.781359317
23.25967383,0.397124176,-7.737260284,-2.111658783,8.030068937
23.26975683,0.4900808716,-7.966433716,-2.159409485,8.268451774
23.27983883,0.5667214966,-8.283923492,-1.479373627,8.434044582
23.28992083,0.4141886902,-9.114396515,-0.2110610962,9.126243635
23.30000383,0.5189707947,-10.4204306,1.313817902,10.51574163
23.31008583,0.785716095,-11.60506714,2.391277313,11.87489538
23.32016783,0.7008425903,-11.75131302,2.76490036,12.09252711
23.33024983,0.499511261,-11.40074203,2.908900909,11.77659267
23.34033283,-0.009131011963,-11.59339142,2.868335266,11.94295421
23.35041483,-0.8720864868,-12.15726883,2.234104156,12.39156736
23.36049683,-2.481539612,-12.62070511,1.341510315,12.93212613
23.37057983,-3.970643005,-12.91289749,1.535506897,13.59656975
23.38066183,-4.615502014,-13.28457458,2.777923279,14.33525858
23.39074383,-4.223317566,-13.46000977,4.422253876,14.78393058
23.40082583,-3.096460876,-13.03444473,5.17997818,14.36373884
23.41090883,-2.232008514,-12.67608994,4.847519531,13.75367455
23.42099083,-1.89790329,-11.98497711,4.097279663,12.80739684
23.43107283,-1.518292694,-11.92629913,5.372627563,13.16840729
23.44115583,-1.335672455,-12.81215698,6.951544189,14.63760069
23.45123783,-0.9174421692,-13.64846786,4.870272217,14.52039692
23.46131983,0.3131488037,-15.18023254,-0.4161346436,15.18916358
23.47140183,0.8047265625,-17.90726166,-7.845934296,19.56722489
23.48148483,1.893861694,-20.11247589,-10.77279785,22.89435677
23.49156683,4.299209747,-19.72627899,-8.271798706,21.81815623
23.50164883,7.245682526,-18.93712006,-4.02977005,20.67252955
23.51173183,9.681716766,-17.70188873,0.5983058167,20.1854025
23.52181383,9.494905243,-16.05815689,4.374054108,19.16115805
23.53189583,9.078620911,-14.70856339,4.84063385,17.94978915
23.54197783,8.943302307,-13.11467789,1.99265625,15.99837839
23.55206083,7.058421936,-11.09971802,-0.8448431396,13.18100225
23.56214283,3.72201004,-9.616602173,-1.468895416,10.41585569
23.57222483,0.4552033997,-8.397836609,-2.28514801,8.715088713
23.58230783,-1.529968414,-7.607480164,-2.2746698,8.086326761
23.59238983,-1.730251923,-6.950496368,-1.588197327,7.336589278
23.60247183,-1.207688599,-6.553821259,-1.276246033,6.785269986
23.61255483,-0.1887574768,-6.731202393,-1.388512573,6.875513232
23.62263683,1.089434509,-6.710695038,-1.683998108,7.004009214
23.63271883,1.606459351,-6.546935577,-1.689985657,6.94975745
23.64280083,1.614243164,-6.462960205,-1.800455933,6.900527311
23.65288383,1.700613556,-6.08679245,-1.898651733,6.598939854
23.66296583,1.70016449,-5.357509003,-1.978435822,5.958831287
23.67304783,1.61349472,-4.187092896,-1.956132202,4.895055191
23.68313083,1.388662262,-2.847678223,-1.989213409,3.740938936
23.69321283,1.392853546,-1.71648056,-2.277214508,3.173649702
23.70329483,1.512604523,-0.9107061768,-2.559228058,3.109180991
23.71337683,1.66274231,-0.3646417236,-2.947071533,3.403366891
23.72345983,1.869612122,-0.1538800049,-3.172203369,3.685376881
23.73354183,2.195933533,-0.2948867798,-2.606230316,3.420748274
23.74362383,2.595602417,-0.687071228,-1.791474609,3.227785627
23.75370683,2.914888458,-1.28118576,-0.9249266052,3.31564487
23.76378883,3.221001892,-2.394720154,-0.01407073975,4.013693535
23.77387083,3.168760529,-4.142186279,0.9988728333,5.31003742
23.78395283,2.702031097,-6.796616364,2.615361328,7.767565959
23.79403583,2.225122833,-10.99104401,6.015241241,12.72546059
23.80411783,1.32220047,-16.46366364,13.99200348,21.64663012
23.81419983,0.4623884583,-23.31312012,24.02773407,33.48204559
23.82428283,1.090632019,-30.88736938,27.08617401,41.09598385
23.83436483,-1.698817291,-35.14466629,27.64286636,44.74552055
23.84444683,-3.693419495,-26.98827759,13.34834198,30.33457942
23.85452983,-2.883304138,-14.78221024,5.057532806,15.88728486
23.86461183,-2.159110107,-7.485483856,2.293979645,8.121364887
23.87469383,-2.200124817,-2.190694427,-0.3091072083,3.12013438
23.88477583,-1.077459412,1.000669098,-4.508773956,4.742499343
23.89485883,2.495011597,-1.468146973,-7.712262268,8.237689463
23.90494083,5.84923645,-8.134085083,-11.10570557,14.95705865
23.91502283,8.512797546,-13.0774054,-14.56995163,21.34876447
23.92510483,10.78956299,-15.01841904,-12.60289215,22.37857168
23.93518783,9.973909149,-14.50214264,-6.617588654,18.80381569
23.94526983,5.278623047,-14.22596695,17.59276566,23.23246436
23.95535183,-0.8297245789,-14.4310405,24.27636703,28.25394431
23.96543483,1.260977783,-7.960446167,-4.713548126,9.336825161
23.97551683,-0.2125579834,-3.769461365,-9.231602783,9.973791146
23.98559883,-0.9267228699,-3.010988617,-4.341571655,5.364150647
23.99568183,0.5246589661,-4.610711975,-3.931424561,6.08194303
24.00576383,2.375709686,-6.937623138,-7.833809509,10.73047915
24.01584583,3.291804657,-8.965456238,-9.001381531,13.12403341
24.02592783,3.208128662,-10.68088898,-7.544910278,13.46473728
24.03601083,2.730621643,-12.40215958,-4.292174377,13.4049475
24.04609283,1.435814209,-14.33119812,-1.275497589,14.45931174
24.05617483,-0.1565744019,-15.52287003,0.2779719543,15.5261482
24.06625783,-1.614991608,-15.35970932,2.20207077,15.6005764
24.07634008,-2.283351746,-13.7222644,3.569327545,14.36155753
24.08642208,-1.682052155,-11.13474518,2.908002777,11.63049138
24.09650408,-0.3731739807,-8.521629181,0.9322613525,8.580590536
24.10658708,1.583856354,-6.586303711,-0.9515711975,6.840576384
24.11666908,3.083587646,-5.393434296,-2.249372406,6.607368803
24.12675108,3.55585556,-4.792134705,-2.653382263,6.530627935
24.13683408,3.219954071,-5.172344055,-0.9596543884,6.167834611
24.14691608,2.627486115,-6.653364258,0.0001496887207,7.153386558
24.15699808,2.056423645,-8.286168823,0.2664459229,8.541689845
24.16708008,1.370400238,-8.817863159,0.6563850403,8.947823692
24.17716308,0.4453239441,-8.868308258,1.212927704,8.961941664
24.18724508,0.07783813477,-8.798852692,1.735041962,8.968625205
24.19732708,0.02395019531,-8.290509796,1.613045654,8.446007493
24.20741008,0.08412506104,-7.676037598,0.2520758057,7.6806362
24.21749208,0.2140548706,-7.429200897,-1.491348724,7.580433133
24.22757408,0.2817141724,-7.35285965,-2.637664948,7.816724652
24.23765708,0.07768844604,-7.793243866,-2.343077545,8.138224489
24.24773908,-0.09939331055,-9.204060059,-0.7120692444,9.232098526
24.25782108,-0.2692900085,-10.75528427,0.9874964905,10.80387922
24.26790308,-0.2806663513,-11.94186676,2.21614151,12.14900154
24.27798608,0.07140151978,-12.32342331,3.069816284,12.70022174
24.28806808,0.1359173584,-12.36114487,3.431164856,12.8292349
24.29815008,-0.1797761536,-12.81155823,3.384461975,13.25228005
24.30823308,-1.205892334,-13.15075287,2.446512451,13.43063292
24.31831508,-2.794389038,-13.04177948,1.426084442,13.4138115
24.32839708,-3.804039459,-13.27484482,1.823358307,13.92899338
24.33847908,-4.114344177,-13.76238098,3.278182983,14.73354818
24.34856208,-3.47861618,-13.79291748,4.700824585,14.981425
24.35864408,-2.526745605,-13.3002919,4.993466034,14.42972318
24.36872608,-2.114502869,-12.94103897,4.489314423,13.85985411
24.37880908,-2.38693634,-12.06940155,4.058360596,12.95523869
24.38889108,-2.578986969,-11.48337021,4.818779297,12.71768843
24.39897308,-1.990410919,-12.39677078,5.74161026,13.80607655
24.40905508,-0.6508465576,-13.26736038,4.260440369,13.94983172
24.41913808,1.269360352,-14.80361572,-0.453407135,14.86485426
24.42922008,2.339485016,-17.30506393,-8.307873688,19.33802454
24.43930208,3.688330078,-19.08665909,-11.28144012,22.47610343
24.44938508,5.408852234,-18.42204117,-7.787106628,20.71874303
24.45946708,7.307953033,-17.26853989,-3.082090759,19.00284007
24.46954908,8.831035767,-16.13315094,0.6096821594,18.40210489
24.47963108,8.44334198,-15.04461456,3.522624664,17.60793388
24.48971408,8.180338898,-14.41173065,3.993246002,17.04587746
24.49979608,8.594377899,-13.69561981,2.092049561,16.30368072
24.50987808,7.275320892,-12.15188004,-0.408949585,14.16918213
24.51996108,4.042792969,-10.45830185,-2.036814423,11.39600217
24.53004308,0.8595126343,-8.948541412,-2.295326843,9.278129159
24.54012508,-1.324894867,-8.006999359,-2.186353455,8.4052083
24.55020708,-1.926793213,-7.468419342,-0.5879772949,7.735343357
24.56029008,-1.225950623,-7.082072754,-0.3802093506,7.197448754
24.57037208,-0.4902305603,-6.991810455,-0.8232879639,7.057162498
24.58045408,0.6113287354,-7.057523804,-1.228794708,7.189735843
24.59053708,1.799108734,-6.984475708,-1.532962189,7.373578929
24.60061908,2.147434387,-6.870562592,-1.745370483,7.406917233
24.61070108,2.090552673,-6.687792664,-1.879790955,7.254694702
24.62078408,2.165397034,-6.081703033,-1.766476593,6.693018426
24.63086608,1.656754761,-5.234165497,-1.591490479,5.716132148
24.64094808,1.131047974,-4.288282471,-1.403182068,4.651618641
24.65103008,0.8063731384,-3.265609131,-1.47428421,3.672595072
24.66111308,0.8460406494,-2.189347229,-1.904190216,3.022410702
24.67119508,1.0975177,-1.214125214,-2.425406342,2.925959852
24.68127708,1.503623199,-0.4670288086,-2.666255493,3.096436175
24.69136008,2.01016983,-0.2510279846,-2.199825439,2.990489886
24.70144208,2.537223816,-0.4718188477,-1.381177826,2.927075316
24.71152408,2.990181885,-0.7638615417,-0.576151886,3.139525944
24.72160608,3.374283142,-1.470092926,0.4486170959,3.707858847
24.73168908,3.266357574,-2.711760864,1.474882965,4.494220572
24.74177108,2.866539001,-4.694238281,2.541265411,6.05895608
24.75185308,2.322719879,-8.021519165,4.518503723,9.495086795
24.76193608,1.433269501,-12.76320877,9.992171173,16.27259181
24.77201808,0.02200424194,-18.72366394,20.01487885,27.4075072
24.78210008,-0.180075531,-26.42499893,27.63867508,38.23884616
24.79218208,-0.1583706665,-33.9621254,28.80669617,44.53399585
24.80226508,-1.936223602,-31.92336502,15.65983521,35.61011984
24.81234708,-3.069816284,-19.36807388,5.410199432,20.34247566
24.82242908,-2.182611237,-9.847571869,3.107537842,10.55439505
24.83251208,-1.753004608,-3.748055878,2.291135559,4.729719883
24.84259408,-1.234931946,0.2501298523,0.3058140564,1.296589407
24.85267608,-0.746048584,1.168021088,-4.397405548,4.610643914
24.86275908,3.2341745,-3.696562958,-9.170380096,10.40290024
24.87284108,7.990383911,-9.824968872,-15.22364227,19.80241229
24.88292308,11.488759,-13.03025345,-15.0733548,22.99967637
24.89300508,13.48680405,-14.02343811,-9.306147766,21.56745433
24.90308808,11.65955383,-14.21608749,1.882784729,18.48207828
24.91317008,5.050647125,-19.26523773,38.92490524,43.72421148
24.92325208,0.953966217,-15.5896312,4.274511108,16.19314971
24.93333508,-1.75510025,-6.992259521,-13.11527664,14.96604662
24.94341708,-3.808230743,-3.379821625,-8.334218903,9.766525499
24.95349908,-2.524949341,-3.495531006,-2.385289764,4.927850794
24.96358108,-1.335223389,-5.005141754,-5.24778717,7.37384131
24.97366408,0.5777984619,-7.140301666,-8.977431335,11.48529635
24.98374608,1.460363159,-8.988358612,-9.469308472,13.13739145
24.99382808,1.806742859,-11.18159775,-7.209906921,13.42666026
25.00391108,1.747017059,-13.47467926,-3.448079681,14.01814193
25.01399308,1.177601166,-15.14310974,-0.3010240173,15.19181137
25.02407508,-0.01766326904,-15.24385025,1.539698181,15.32142137
25.03415708,-0.9129515076,-14.35365143,3.665727081,14.84245077
25.04424008,-0.8744815063,-12.43149857,4.738396454,13.33263948
25.05432208,-0.3059637451,-9.918224945,3.813619537,10.63054532
25.06440408,0.7632627869,-7.929161224,1.748214569,8.155392203
25.07448708,2.279010773,-6.492448883,-1.096619568,6.967665109
25.08456921,3.518882446,-5.373675385,-4.253854065,7.704167393
25.09465121,3.902384949,-5.048252106,-3.852688293,7.453634328
25.10473321,3.32189209,-5.360951843,-1.779200134,6.552886756
25.11481621,2.883453827,-6.035748596,-0.2317181396,6.693150259
25.12489821,2.387086029,-7.305408325,0.1471440125,7.686925385
25.13498021,1.589993591,-8.329279175,0.3466790771,8.486763669
25.14506321,0.7032376099,-8.618627472,0.5962101746,8.66779956
25.15514521,-0.3011737061,-8.484955444,0.8943901062,8.537277561
25.16522721,-0.8120613098,-7.940537567,0.8680448914,8.02901503
25.17531021,-0.6369255066,-7.395820313,0.2812651062,7.428522212
25.18539221,-0.4372407532,-7.341782684,-1.008752289,7.423646923
25.19547421,-0.3484753418,-7.770191803,-2.012265472,8.03408539
25.20555621,-0.2418969727,-8.662635956,-2.24892334,8.953068303
25.21563921,-0.05164260864,-10.03258713,-1.109941864,10.09393097
25.22572121,0.4450245667,-11.19701569,0.5713618469,11.22041272
25.23580321,0.6646179199,-11.97030762,1.797013092,12.12267452
25.24588621,0.4182302856,-12.23555603,2.732866974,12.5440149
25.25596821,-0.2064207458,-11.78708862,2.97431488,12.15831472
25.26605021,-0.7113208008,-11.91312653,2.586321716,12.21137261
25.27613221,-1.103954315,-12.84299286,2.207309875,13.07797376
25.28621521,-1.983974304,-13.53245911,2.337988129,13.87551051
25.29629721,-2.986739044,-13.70250549,2.947670288,14.33066736
25.30637921,-3.261567535,-13.63783997,3.846850433,14.54052131
25.31646221,-2.677781525,-13.53530319,4.766837311,14.59786575
25.32654421,-2.06166275,-13.40267899,4.721182251,14.35868445
25.33662621,-2.000440063,-13.53440506,3.77230545,14.19197552
25.34670821,-2.300116882,-13.54593109,2.953508148,14.05368269
25.35679121,-2.470762024,-13.01079391,3.977378998,13.82768842
25.36687321,-2.578088837,-13.01288956,4.80665451,14.10977549
25.37695521,-1.696272583,-14.38598419,3.487747192,14.89960611
25.38703821,-0.5441184998,-16.88922867,-2.508333893,17.08314517
25.39712021,0.6800358582,-19.31493439,-9.313482513,21.4539063
25.40720221,3.199297028,-19.61296463,-10.0674646,22.27684283
25.41728421,5.53923111,-18.6724704,-6.27165802,20.46162081
25.42736721,8.118218079,-17.22423203,-1.715432739,19.11863863
25.43744921,8.808133392,-15.5896312,2.808759155,18.12481566
25.44753121,8.486751709,-14.80825607,5.511239319,17.93552791
25.45761421,8.53809494,-13.9333255,3.391497345,16.68948408
25.46769621,7.555089111,-11.97674423,-0.4863386536,14.16892018
25.47777821,5.370980988,-10.32687515,-1.778451691,11.77517208
25.48786021,2.131417694,-9.315129089,-1.518143005,9.675708218
25.49794321,-0.6375242615,-8.487350464,-2.020797729,8.747867085
25.50802521,-1.585802307,-7.849975891,-1.942809906,8.240837383
25.51810721,-1.920655975,-7.635921021,-1.341660004,7.987256148
25.52819021,-1.089434509,-7.998167725,-1.175655212,8.157188221
25.53827221,0.3697311401,-8.190667419,-1.682950287,8.369949555
25.54835421,1.271006927,-8.042475586,-1.74806488,8.327821023
25.55843721,1.848655701,-7.819888458,-1.767075348,8.22743816
25.56851921,2.085163879,-7.370822296,-1.853745117,7.881199191
25.57860121,2.069596252,-6.589297485,-1.891167297,7.160906629
25.58868321,1.748214569,-5.64446228,-2.190844116,6.302063674
25.59876621,1.229243774,-4.391417999,-2.135159912,5.035325228
25.60884821,0.9758207703,-3.108286285,-2.066003723,3.857724872
25.61893021,0.9818083191,-1.817221069,-2.376009064,3.148278746
25.62901321,0.9422904968,-0.69620224,-2.643652496,2.89162713
25.63909521,1.186283112,0.07798782349,-2.765499115,3.010205155
25.64917721,1.510359192,0.4992118835,-2.447410583,2.918940897
25.65925921,1.835483093,0.442180481,-1.780247955,2.594957523
25.66934221,2.504142609,-0.107177124,-1.096918945,2.735954735
25.67942421,3.150797882,-0.7771838379,-0.2266287231,3.253137346
25.68950621,3.364703064,-1.945204926,0.6204597473,3.935736171
25.69958921,3.23761734,-3.777544556,1.612446899,5.229913375
25.70967121,2.868784332,-6.587650909,3.213517456,7.871071242
25.71975321,2.662064209,-10.75902649,6.828949127,13.0183633
25.72983521,2.578537903,-15.8217984,14.6699437,21.72982767
25.73991821,1.945653992,-22.52051834,24.90371246,33.63263609
25.75000021,2.218985596,-31.16803574,31.38014465,44.28412613
25.76008221,-0.5700146484,-36.06644943,25.37403442,44.10164752
25.77016521,-4.739593964,-26.19298141,7.011868744,27.52639333
25.78024721,-5.908812561,-13.26361816,1.432970123,14.590786
25.79032921,-5.058131561,-5.221591644,2.883453827,7.820742942
25.80041221,-3.613785095,-0.3528163147,2.675536194,4.510256754
25.81049421,-1.309027863,0.5182223511,-3.475323029,3.749663785
25.82057621,4.093088379,-4.967270508,-9.644893341,11.59530579
25.83065821,9.598938904,-11.99934723,-15.29264877,21.67923127
25.84074121,13.22799225,-14.91184067,-15.22229507,25.08108926
25.85082321,13.25972626,-14.37835007,-9.837692413,21.89377727
25.86090521,10.55694672,-13.07051971,1.909878387,16.9096199
25.87098821,3.082539825,-14.95465164,33.48192398,36.79922405
25.88107021,0.2885998535,-10.34887939,1.499132538,10.46087917
25.89115221,-1.634451141,-4.787793732,-10.92982132,12.04389445
25.90123421,-3.167113953,-3.233575745,-6.687493286,8.075220699
25.91131721,-1.251098328,-4.951702881,-3.241808624,6.049291826
25.92139921,0.4810995483,-7.431595917,-6.664740601,9.99394026
25.93148121,1.712888031,-9.003926239,-8.674760742,12.61967302
25.94156421,1.923350372,-9.951306152,-7.74010437,12.7529207
25.95164621,2.114053802,-11.27305756,-4.971761169,12.50077835
25.96172821,1.60062149,-12.98100586,-1.793121185,13.20165845
25.97181021,0.6641688538,-14.34901108,0.55579422,14.37512248
25.98189321,-0.007035369873,-14.54480392,1.610201569,14.63366392
25.99197521,-0.3691323853,-13.880186,2.630180511,14.13200877
26.00205721,-0.4641847229,-12.43509109,3.315455475,12.87785708
26.01214021,0.1031355286,-10.48255142,2.879112854,10.87123784
26.02222221,0.938997345,-8.587043152,1.901495819,8.845038861
26.03230421,1.630259857,-7.050338745,0.6165678406,7.26258766
26.04238621,2.043550415,-5.93815155,-1.257684631,6.404647747
26.05246921,2.333946533,-5.399421844,-2.482587433,6.384692869
26.06255121,2.090253296,-5.614823914,-2.08860672,6.344894361
26.07263321,1.902992706,-6.29276413,-1.118324432,6.668651375
26.08271646,1.942510529,-7.28729599,-0.2689906311,7.54654795
26.09279846,1.670226746,-8.177345123,0.3201841736,8.352313964
26.10288046,1.392703857,-8.477171631,0.5652246094,8.60938684
26.11296346,0.8852590942,-8.188122711,0.5143304443,8.251882997
26.12304546,0.5285508728,-7.630232849,0.08202941895,7.648957326
26.13312746,0.4990621948,-7.104226685,-0.6072871399,7.147579837
26.14320946,0.5517526245,-6.929839325,-1.12206665,7.041742511
26.15329246,0.4270619202,-7.280410309,-1.167272644,7.385748545
26.16337446,0.3704795837,-8.106991425,-0.4240681458,8.126524403
26.17345646,0.3311114502,-9.14418457,0.5539979553,9.166932965
26.18353946,0.5554948425,-10.2731369,1.100960541,10.34688506
26.19362146,0.8454418945,-11.49863846,1.598076782,11.63990154
26.20370346,0.5516029358,-11.96476913,1.827549591,12.11610101
26.21378546,-0.2989283752,-11.80609909,1.817670135,11.94894383
26.22386846,-0.8418493652,-11.93093948,1.78668457,12.09331506
26.23395046,-1.361867981,-12.54660919,1.516047363,12.71103797
26.24403246,-2.092199249,-13.08009979,1.536255341,13.33515612
26.25411546,-2.896476746,-13.08563828,1.814227295,13.52460451
26.26419746,-3.437900848,-13.12425797,2.783312073,13.84962582
26.27427946,-3.6389328,-13.29684906,4.259841614,14.42893889
26.28436146,-3.375480652,-13.23577606,4.911735992,14.51567388
26.29444446,-2.808010712,-13.40402618,4.380041656,14.37837289
26.30452646,-2.683619385,-13.52572311,3.540737,14.23670669
26.31460846,-1.958078156,-12.83775375,4.264781342,13.66858996
26.32469146,-0.9651928711,-12.71216492,6.627617798,14.36857863
26.33477346,-0.2814147949,-13.57227631,6.397246857,15.00701988
26.34485546,0.4694238281,-15.12185394,1.148411865,15.1726621
26.35493746,0.3091072083,-17.63527725,-6.514752502,18.80267404
26.36502046,0.4535568237,-19.64050735,-10.26340714,22.16512506
26.37510246,2.455942841,-19.35250626,-8.874595184,21.43150936
26.38518446,4.982987823,-18.47982101,-5.386548615,19.88338146
26.39526746,7.590715027,-17.6677597,-1.761836243,19.30991337
26.40534946,8.561895447,-16.65047516,2.074985046,18.83746107
26.41543146,8.597371674,-15.79350723,4.462819519,18.52745067
26.42551346,8.962312775,-14.6964386,3.038082275,17.47965393
26.43559646,8.365204468,-12.39647141,-0.4031117249,14.96033583
26.44567846,6.275549927,-10.11596375,-1.636546783,12.01638609
26.45576046,3.415297852,-8.653355255,-0.8655001831,9.343120847
26.46584346,1.009650421,-7.539521484,-1.221160583,7.70422036
26.47592546,-0.2273771667,-6.832841034,-1.247505798,6.949509888
26.48600746,-1.227896576,-6.567592621,-1.184486847,6.78557381
26.49609046,-1.102457428,-6.767427063,-1.431173859,7.004408615
26.50617246,0.001047821045,-6.770420837,-1.796713715,7.004768346
26.51625446,1.171613617,-6.608906708,-2.03831131,7.014630378
26.52633646,1.83233963,-6.275699615,-2.232457581,6.90838194
26.53641946,1.709145813,-5.771248627,-2.47824646,6.509239252
26.54650146,1.729204102,-5.343288574,-2.558180237,6.17131799
26.55658346,1.417402496,-4.700824585,-2.37526062,5.454231809
26.56666646,0.9310638428,-3.948788452,-2.281555481,4.65460047
26.57674846,0.680634613,-3.220403137,-2.397863617,4.072346961
26.58683046,0.790506134,-2.483635254,-2.495011597,3.60810572
26.59691246,1.11862381,-1.770218811,-2.546504517,3.296919641
26.60699546,1.395547943,-1.161135406,-2.734812927,3.282528178
26.61707746,1.502725067,-0.8307723999,-2.47001358,3.008210846
26.62715946,1.945204926,-1.036295013,-1.71887558,2.795042543
26.63724246,2.377955017,-1.421444092,-0.9611512756,2.932402623
26.64732446,2.767894135,-1.843416595,-0.1591191101,3.329375553
26.65740646,3.199746094,-2.647843781,0.6932084656,4.210699434
26.66748846,2.921624451,-3.974085846,1.709894257,5.220439264
26.67757146,2.691103821,-6.273005219,3.426823883,7.637784769
26.68765346,2.551144867,-9.893675995,6.854695587,12.30365866
26.69773546,2.248324585,-14.92591141,14.29407532,20.78841947
26.70781846,1.214723969,-21.84182968,24.89353363,33.13953975
26.71790046,0.9125024414,-30.65445374,30.04522064,42.93301152
26.72798246,-0.9032217407,-36.35774368,24.02683594,43.5888768
26.73806446,-3.141068115,-28.4107695,8.40936264,29.79522634
26.74814746,-3.266806641,-15.44128967,2.734962616,16.01828558
26.75822946,-1.885329437,-7.605234833,2.837200012,8.333292738
26.76831146,-0.8146060181,-2.506687317,2.532882843,3.65548352
26.77839446,-0.1922003174,0.5526507568,0.2737806702,0.6460028455
26.78847646,0.9928852844,0.1857637024,-4.387526093,4.502301029
26.79855846,4.290078735,-5.576353912,-9.36183197,11.71086659
26.80864146,7.543114014,-11.87345901,-13.77390701,19.68751158
26.81872346,10.07689499,-15.08518021,-15.35701492,23.76855868
26.82880546,10.43659698,-15.4555101,-10.65514252,21.47853373
26.83888746,8.27254715,-14.25859909,-1.270557861,16.53351147
26.84897046,1.254840546,-15.21196655,28.07756241,31.9582237
26.85905246,0.3595523071,-12.27462479,10.07030869,15.88102039
26.86913446,2.108665009,-6.380781097,-7.05213501,9.74132659
26.87921746,0.1609153748,-3.49852478,-8.635991364,9.319115635
26.88929946,0.360151062,-3.192411346,-4.755910034,5.739327421
26.89938146,1.510808258,-4.330794067,-4.307592316,6.29235015
26.90946346,3.141517181,-6.474186859,-6.896009674,9.966903988
26.91954646,3.340303802,-9.211843872,-8.130043488,12.73237229
26.92962846,1.814526672,-10.68103867,-7.261250153,13.04234825
26.93971046,1.44509491,-13.0057045,-4.353097687,13.79079796
26.94979346,0.3661386108,-14.72577759,-1.610650635,14.81812331
26.95987546,-1.558708649,-14.61351105,0.7303312683,14.71453912
26.96995746,-2.235301666,-13.6944223,3.432811432,14.2939837
26.98003946,-1.873653717,-11.89261917,4.423451385,12.8262189
26.99012246,-1.13493988,-9.788145447,3.57232132,10.48128615
27.00020446,-0.03188369751,-8.244106293,1.324445801,8.349877952
27.01028646,1.673370209,-6.820267181,-1.309626617,7.143621922
27.02036946,2.478845215,-5.957012329,-2.5215065,6.927385114
27.03045146,2.459834747,-6.046526184,-1.540147247,6.70696052
27.04053346,1.73758667,-6.683152313,0.01511856079,6.905357402
27.05061646,1.230291595,-7.620203705,0.6493496704,7.746145939
27.06069846,0.9403445435,-8.438851318,0.7824229431,8.527053717
27.07078046,0.4918771362,-8.740174713,1.366807709,8.860065488
27.08086175,0.3233276367,-8.641230469,2.020198975,8.880124361
27.09094475,0.2975811768,-8.375083923,2.092798004,8.637730533
27.10102675,0.1290316772,-8.21401886,0.9128018188,8.265589039
27.11110875,0.3294648743,-8.122559052,-1.00396225,8.190998282
27.12119175,0.7364685059,-8.066725159,-2.512974243,8.481124937
27.13127375,1.133592682,-7.978109436,-2.58707016,8.463344171
27.14135575,1.283431091,-8.197702789,-1.3748909,8.410698626
27.15143775,1.039737854,-8.827293549,0.1568737793,8.889700534
27.16152075,0.8433462524,-9.949360199,1.532662811,10.1019828
27.17160275,0.7366181946,-11.25778931,2.323318634,11.5186039
27.18168475,0.6521937561,-12.03781723,2.487527161,12.30943507
27.19176775,0.4188290405,-12.18915253,2.505489807,12.45103756
27.20184975,-0.1803749084,-12.28959366,2.125280457,12.47331008
27.21193175,-1.082848206,-12.50394791,1.226998444,12.6105828
27.22201375,-2.569107513,-12.65468445,0.7785310364,12.93628472
27.23209675,-3.754642181,-13.03983353,1.229543152,13.62521092
27.24217875,-4.111200714,-13.59742401,2.509531403,14.42531313
27.25226075,-3.607797546,-13.73798172,4.447700958,14.88389696
27.26234375,-2.215842133,-13.04177948,5.743406525,14.4216742
27.27242575,-0.7581733704,-11.93318481,6.068231049,13.40892071
27.28250775,-0.6339317322,-10.72819061,5.402415619,12.02838467
27.29259075,-0.7210505676,-9.979597321,4.714895325,11.06085505
27.30267275,-0.5054988098,-10.76187057,6.525081024,12.59563693
27.31275475,-0.4631369019,-11.61868881,6.878346405,13.50999907
27.32283675,-0.3040177917,-13.18143906,1.726809082,13.29754233
27.33291975,-1.05186264,-15.90053467,-6.698420563,17.2858976
27.34300175,-0.7649093628,-19.27511719,-10.61412781,22.01760518
27.35308375,1.105900269,-20.29344955,-9.036857758,22.24212014
27.36316675,4.38543045,-19.31673065,-5.729635162,20.62030074
27.37324875,8.112679596,-18.52846985,-2.10731781,20.33618827
27.38333075,9.961634674,-17.32152969,2.399959259,20.12534126
27.39341275,9.427844696,-15.91460541,5.00678833,19.16316389
27.40349575,9.86493576,-14.69883362,3.835623779,18.11310788
27.41357775,10.06941055,-13.190121,1.187330933,16.63676879
27.42365975,7.695347443,-11.31407227,-0.5819897461,13.69544872
27.43374275,3.712280273,-9.732311554,-1.453627167,10.51722135
27.44382475,0.2880010986,-8.462202759,-1.975741425,8.694560043
27.45390675,-1.778302002,-7.990982666,-1.652713165,8.351623961
27.46398875,-2.045945435,-7.597600708,-0.3667373657,7.876796654
27.47407175,-1.446891174,-7.142696686,-0.7427554321,7.325523575
27.48415375,-0.2697390747,-7.013964386,-1.310375061,7.140415841
27.49423575,1.246308289,-6.768774261,-1.768422546,7.106117622
27.50431875,2.00313446,-6.57941803,-1.913470917,7.138813643
27.51440075,2.051932983,-6.390211487,-1.954335938,6.990326228
27.52448275,1.897005157,-6.041586456,-2.002086639,6.641366304
27.53456475,1.53865036,-5.331912231,-1.921853485,5.872840351
27.54464775,1.033600616,-4.381239166,-1.730850677,4.822803224
27.55472975,0.552052002,-3.2142659,-1.669927368,3.664003835
27.56481175,0.1984872437,-1.954485626,-1.996248779,2.800789253
27.57489475,0.4159849548,-0.93256073,-2.348017273,2.560448811
27.58497675,0.850531311,-0.1480421448,-2.70756958,2.841874913
27.59505875,1.230291595,0.4095483398,-2.661315765,2.96039674
27.60514175,1.896556091,0.3617976379,-1.994003448,2.775585036
27.61522375,2.482587433,-0.1410067749,-1.281934204,2.797584418
27.62530575,2.982398071,-0.8126600647,-0.7325765991,3.176756697
27.63538775,3.392245789,-1.940564575,0.08681945801,3.909048475
27.64547075,3.667972412,-3.769012299,1.144669647,5.382354868
27.65555275,3.618275757,-6.371500397,2.416874084,7.715517941
27.66563475,2.980003052,-10.22553589,5.323829041,11.90735731
27.67571775,2.107617188,-15.19205795,12.47894989,19.7728315
27.68579975,1.349743195,-21.77132629,24.24912369,32.61644455
27.69588175,1.194965057,-31.23539566,32.20013947,44.87679651
27.70596375,-1.912123718,-38.54963562,29.94448013,48.85081897
27.71604675,-5.37068161,-30.203741,11.94725555,32.92183328
27.72612875,-5.496420135,-15.59966034,4.002227325,17.01698741
27.73621075,-4.990322571,-6.729406128,2.750380554,8.817755916
27.74629375,-4.849315796,-0.7346722412,1.425036621,5.107478474
27.75637575,-4.129612427,3.252286835,-4.32226181,6.805366677
27.76645775,-0.3697311401,2.321222992,-9.27995224,9.572998009
27.77653975,6.194867706,-4.593497772,-12.85332138,14.98947892
27.78662275,12.06955124,-11.66329605,-15.34324356,22.74030925
27.79670475,15.40431656,-16.15769989,-12.98295181,25.82481892
27.80678675,15.24010803,-17.82957321,-6.651867371,24.38035917
27.81686975,6.331683197,-19.66340973,27.49168076,34.3879689
27.82695175,-2.964734802,-20.60944244,22.16500763,30.41095746
27.83703375,-0.9689350891,-11.48696274,-9.333391113,14.83244207
27.84711675,-0.8354127502,-4.907993774,-8.759634247,10.07558978
27.85719875,0.3373983765,-1.919608154,-4.745431824,5.130093208
27.86728075,0.9662406921,-1.359772339,-3.613785095,3.980206603
27.87736275,2.690804443,-3.030298462,-7.949818268,8.923157951
27.88744575,4.289330292,-5.450465698,-10.70094727,12.75210583
27.89752775,4.586911469,-8.119864655,-8.992250519,12.95501942
27.90760975,4.760251007,-11.30598907,-5.435197449,13.41740474
27.91769275,3.990401917,-14.69119949,-2.361638947,15.40558303
27.92777475,2.55084549,-17.00942871,-0.3239263916,17.20268601
27.93785675,0.4549040222,-17.64979706,2.58467514,17.84384542
27.94793875,-1.467697906,-16.14422791,5.345084839,17.06927543
27.95802175,-1.877695312,-12.47595612,4.395309906,13.36016354
27.96810375,-0.6680607605,-9.20151535,0.5764512634,9.243726845
27.97818575,1.028810577,-7.449857941,-2.975662079,8.087855052
27.98826875,2.45489502,-6.582262115,-3.963308258,8.066008707
27.99835075,3.536994781,-5.842350769,-2.814597015,7.386836329
28.00843275,3.100053406,-5.211263123,-1.124162292,6.166955109
28.01851475,2.036664734,-5.876928864,0.6677613831,6.255573624
28.02859775,0.7521858215,-7.251370697,0.9015751648,7.345815018
28.03867975,-0.5780978394,-8.812773743,0.3709286499,8.839500337
28.04876175,-1.796264648,-9.569300537,0.1362167358,9.737383347
28.05884475,-2.571502533,-9.578581238,0.4227209473,9.926758625
28.06892675,-2.920876007,-9.052126007,0.9478289795,9.558811729
28.07900888,-2.251617737,-8.041427765,0.9295669556,8.402287644
28.08909188,-0.9725276184,-7.185807037,-0.06466552734,7.25160771
28.09917388,-0.03248245239,-6.805897064,-1.32339798,6.933445909
28.10925587,0.5433700562,-7.038213959,-1.557960205,7.22903498
28.11933787,0.9074130249,-8.024363251,-0.4984634399,8.090875711
28.12942087,1.166673889,-9.229956207,0.6429130554,9.325586134
28.13950287,1.575773163,-10.22478745,1.790127411,10.49923309
28.14958488,1.744322662,-10.94224548,2.794688416,11.4274092
28.15966788,1.402433624,-11.18309464,2.890339508,11.63539807
28.16974987,0.4956193542,-11.26362717,2.149380341,11.47757689
28.17983187,-0.2978805542,-11.79487244,1.456022186,11.88813481
28.18991387,-0.8614585876,-12.73506729,1.06473587,12.80850156
28.19999687,-1.713636475,-13.37528595,0.983454895,13.52042927
28.21007887,-2.582130432,-13.33995941,1.341210938,13.65359885
28.22016088,-3.155288544,-13.19536011,2.183958435,13.74201763
28.23024388,-2.918331299,-13.02845718,3.565585327,13.8192168
28.24032587,-1.588496704,-12.53822662,4.675527191,13.47557061
28.25040787,-0.3412902832,-11.75969559,5.159620514,12.84634591
28.26048987,-0.1830693054,-11.69203629,4.959337006,12.70166329
28.27057287,-0.5310955811,-12.06805435,4.668491821,12.95047544
28.28065488,-0.7426057434,-12.2943837,6.255192261,13.81415086
28.29073688,-1.202599182,-12.93699738,7.213200073,14.86076718
28.30081988,-1.531315613,-14.89911713,2.991080017,15.27334863
28.31090187,-1.695823517,-17.52705231,-5.602100372,18.47855266
28.32098387,-0.2112107849,-19.89707382,-10.62430664,22.55690689
28.33106587,2.520009613,-19.39127563,-9.361532593,21.67972121
28.34114887,5.007836151,-17.89393936,-5.057682495,19.25750869
28.35123088,8.255482635,-16.76423859,-0.4564009094,18.69227088
28.36131288,9.821376343,-15.9425972,3.532803497,19.05535461
28.37139588,9.143735504,-15.13906815,4.580025787,18.26953528
28.38147787,9.42275528,-14.48283279,2.374961243,17.44079137
28.39155987,8.5439328,-13.55670868,-0.5135820007,16.03268238
28.40164187,5.468278656,-11.6559613,-1.478924561,12.95958036
28.41172487,2.494113464,-9.981842651,-1.115330658,10.3489974
28.42180688,0.4132905579,-8.530610504,-1.278341675,8.635756023
28.43188887,-0.4578977966,-7.738457794,-0.7176077271,7.785137139
28.44197187,-0.2270777893,-7.379953308,-0.7047344971,7.417002485
28.45205387,-0.06840774536,-7.377109222,-1.151555328,7.466759657
28.46213587,0.5040019226,-7.687713318,-1.342258759,7.820269341
28.47221887,1.215173035,-7.890242157,-1.646426239,8.151275125
28.48230087,1.708846436,-7.792495422,-1.74222702,8.165690175
28.49238288,1.77740387,-7.159910889,-1.996398468,7.642584333
28.50246487,1.51754425,-6.41086853,-2.088906097,6.911273728
28.51254787,1.640289001,-5.501808929,-1.906884613,6.049517207
28.52262987,0.9042695618,-4.327201538,-1.761237488,4.758606317
28.53271187,0.4730163574,-3.379522247,-1.923500061,3.917239791
28.54279487,0.5370831299,-2.572550354,-2.155667267,3.399025592
28.55287688,0.5529501343,-1.624272308,-2.455793152,2.995819485
28.56295888,1.07416626,-0.923429718,-2.763403473,3.105310669
28.57304087,1.420396271,-0.4132905579,-2.787503357,3.155710636
28.58312387,1.821711731,-0.1829196167,-2.227368164,2.88327282
28.59320587,2.284249878,-0.3044668579,-1.539698181,2.771492028
28.60328787,2.823877716,-0.5126838684,-0.6891668701,2.951623465
28.61337087,3.356021118,-1.076112213,0.3736230469,3.544078078
28.62345288,3.259022827,-2.361489258,1.520388336,4.302260103
28.63353487,3.162623291,-4.548291779,2.715503082,6.169530061
28.64361687,3.038381653,-8.138426056,4.996908875,10.02171842
28.65369987,2.466720428,-13.05540115,10.34169434,16.83683019
28.66378187,1.7902771,-19.02768173,20.1933078,27.80337109
28.67386387,1.706152039,-27.41668671,29.26893494,40.14045611
28.68394687,0.7123686218,-36.74783249,32.05254639,48.76757521
28.69402888,-2.652334442,-34.60159561,15.84634735,38.14986266
28.70411087,-5.112019501,-19.86608826,5.371729431,21.20494478
28.71419387,-4.342619476,-9.335486755,4.162244568,11.10558133
28.72427587,-3.400778046,-3.362607422,3.459156647,5.90238805
28.73435787,-2.331850891,0.2149530029,-0.7277865601,2.452224837
28.74443988,0.1682501221,-0.01916015625,-7.250921631,7.252898711
28.75452287,5.484894104,-5.981261902,-11.88378754,14.39041221
28.76460488,9.44490921,-11.41735748,-15.77030548,21.63942922
28.77468687,11.69622757,-12.77712982,-13.45701599,21.93508754
28.78476987,11.29446304,-12.16370544,-7.88754776,18.3775416
28.79485187,8.569080505,-12.51173172,9.44850174,17.86747762
28.80493387,2.825224915,-15.36300247,30.65699844,34.40719829
28.81501588,2.056124268,-10.38031403,-2.352957001,10.84043232
28.82509888,-1.033750305,-5.60584259,-11.27215942,12.63153549
28.83518088,-1.937271423,-4.669090576,-6.605314178,8.317668109
28.84526287,-0.8860075378,-5.855373688,-3.671415253,6.967761501
28.85534587,0.0002993774414,-7.252867584,-6.097120972,9.475176644
28.86542787,0.9349557495,-8.338709564,-7.784711609,11.44595799
28.87550987,1.337768097,-9.353599091,-7.119195557,11.83056993
28.88559188,1.388362885,-10.91530151,-4.212989044,11.78221691
28.89567488,1.018781433,-12.98250275,-0.9135502625,13.05441945
28.90575687,0.1209484863,-14.48313217,0.6303392029,14.49734712
28.91583887,-0.4050576782,-14.87711288,1.352437592,14.94395018
28.92592187,-0.6180647278,-13.90967468,1.80075531,14.03936514
28.93600387,-0.09265731812,-12.14813782,1.999541931,12.31194565
28.94608587,0.9774673462,-10.08632538,1.761087799,10.28546704
28.95616887,2.224075012,-8.242010651,1.122964783,8.610359988
28.96625088,3.485052795,-6.778803406,-0.4041595459,7.632896799
28.97633287,3.99354538,-5.913901978,-2.387535095,7.524823262
28.98641487,3.432811432,-5.857768707,-2.210603027,7.140337128
28.99649787,2.425855408,-6.628665619,-1.078357544,7.140506798
29.00657987,1.633852386,-7.700586548,-0.05269042969,7.872184137
29.01666188,1.140328674,-8.516090698,0.5310955811,8.608496546
29.02674487,0.6125262451,-8.893306274,0.9306147766,8.962819241
29.03682688,0.1097218323,-8.781788177,1.341959381,8.884407547
29.04690887,-0.3126997375,-8.302035828,1.482367401,8.439134619
29.05699087,-0.4840933228,-7.740553436,0.7732919312,7.79413204
29.06707387,-0.4068539429,-7.331454163,-0.5460644531,7.363011385
29.07715587,-0.254021759,-7.18550766,-2.204765167,7.520441265
29.08723796,0.1820214844,-7.350165253,-3.107837219,7.982274942
29.09732096,0.7530839539,-7.859406281,-2.372416534,8.244135051
29.10740296,0.9885443115,-9.084758148,-0.2225871277,9.14109378
29.11748496,1.056502991,-10.41174866,1.618883514,10.58968803
29.12756796,0.9698332214,-11.27081223,2.394570465,11.56312036
29.13764996,0.7113208008,-11.80400345,2.316283264,12.05013041
29.14773196,0.6231541443,-11.82241516,2.470612335,12.09387228
29.15781396,0.4111949158,-11.78274765,2.669698334,12.08840406
29.16789696,-0.4203259277,-12.22807159,2.203417969,12.43211404
29.17797896,-1.811532898,-12.77623169,1.408421173,12.98065475
29.18806096,-3.327131195,-13.27709015,1.255289612,13.74506009
29.19814396,-3.824696503,-13.90368713,2.601739655,14.65298156
29.20822596,-3.461701355,-13.89740021,4.420457611,14.98871423
29.21830796,-2.36238739,-13.17979248,5.401367798,14.43823321
29.22838996,-1.300196228,-12.63028519,5.221441956,13.72873156
29.23847296,-1.782193909,-12.38150253,4.302502899,13.22835407
29.24855496,-3.165766754,-12.39692047,3.334915009,13.22223031
29.25863696,-3.42712326,-12.22403,3.569776611,13.18769837
29.26871996,-3.21651123,-12.30980164,4.79737381,13.59749816
29.27880196,-1.616638184,-13.52362747,5.283413086,14.60878068
29.28888396,0.6418652344,-15.33680695,1.531165924,15.42640941
29.29896596,2.509381714,-17.49935989,-4.880001984,18.33954778
29.30904896,4.028123474,-19.3254126,-9.262887726,21.80592671
29.31913096,5.67380127,-19.11480057,-9.354497223,22.02440101
29.32921296,7.59849884,-17.43948441,-5.557493134,19.81813641
29.33929596,9.162296906,-15.52766006,-0.3764671326,18.03323707
29.34937796,8.32164505,-14.25829971,3.065774689,16.79130315
29.35945996,7.802973633,-13.53859634,3.459156647,16.00455414
29.36954196,7.017407227,-12.46383133,1.716031494,14.40610494
29.37962496,5.481600952,-11.14447495,-0.5471122742,12.43167739
29.38970696,2.948269043,-10.0409697,-1.250649261,10.53933045
29.39978896,0.4617897034,-8.871302032,-1.273252258,8.974097213
29.40987196,-0.729433136,-8.007747803,-1.523531799,8.183962776
29.41995396,-0.9758207703,-7.506290588,-1.32684082,7.684863768
29.43003596,-0.406255188,-7.171287231,-1.202748871,7.282788524
29.44011796,0.2782713318,-7.056925049,-1.052012329,7.140333047
29.45020096,1.186732178,-7.022646332,-1.12910202,7.211155673
29.46028296,1.809137878,-6.906936951,-1.443598022,7.284417146
29.47036496,2.038011932,-6.690337372,-1.663640442,7.189005933
29.48044796,1.841021576,-6.327042847,-1.818568268,6.835789799
29.49052996,1.616039429,-5.72993454,-1.930984497,6.258788572
29.50061196,1.160985718,-4.959187317,-1.772763519,5.392969236
29.51069496,0.7117698669,-4.097878418,-1.697170715,4.492172337
29.52077696,0.6255491638,-3.215762787,-1.908830566,3.791579643
29.53085896,0.9136999512,-2.47001358,-2.172133026,3.41379211
29.54094096,1.236279144,-1.905836792,-2.32616272,3.251404773
29.55102396,1.524130554,-1.480720825,-2.348915405,3.167477181
29.56110596,2.015858002,-1.393302612,-1.914369049,3.109627712
29.57118796,2.507735138,-1.506167908,-1.290915527,3.197458395
29.58127096,3.008892975,-1.767674103,-0.6409671021,3.548090683
29.59135296,3.532055054,-2.243833923,0.21061203,4.189816345
29.60143496,3.868704987,-3.236569519,1.157393188,5.175115411
29.61151696,3.847449188,-4.943769379,2.239343262,6.652697135
29.62159996,3.700155487,-7.830516357,3.842210083,9.474740913
29.63168196,3.546724548,-12.1509819,7.815846863,14.87659499
29.64176396,2.681972809,-17.26539642,15.88062607,23.61103928
29.65184696,1.776655426,-23.75095963,24.16814209,33.93175032
29.66192896,0.7593708801,-31.35664352,29.08287186,42.77416478
29.67201096,-1.910177765,-33.18299561,22.00049973,39.8595279
29.68209396,-3.760330353,-22.30571503,8.345894623,24.11097187
29.69217596,-3.390748901,-12.06461151,3.278482361,12.95378229
29.70225796,-2.974614258,-5.964197388,2.107916565,6.990228373
29.71233996,-0.4953199768,-2.98254776,0.1826202393,3.028907917
29.72242296,5.239404602,-5.003944244,-4.409380646,8.481359341
29.73250496,8.811127167,-10.0993483,-9.364676056,16.350228
29.74258696,8.787925415,-14.12133453,-11.6785643,20.32310474
29.75266996,8.362809448,-14.29063248,-12.65408569,20.83949719
29.76275196,6.372099152,-11.07082809,-8.69017868,15.44946885
29.77283396,3.957769775,-7.295079803,-1.69776947,8.471396113
29.78291596,-0.4694238281,-5.597310333,13.61568604,14.72878637
29.79299896,-1.461710358,-4.367318115,13.03264847,13.82244518
29.80308096,0.4670288086,-3.953129425,-1.097068634,4.129032302
29.81316296,-1.223256226,-4.230802002,-7.533084869,8.726019082
29.82324596,-1.655108185,-6.521338806,-6.835086365,9.590914896
29.83332796,-0.09684860229,-9.860894165,-5.571264496,11.32632339
29.84340996,1.22041214,-11.9758461,-5.965394897,13.43488861
29.85349196,1.425785065,-12.73716293,-5.411995697,13.91250804
29.86357496,0.9006770325,-13.18952225,-3.975882111,13.80515682
29.87365696,0.5319937134,-13.47752335,-1.809287567,13.60882707
29.88373896,0.8550219727,-13.47033829,0.2652484131,13.50005307
29.89382196,1.343456268,-12.89313858,2.17752182,13.14456155
29.90390396,1.496138763,-11.91357559,3.308569794,12.45465169
29.91398596,1.544188843,-10.60260178,3.270099792,11.20237637
29.92406796,1.648521881,-9.10092453,2.186802521,9.504028459
29.93415096,2.104473724,-7.847431183,0.9744735718,8.182944737
29.94423296,2.669398956,-6.891668701,-0.7381150818,7.42735499
29.95431496,2.562371521,-6.257138214,-2.537074127,7.221791438
29.96439796,1.998643799,-6.378236389,-2.213297424,7.040963141
29.97447996,1.621577911,-7.019203491,-0.7804769897,7.246231911
29.98456196,1.376836853,-7.77872406,0.4643344116,7.913269499
29.99464496,1.167871399,-8.05130722,1.240620117,8.229617843
