Time (s),Acceleration x (m/s^2),Acceleration y (m/s^2),Acceleration z (m/s^2),Absolute acceleration (m/s^2)
20.00285662,1.113303781,-11.13064384,-1.78368032,11.32749722
20.00827855,1.127668977,-11.07078838,-1.903390408,11.28968059
20.01331424,1.26413846,-10.93671322,-2.003946781,11.19042201
20.01828832,1.462857246,-10.97741508,-2.037465572,11.26032234
20.02329332,1.735796213,-11.19289303,-1.920149803,11.48829048
20.02829762,2.063801765,-11.58075333,-1.766920805,11.89517274
20.03285578,2.331952572,-12.11226654,-1.620874524,12.44074908
20.03827763,2.67671752,-12.77067184,-1.632845521,13.14994527
20.0433124,2.827552319,-13.29739666,-1.707065821,13.70145553
20.04828747,2.86107111,-13.75229454,-1.956062794,14.18229582
20.05284524,2.772485495,-14.15691471,-2.315192938,14.61044244
20.0582964,2.48996973,-14.61660099,-2.652775526,15.06260906
20.06330224,2.087743998,-15.01643276,-2.863465309,15.42891317
20.06830709,1.419761658,-15.452178,-3.124433279,15.82869582
20.07331147,0.8499416113,-15.89749908,-3.315969467,16.26187355
20.07831755,0.3639186621,-16.1249485,-3.296815634,16.46254519
20.08328993,0.04788403213,-16.26141739,-3.179499865,16.56940578
20.08784863,-0.356736064,-16.25184059,-3.021482468,16.5341749
20.09330032,-0.8978256583,-16.0459404,-2.367865562,16.24454005
20.09785793,-1.065419793,-16.11776543,-2.037465572,16.28093203
20.10283209,-0.9792284966,-16.29014778,-2.006340981,16.44242097
20.10783763,-0.8212111592,-16.50562668,-2.217030764,16.67409144
20.11284247,-0.624886632,-16.61815453,-2.23139596,16.77893534
20.11829455,-0.5315127969,-16.31887817,-1.738190413,16.41979283
20.12329909,-0.7685387731,-15.84722137,-1.201889277,15.91130463
20.12830463,-1.917755604,-15.18402672,-0.5913678408,15.31607554
20.13286163,-3.280056238,-14.76264763,-0.05267243832,15.12274143
20.13828309,-4.608838081,-14.09466553,1.355118155,14.89084719
20.14328963,-5.712565422,-13.75708294,2.671929121,15.13373516
20.14784563,-6.320692539,-13.69004536,3.53384161,15.4873023
20.15285055,-7.031770229,-13.8025732,3.555389643,15.89331983
20.1583044,-7.678205013,-13.79299641,3.452438831,16.15923624
20.16330863,-8.453926086,-13.8265152,3.493140221,16.57840214
20.16831209,-9.057265282,-13.94622517,3.332728863,16.95990367
20.17328716,-9.485827446,-14.03241634,2.849100113,17.17576788
20.17829209,-9.993397713,-14.04438686,2.003946781,17.35305745
20.18329724,-9.955090523,-14.26225948,0.8810662031,17.41528497
20.18830124,-8.875306129,-14.66687965,-0.7230489254,17.15841535
20.19330616,-8.204929352,-15.06671143,-2.051830769,17.27821369
20.19831178,-7.915230751,-15.4617548,-3.19625926,17.66161976
20.20331609,-7.807491779,-15.92383575,-4.034229755,18.18792134
20.20829086,-7.848193169,-16.01002693,-4.230554581,18.32519278
20.2132954,-7.762001991,-15.7610302,-4.082113743,18.03669594
20.21830124,-7.575253963,-15.27740097,-3.900154591,17.49270302
20.22330563,-6.945579052,-14.68842697,-3.349488258,16.58945529
20.22786286,-5.995080948,-14.38675785,-2.940079689,15.86076498
20.2332847,-4.244919777,-13.65652657,-2.829946518,14.5783627
20.23829116,-3.892971992,-13.14895535,-2.470816135,13.93395816
20.24329424,-2.219424963,-13.02685165,1.304839969,13.27882971
20.24829916,0.5410895944,-13.6158247,5.267243862,14.60915186
20.25330432,2.477998734,-13.94383049,5.442020416,15.17189746
20.25830955,3.878606796,-13.74511242,2.839523315,14.56140786
20.26331416,4.419696331,-13.43147182,0.3878606856,14.1452673
20.2682887,4.769249916,-12.99572659,-0.5219359994,13.85305278
20.27329355,4.750096321,-12.52885723,-1.00556469,13.43677189
20.27829763,4.264073372,-11.92791271,-1.158793569,12.72007177
20.28330247,3.552995205,-10.9247427,-0.282515794,11.4914574
20.28830717,2.904166698,-10.12507915,0.3615244627,10.5395499
20.29331324,2.296039343,-9.287108421,1.034295082,9.622470879
20.29828686,1.738190413,-8.331821442,1.505952835,8.643404907
20.3032917,0.6703764796,-6.91684866,2.027888775,7.239097519
20.30829724,-0.08140286058,-5.829881191,2.432508945,6.3175344
20.31330163,-0.6105214357,-4.850652695,2.643198729,5.557703438
20.31830893,-0.7900865674,-3.890577793,2.968810081,4.9572841
20.3233117,-0.8906430602,-3.313575268,2.928108692,4.510747901
20.32831663,-1.103726983,-2.870647907,2.640804529,4.053724364
20.33329117,-1.532289028,-2.645592928,2.281674147,3.814853669
20.33829547,-1.826775908,-2.521094322,1.877054095,3.635431044
20.3433004,-1.915361404,-2.516305923,1.675941229,3.578992011
20.34830624,-2.006340981,-2.590526342,1.414973259,3.569086744
20.35331055,-2.106897593,-2.705447912,1.15400517,3.618037286
20.3583157,-2.217030764,-2.746149302,0.9002198577,3.642383448
20.36284247,-2.341529369,-2.803610086,0.8092401624,3.741371265
20.36829478,-2.705447912,-2.774879694,0.7086837292,3.939751052
20.37329917,-2.949656487,-2.832340717,0.7852981687,4.164050977
20.37830532,-3.189076662,-2.841917515,0.8020575643,4.34626293
20.38330932,-3.265691042,-2.832340717,0.7254431248,4.383281835
20.38831355,-3.172317266,-2.772485495,0.8403648138,4.296101218
20.3928407,-3.138798475,-2.71502471,0.9481038451,4.257031353
20.3982954,-2.999934673,-2.576161146,1.074996591,4.097783787
20.40329824,-2.849100113,-2.391807556,1.158793569,3.896269674
20.40830247,-2.794033289,-2.298433542,1.256955862,3.830059635
20.41330801,-2.710236311,-2.183511972,1.359906554,3.736636353
20.41831232,-2.561795712,-2.056619167,1.505952835,3.613913891
20.42284093,-2.394201756,-1.991975784,1.580173135,3.492437073
20.42829263,-2.190694571,-1.989581585,1.55862534,3.344680932
20.43329663,-1.850717902,-2.049436569,1.419761658,3.105007274
20.43830186,-1.697489023,-2.147598982,1.259350061,3.01323961
20.44285978,-1.604115129,-2.243366957,1.063025594,2.955656283
20.44783355,-1.632845521,-2.300827742,0.8355764151,2.942478672
20.45328624,-1.721431017,-2.360682964,0.4884171486,2.962212031
20.45829086,-1.798045516,-2.396595955,0.1771709323,3.001337933
20.46329578,-1.879448295,-2.466027737,-0.2370259613,3.109630203
20.4683007,-1.927332401,-2.588132143,-0.7733271718,3.318293701
20.47330493,-1.97042799,-2.810792685,-1.632845521,3.80122697
20.47831232,-1.89860189,-3.071760893,-2.466027737,4.372836255
20.4833154,-1.723825216,-3.411737442,-3.490746021,5.176565805
20.48784247,-1.472434044,-3.90254879,-4.766855717,6.334103133
20.49329386,-1.340752959,-4.704606533,-6.478709698,8.118166078
20.4982997,-1.079784989,-5.576095581,-8.07324791,9.870973071
20.50330463,-1.00317049,-6.612784863,-9.794678688,11.86048082
20.50830932,-1.034295082,-7.88171196,-11.29584408,13.81257554
20.51331386,-1.431732655,-9.583989143,-13.19923401,16.37444609
20.51828801,-1.939303398,-11.05163479,-14.01326275,17.9519097
20.52329363,-2.41574955,-12.56237602,-14.33648014,19.21415624
20.52829793,-2.621650934,-14.35802746,-14.34845066,20.46714544
20.53330347,-2.554613113,-17.42260551,-14.30056667,22.68434346
20.53830801,-2.209848166,-20.41775131,-14.89193439,25.36804501
20.54331324,-2.48996973,-23.47514725,-16.41464615,28.75279283
20.5482874,-3.165134668,-26.38889122,-22.42409325,34.77400775
20.55329232,-2.336740971,-28.44551086,-23.59485817,37.0314026
20.5582994,-1.862688899,-27.5261364,-19.84314346,33.9839394
20.56330278,-1.965639591,-24.72252655,-14.93502998,28.95033987
20.56830716,-1.096544385,-19.51034927,-10.79545593,22.32482939
20.5733124,-0.3734954596,-14.29098988,-9.478644371,17.15274292
20.57786955,0.5889736414,-8.887276649,-9.648633003,13.13113457
20.58329078,1.572990537,-4.302380562,-9.911994934,10.91935993
20.5878484,1.850717902,-0.940921247,-9.631873131,9.853094415
20.5933004,1.438915253,1.357512355,-8.161833763,8.398145466
20.5983047,0.7445967197,1.917755604,-6.677428722,6.987150004
20.60331078,-0.2992752194,1.446097851,-5.319916248,5.521075397
20.6083154,-2.164358377,-0.4884171486,-3.866635799,4.45801199
20.61284194,-3.620033026,-1.908178806,-2.748543501,4.929531097
20.61829509,-4.745307922,-4.359841347,-1.438915253,6.602775246
20.62329947,-5.485116005,-6.248866558,0.6081272364,8.336944859
20.6283047,-6.43082571,-8.492233276,4.106055737,11.4163584
20.63330955,-7.450755596,-10.44350815,6.236895561,14.26462364
20.63831694,-7.936778545,-12.65575027,6.902483463,16.45614617
20.64328932,-8.109161377,-15.05713463,5.779603004,18.05213595
20.6482927,-7.836222172,-18.10974121,2.123656988,19.84638566
20.65285078,-6.497863293,-20.49676132,-1.484405041,21.55325754
20.65785663,-4.75488472,-22.80716515,-4.551377296,23.73796002
20.6632767,-2.45166254,-24.62675858,-8.549694061,26.1836811
20.6683127,-0.5530605912,-24.72970963,-12.30380249,27.62694283
20.67328778,0.8810662031,-22.50070763,-12.6389904,25.82251343
20.67784532,0.7015010715,-18.66998482,-7.69017601,20.2039413
20.6832967,-0.9074024558,-12.76348972,3.107673883,13.1676758
20.68830216,-2.655169725,-8.698134422,6.631938934,11.25566892
20.6928597,-5.140350819,-5.825092793,5.291185856,9.399551071
20.69783424,-7.764396191,-3.672705412,2.138022184,8.851313581
20.70328655,-9.799467087,-1.939303398,-1.455674648,10.09502063
20.7082914,-9.63666153,-1.403002143,-1.513135433,9.855112343
20.71329578,-7.908048153,-1.59932673,0.988805294,8.128518161
20.71830247,-5.525817394,-2.389413357,3.318363667,6.874262978
20.72330524,-2.679111719,-3.897760391,4.639962673,6.625664441
20.72831078,-0.3543418646,-5.35104084,5.83466959,7.924806966
20.73286747,0.9193734527,-6.756437302,8.346187592,10.77745517
20.73828994,1.165976286,-7.908048153,11.27429581,13.82050912
20.74329478,-0.1987187415,-9.236829758,12.76348972,15.75643307
20.74785263,-1.096544385,-10.20648193,13.07234097,16.62109447
20.75285694,-1.125274777,-11.09712505,12.42830086,16.69955359
20.75783078,-0.825999558,-11.84890461,10.9343195,16.14429183
20.76328378,-0.3399766386,-12.82573891,8.305485725,15.28385605
20.76828863,0.2729389966,-13.67807388,5.659893036,14.8053568
20.77329301,1.165976286,-14.47055531,2.121262789,14.67161298
20.7782994,3.203441858,-15.26782417,-4.09408474,16.12854688
20.78330255,4.323928356,-15.68202114,-7.783549786,18.03346308
20.78830778,3.94085598,-15.33007336,-9.054870605,18.23546481
20.79331355,2.592920542,-14.54477501,-7.967903137,16.78574387
20.79828963,0.8714894056,-13.39795303,-5.367800236,14.45952692
20.80329209,-0.1221042871,-12.53364563,-3.41892004,12.99215904
20.80829694,-1.065419793,-11.6765213,-2.08295536,11.90860916
20.81330247,-1.750161409,-10.90798283,-1.094150186,11.10154579
20.81830594,-2.525882721,-10.14423275,-0.2346317619,10.45660527
20.82331201,-3.05021286,-9.591172218,-0.14844051,10.06560567
20.8283164,-3.706224203,-8.983044624,-0.2322375625,9.72034582
20.83329086,-4.46039772,-8.080430984,-0.6584054828,9.253216225
20.83829632,-5.463568211,-7.048529625,-0.9840168953,8.972214705
20.84330001,-6.011840343,-6.423643112,-1.216254473,8.881705359
20.84785855,-5.918466568,-6.10042572,-1.271321058,8.594166493
20.85283209,-5.896918774,-5.7963624,-1.170764685,8.351177045
20.85783755,-5.868188381,-5.463568211,-1.731007814,8.202597182
20.86328994,-5.183446884,-5.535394192,-2.171540976,7.888238122
20.86784747,-4.438849926,-5.693411827,-1.8579005,7.454536952
20.87285147,-3.476380825,-5.896918774,-1.283292055,6.964604308
20.87830678,-2.224213362,-6.236895561,-0.6679822803,6.655237911
20.88330963,-1.326387763,-6.50744009,-0.2513911724,6.645997182
20.88831478,-0.605733037,-6.749254704,0.0287304204,6.776442799
20.89284094,-0.05506663769,-6.979097843,-0.01675941236,6.979335206
20.89784563,0.4668693244,-7.177816868,-0.1460463107,7.194466727
20.90285109,1.019929886,-7.489062786,-0.4740519226,7.573047181
20.90830255,1.367089152,-7.762001991,-0.6871358752,7.911369248
20.91330809,1.642422318,-8.116343498,-0.85473001,8.324851124
20.9183127,1.824381709,-8.315062523,-0.988805294,8.570085722
20.92328778,1.927332401,-8.494627953,-1.158793569,8.787270155
20.92829209,1.879448295,-8.693346024,-1.314416766,8.990788754
20.93329701,1.764526606,-8.920795441,-1.414973259,9.203058989
20.93830163,1.606509328,-9.105149269,-1.355118155,9.344568511
20.94330624,1.345541358,-9.299078941,-1.15400517,9.466524105
20.94831232,0.8403648138,-9.447520256,-0.8403648138,9.521978
20.95331663,0.1651999205,-9.476250648,-0.4836287498,9.49002182
20.95829355,-0.3399766386,-9.442731857,-0.3399766386,9.454964472
20.96329609,-0.7900865674,-9.301473618,-0.2370259613,9.337977808
20.96830001,-1.082179189,-9.117119789,-0.1843535304,9.18297181
20.97330594,-1.259350061,-8.918401718,-0.07661445439,9.00720387
20.97831024,-1.340752959,-8.674192429,0.05267243832,8.777357642
20.98331509,-1.431732655,-8.386888504,-0.1053448766,8.50886918
20.98828986,-1.505952835,-8.044517517,-0.423773706,8.19522667
20.99284709,-1.55862534,-7.718906403,-0.8451532125,7.919918747
20.99785209,-1.565807939,-7.422025204,-1.357512355,7.705910226
21.00330409,-1.510741234,-7.319074631,-1.651999116,7.653776428
21.00786163,-1.369483352,-7.419631004,-1.910573006,7.783103372
21.0128357,-1.079784989,-7.711723804,-2.070984364,8.05764208
21.01784124,-0.6081272364,-8.319850922,-2.293645144,8.651621012
21.02284747,-0.2585737705,-8.901641846,-2.547430515,9.262585502
21.02785017,0.07422025502,-9.543288231,-2.97599268,9.996819061
21.03330255,0.457292527,-10.30703831,-3.596091032,10.92593364
21.03830863,0.7015010715,-10.82897472,-3.960009575,11.55164374
21.04331294,0.8906430602,-11.26950741,-4.106055737,12.02724973
21.04828832,1.022324085,-11.59990692,-3.763684988,12.23798643
21.0532927,0.8930372596,-11.68849277,-3.136404276,12.13488404
21.05829755,0.7517793179,-11.66455078,-2.497152328,11.95251801
21.06330247,0.6009446383,-11.50413895,-2.094926596,11.70876017
21.06786032,0.4189853072,-11.34372807,-1.989581585,11.52450216
21.07328224,0.1460463107,-11.16176796,-2.365471363,11.41060245
21.07828594,-0.1221042871,-11.07557678,-2.923320293,11.45552758
21.08329201,-0.174776718,-10.92713642,-3.596091032,11.50498709
21.0882954,0.1867477298,-11.11627865,-4.414907932,11.96235503
21.09330094,0.9002198577,-11.14500904,-4.572925091,12.08028419
21.09830563,1.833958507,-11.15458584,-4.235342979,12.07171567
21.10286378,2.815581083,-11.10191345,-3.325546265,11.92640923
21.10783724,3.684676409,-11.01572227,-2.111685991,11.80602368
21.11284247,4.606443882,-10.91277122,-0.5051765442,11.85593119
21.11829671,5.19781208,-10.9103775,0.6943184733,12.10519169
21.12329978,5.810727596,-11.07797146,1.577778935,12.60854445
21.12830401,6.114790916,-11.30542088,1.541865945,12.94529102
21.13286186,6.076483727,-11.6813097,0.962469101,13.20238606
21.1382834,5.698200226,-12.17451572,0.0023942017,13.44203573
21.14284186,5.142745018,-12.76109505,-1.168370485,13.80791305
21.14829294,4.261679173,-13.46499062,-2.557007313,14.35291497
21.15329847,3.330334663,-13.9151001,-3.531447411,14.73744416
21.15830309,2.205059767,-14.29817295,-4.216189384,15.06905077
21.1633074,0.7230489254,-14.73870564,-4.582501888,15.45158785
21.16831332,-0.4884171486,-14.92545319,-4.505887508,15.59842064
21.17328717,-1.654393315,-14.88475227,-4.359841347,15.59811155
21.17829201,-2.839523315,-14.63814926,-4.211400986,15.49432815
21.18329632,-3.950432777,-14.44421864,-4.05338335,15.51358397
21.18830186,-4.209006786,-14.44661331,-3.737348795,15.50445582
21.19330709,-3.924096584,-14.57590008,-3.248931646,15.44056197
21.19831363,-3.208230257,-14.90390587,-2.767697096,15.49449253
21.20328686,-2.118868589,-15.29655457,-1.939303398,15.56390322
21.2082924,-1.326387763,-15.60780048,-1.436521053,15.72979126
21.21329517,-0.7278373241,-15.71075153,-1.165976286,15.77076287
21.21830001,-0.4692635238,-15.53836918,-0.9983820915,15.57748028
21.22330532,-0.8020575643,-14.887146,-0.8475474119,14.9328078
21.22831017,-1.551442742,-14.2000103,-0.4884171486,14.292859
21.23286747,-2.458845139,-13.58230591,0.3016694188,13.8063738
21.23828986,-3.600879431,-13.28781986,1.465251446,13.84483482
21.24284771,-4.029441357,-13.29260826,2.221819162,14.0664961
21.2483004,-4.259284973,-13.65892029,3.294421434,14.6819898
21.25330494,-4.649539471,-13.9055233,3.991134167,15.19575426
21.25830901,-5.669469833,-14.02762794,4.34787035,15.74233815
21.26331355,-6.696582317,-13.96298409,4.441244125,16.11005241
21.26784124,-7.838616371,-13.84327412,4.122815132,16.4340424
21.27329355,-8.604761124,-13.73074722,3.129221678,16.50355603
21.27830094,-9.519346237,-13.77144814,1.26413846,16.78894823
21.28330378,-9.856928825,-14.12339592,-0.5267243981,17.23098363
21.28786009,-9.315838814,-14.62378407,-2.030282974,17.45743286
21.29328317,-8.480262756,-15.181633,-2.940079689,17.63635182
21.29828648,-7.709329605,-15.8352499,-3.596091032,17.97556044
21.30329209,-7.340622425,-16.11776543,-4.027047157,18.1627148
21.30829701,-6.91684866,-16.18959236,-4.122815132,18.08157352
21.31330132,-6.612784863,-15.91425896,-3.818751812,17.65149929
21.31830686,-6.31590414,-15.26303577,-3.222595453,16.82961757
21.32286409,-5.305551052,-14.7985611,-2.767697096,15.96265735
21.32783909,-4.156333923,-14.21916389,-2.588132143,15.03855583
21.33329117,-3.294421434,-13.45780754,-2.466027737,14.07292042
21.33829632,-1.570596337,-13.06755257,-1.012747288,13.20050605
21.3433007,0.02394201607,-13.08670616,0.1460463107,13.08754297
21.34830594,1.211466074,-13.03164005,2.178723574,13.26793612
21.35331048,3.155557871,-13.34288597,3.823540211,14.2341003
21.35831724,4.517858505,-13.26627159,2.264914751,14.19629692
21.36329017,5.106832027,-13.02206326,0.8714894056,14.01475503
21.36829424,5.193023682,-12.78503704,-0.03830722719,13.79949762
21.37329978,4.881777287,-12.30619717,-0.4501099288,13.24676704
21.37830432,4.369418144,-11.83693314,0.04309562966,12.61771208
21.38330863,3.526659012,-11.25993061,0.6272808313,11.81595711
21.38831424,2.365471363,-10.56321812,1.051054597,10.87574124
21.39328863,1.139639974,-9.514557838,1.520318031,9.702420164
21.39784501,0.5626373887,-8.863334656,1.711854219,9.044650735
21.40329855,0.01675941236,-7.939172745,1.900996208,8.16361019
21.4083034,-0.5961562395,-7.127538681,2.121262789,7.460359625
21.41286094,-1.290474772,-6.275202751,2.355894566,6.825960292
21.41783478,-1.881842494,-5.523423195,2.695871115,6.427850032
21.4228404,-2.138022184,-4.738125324,2.774879694,5.892446671
21.42829201,-2.257732153,-4.228160381,2.580949545,5.443895227
21.43284986,-2.540247917,-3.881000996,2.19308877,5.130756919
21.43830463,-2.767697096,-3.464409828,1.829170108,4.796680723
21.44285917,-2.774879694,-3.244143248,1.752555609,4.614745268
21.44783332,-2.801215887,-3.038241863,1.654393315,4.451375215
21.45283786,-2.79163909,-2.916137695,1.63763392,4.356483986
21.45829109,-2.741360903,-2.844311714,1.520318031,4.232792889
21.46329571,-2.796427488,-2.774879694,1.321599364,4.15530852
21.46830032,-3.009511471,-2.726995707,1.199495077,4.234672752
21.47330617,-3.251325846,-2.616862535,1.118092179,4.320789211
21.47786309,-3.41892004,-2.571372509,1.125274777,4.42348439
21.48283732,-3.488351822,-2.592920542,1.256955862,4.52457439
21.48784224,-3.557783842,-2.607285738,1.37666595,4.620711409
21.49329417,-3.56496644,-2.592920542,1.44849205,4.64008102
21.49785209,-3.538630009,-2.624045134,1.441309452,4.635179407
21.50330409,-3.562572241,-2.693476915,1.48679924,4.707155282
21.50830932,-3.325546265,-2.726995707,1.462857246,4.542655046
21.51331448,-3.186682463,-2.679111719,1.501164436,4.425616272
21.51828955,-3.074155092,-2.671929121,1.55862534,4.361071853
21.52329455,-3.004723072,-2.631227732,1.520318031,4.273533319
21.52829824,-2.913743496,-2.628833532,1.429338455,4.17656262
21.53285571,-2.736572504,-2.612074137,1.271321058,3.990992057
21.53783017,-2.571372509,-2.631227732,1.127668977,3.847980415
21.54283424,-2.446874142,-2.726995707,0.8978256583,3.77223933
21.5482874,-2.310404539,-2.865859509,0.6081272364,3.731077404
21.55284409,-2.245761156,-2.947262287,0.349553436,3.721825596
21.55784932,-2.296039343,-3.004723072,-0.1053448766,3.783021933
21.56285486,-2.372653961,-3.064578056,-0.6799532771,3.934903041
21.5682764,-2.41335535,-3.193865061,-1.570596337,4.300212893
21.5733114,-2.351106167,-3.38061285,-2.391807556,4.762035997
21.57831601,-2.219424963,-3.646369219,-3.203441858,5.337030578
21.5832914,-1.802833915,-3.97916317,-4.283226967,6.118004814
21.58829601,-1.335964561,-4.458003521,-5.442020416,7.16059934
21.59330001,-0.9050082564,-4.850652695,-6.830657482,8.426491153
21.59786009,-0.5554547906,-5.264849663,-8.164227486,9.730456435
21.60328101,-0.3782838583,-6.071695328,-9.646238327,11.40431921
21.60786809,-0.3184288144,-6.624756336,-10.57997704,12.48698152
21.61328986,-0.2896983922,-7.773972988,-12.45942593,14.68863083
21.61829478,-0.7110779285,-8.82263279,-13.71159267,16.32030192
21.6232994,-1.958456993,-10.3214035,-14.29098988,17.73694776
21.62830432,-3.179499865,-11.64539719,-12.79461384,17.59052695
21.63330963,-4.072536945,-13.06994724,-10.26154804,17.10872428
21.63831355,-4.812345505,-14.86559868,-8.269572258,17.67853271
21.64328809,-6.701370716,-17.64766121,-7.656657219,20.3708791
21.64829355,-7.848193169,-19.74019241,-10.51054573,23.7010739
21.65329763,-8.116343498,-21.96201134,-14.82489681,27.71249789
21.65830309,-7.149086475,-23.65231895,-18.26775932,30.72869441
21.66330771,-4.630385876,-23.9515934,-18.5311203,30.63530185
21.66786586,-1.446097851,-22.62759972,-15.95017147,27.7219667
21.67328748,1.474828243,-19.77610588,-13.16810894,23.80480152
21.67829394,3.354276657,-15.8400383,-11.41076565,19.80816897
21.68329763,4.446032524,-10.11789608,-11.19768143,15.73299385
21.68830278,4.939238071,-6.320692539,-12.15057373,14.55965895
21.69330678,5.133168221,-3.7181952,-12.89517021,14.36870928
21.69831117,4.46279192,-1.865083098,-12.08592987,13.01786263
21.7033164,3.82593441,-1.436521053,-10.40759468,11.18120717
21.70829178,2.626439333,-2.279279947,-8.803479195,9.465439587
21.71329548,0.8810662031,-4.118026733,-7.505822182,8.606496875
21.71830001,-1.996764183,-6.68461132,-5.544970989,8.911666454
21.72285878,-3.591302633,-8.293514252,-4.089296341,9.919787186
21.72827971,-5.497087002,-11.07557678,-0.5482721925,12.37687234
21.7328684,-7.110779285,-13.5128746,2.693476915,15.50534682
21.73784186,-8.566453934,-16.08664131,4.778826714,18.84147941
21.74329355,-9.40681839,-19.31881332,5.346252441,22.14242976
21.7478524,-8.614337921,-21.76568794,4.30956316,23.80177145
21.75330471,-6.742072105,-23.73372078,1.826775908,24.74029403
21.75831055,-4.587290287,-25.03377342,-1.41257906,25.48977096
21.76286624,-2.477998734,-24.23171616,-3.42131424,24.59719368
21.76828901,-1.268926859,-20.82955551,-3.830722809,21.2168564
21.77329294,-0.7948749661,-16.45295334,-3.53384161,16.84694442
21.77829763,-1.766920805,-10.86728191,0.4070142806,11.01750816
21.78330317,-4.230554581,-6.442796707,5.626373768,9.542709429
21.78830748,-6.409277916,-3.289633036,6.028599739,9.393856701
21.79331324,-9.366117477,-1.59693253,3.282450438,10.05230476
21.7982874,-11.85129833,-0.3375824392,-3.217807055,12.28501186
21.80329201,-12.89756489,0.07661445439,-7.570465565,14.95543375
21.80829732,-11.45864964,0.02633621916,-5.552153587,12.73293974
21.81330163,-8.044517517,-0.8379706144,0.672770679,8.115976665
21.81830709,-5.549759388,-2.015917778,3.859453201,7.054015365
21.82331178,-3.323152065,-3.643975019,5.133168221,7.118378296
21.82831694,-1.309628367,-5.657498837,6.830657482,8.965506187
21.83329117,0.3543418646,-7.867346764,12.02607536,14.37522841
21.83829732,-0.1675941199,-9.17697525,15.46414852,17.98290444
21.84330071,-1.745373011,-10.29027843,16.8910923,19.85560768
21.84830586,-2.633621931,-11.27908421,16.68997955,20.3152436
21.85331109,-2.925714493,-12.42351246,14.7841959,19.53140844
21.85831571,-2.865859509,-13.28303146,12.61983681,18.54487413
21.86328932,-2.482787132,-14.06114674,10.29985619,17.60588302
21.86784717,-1.589749932,-14.95418358,7.58722496,16.84401656
21.87330001,1.127668977,-16.30451393,0.7350199223,16.35998368
21.8783044,4.824316502,-17.53992081,-9.765948296,20.64695129
21.88330955,7.405265808,-18.35155678,-15.88792229,25.37801553
21.88831417,7.410054207,-18.15523148,-15.52639771,25.01180439
21.89328832,5.327098846,-16.78096008,-10.30703831,20.40131471
21.89829363,4.448426723,-15.06192303,-5.686229229,16.70279104
21.90329855,3.646369219,-13.66370869,-2.097320795,14.29656246
21.9083034,2.978386879,-12.50730991,-0.624886632,12.87222098
21.91330802,2.540247917,-11.32936287,0.004788403399,11.61065655
21.91831478,1.570596337,-10.50815105,0.2466027737,10.62773844
21.9232884,0.4357447028,-9.581595421,0.3351882398,9.597353563
21.92829263,-1.07739079,-8.549694061,0.9672574997,8.671425865
21.93329702,-2.00873518,-7.472303391,1.690306425,7.9200676
21.93785486,-2.760514498,-6.7612257,0.9457096457,7.364032862
21.94327602,-3.655946016,-6.138733387,-0.05027823523,7.145104392
21.94831232,-4.65193367,-5.5042696,-0.9289502501,7.2663897
21.95331609,-4.711789131,-5.207388878,-0.8379706144,7.072485454
21.95829109,-5.121197224,-4.819528103,-1.237802267,7.140494842
21.96329486,-4.999093056,-4.807557106,-1.479616642,7.091741825
21.96830063,-4.644751072,-5.046977043,-1.742978811,7.076981343
21.97330502,-3.962403774,-5.374982834,-1.766920805,6.907466487
21.97831055,-2.966415882,-5.829881191,-1.59693253,6.733300186
21.98331486,-1.905784607,-6.256049156,-1.467645645,6.702548004
21.98828924,-1.017535686,-6.715735912,-1.436521053,6.942627777
21.99284809,-0.6296750307,-7.065289021,-1.45088625,7.240156801
21.99785355,-0.3878606856,-7.412448406,-1.462857246,7.565367051
22.00285725,-0.107739076,-7.7284832,-1.482010841,7.870032809
22.0078314,0.09337386489,-8.07324791,-1.458068848,8.204389999
22.0128364,0.3184288144,-8.480262756,-1.510741234,8.619663126
22.01828863,0.3351882398,-8.719682693,-1.522712231,8.857983403
22.02329363,0.390254885,-8.906430244,-1.474828243,9.036145025
22.02785055,0.3327940404,-8.992621422,-1.259350061,9.086470959
22.03330371,0.1651999205,-9.107542992,-1.113303781,9.176822744
22.03830832,0.01675941236,-9.15063858,-1.00317049,9.205477627
22.04331232,-0.2705447972,-9.040505409,-0.8619126081,9.085528377
22.04828832,-0.5841852427,-8.863334656,-0.7733271718,8.916165573
22.0532914,-1.015141487,-8.616731644,-0.6392518282,8.699840192
22.05829725,-1.359906554,-8.327033043,-0.3519476354,8.444684261
22.06330248,-1.647210717,-7.977479935,0.05027823523,8.145920277
22.06830678,-1.826775908,-7.76679039,0.05985504389,7.978955183
22.07331148,-1.922544003,-7.58722496,-0.009576806799,7.82702049
22.07831794,-1.910573006,-7.364564419,-0.1580173075,7.609997882
22.08329209,-1.786074519,-7.302315235,-0.3687070608,7.526607129
22.08829548,-1.577778935,-7.426813602,-0.5698199868,7.61391105
22.09330071,-1.400607944,-7.639897823,-0.758961916,7.804214538
22.09830555,-1.206677675,-7.852981567,-1.00556469,8.008529881
22.10331078,-0.940921247,-8.224082947,-1.551442742,8.421867233
22.10786832,-0.653617084,-8.549694061,-2.140416384,8.837752323
22.11284255,-0.390254885,-8.901641846,-2.760514498,9.328020514
22.11784717,-0.08140286058,-9.349357605,-3.277662039,9.907582071
22.12329948,0.3471592367,-9.904812813,-3.655946016,10.56370095
22.1283044,0.6033388376,-10.30464458,-3.809175014,11.00270567
22.13330902,0.8786720037,-10.61828423,-3.854664803,11.33042211
22.13831417,1.26413846,-10.88404083,-3.689464808,11.5616842
22.14328778,1.589749932,-11.09473038,-3.263296843,11.67345079
22.14784678,1.886630893,-11.10430717,-2.698265314,11.5821263
22.15329817,2.068590164,-11.09473038,-1.908178806,11.44610212
22.15830555,2.245761156,-11.08036518,-1.007958889,11.35050293
22.16330771,2.408566952,-11.0133276,-0.8571242094,11.30615945
22.16831332,2.470816135,-10.93671322,-1.352723956,11.29364824
22.17328748,2.463633537,-10.9151659,-2.195482969,11.40309091
22.1782924,2.379836559,-10.97741508,-3.148375273,11.66531315
22.18329671,2.322375536,-11.04924107,-3.476380825,11.81373692
22.18830186,2.255337954,-11.11149025,-3.256114244,11.79635727
22.19330648,2.329558372,-11.18331623,-2.832340717,11.76926328
22.19831202,2.437297344,-11.36767006,-2.092532396,11.81283339
22.20331663,2.578555346,-11.55441761,-1.534683347,11.93770359
22.20829117,2.679111719,-11.85608673,-1.213860273,12.21547743
22.21329578,2.806004286,-12.25352383,-1.034295082,12.61317853
22.21830125,2.930502892,-12.74672985,-1.072602391,13.12316444
22.22285886,2.947262287,-13.14895535,-1.33835876,13.54151342
22.22783202,2.829946518,-13.41471195,-1.640028119,13.8077075
22.23328563,2.703053713,-13.6254015,-2.133233786,14.05378069
22.23784317,2.461239338,-13.77384281,-2.671929121,14.24484644
22.24329609,1.841141105,-13.85763931,-3.514688015,14.41447189
22.24829978,1.144428372,-13.9246769,-4.127603531,14.56857762
22.25330494,0.2082955539,-13.99650288,-4.654327869,14.75155069
22.25830932,-0.4381389022,-14.05156994,-4.979939461,14.91436826
22.26331363,-0.9457096457,-14.06354046,-5.224148273,15.03227402
22.26828871,-1.15400517,-14.08030033,-5.233725071,15.06580444
22.27329394,-1.132457376,-14.04917526,-4.75249052,14.87440592
22.27829763,-1.039083481,-13.99410915,-4.137180328,14.62979995
22.28330317,-0.8212111592,-13.95101357,-3.366247654,14.37486663
22.28830778,-0.3471592367,-14.09227085,-2.652775526,14.34398255
22.29331394,0.586579442,-14.35563374,-1.972822189,14.50242472
22.2982874,1.204283476,-14.35802746,-1.37666595,14.47406164
22.30329263,1.319205165,-14.19761562,-0.8978256583,14.28701097
22.30829786,0.9768342972,-13.85524559,-0.4860229492,13.89813851
22.31285425,0.3184288144,-13.44583702,0.3327940404,13.45372372
22.31783078,-0.4692635238,-13.20162773,1.881842494,13.3433322
22.32328255,-1.44849205,-13.56315231,3.653551817,14.12110728
22.32828709,-2.149993181,-14.16888523,4.436455727,15.00206382
22.33329048,-2.710236311,-15.09304714,4.580107689,16.00383827
22.33829609,-3.315969467,-15.67483807,4.915296078,16.75876897
22.3433004,-4.082113743,-16.14888954,5.640739441,17.58602364
22.34830594,-5.401319027,-16.40506935,5.951985359,18.26818758
22.35331025,-7.374141216,-16.50323296,5.137956619,18.79184011
22.35831509,-8.927978516,-16.4984436,3.782838583,19.1368051
22.36284278,-10.48181534,-16.62294197,2.195482969,19.77399297
22.36829425,-11.70046329,-16.97728348,0.3184288144,20.62111521
22.3732994,-11.8872118,-17.53513336,-2.188300371,21.29730887
22.37830402,-11.71243477,-17.97566605,-3.655946016,21.7639987
22.38330925,-11.44907284,-18.22226906,-4.513070107,21.98863707
22.38831425,-11.31499767,-18.27972984,-5.566518784,22.2072922
22.39328832,-11.20965195,-18.13128853,-5.858611584,22.10708597
22.39829548,-10.83855152,-17.65963173,-5.521028996,21.44338017
22.40329763,-10.0269165,-16.85278511,-4.879383087,20.20801326
22.4083034,-8.829815865,-15.63413715,-4.041412354,18.40448061
22.41330778,-7.960720539,-14.45379543,-3.246537447,16.81741001
22.41831271,-6.751648903,-13.48414421,-2.22900176,15.24386292
22.42328748,-5.087678432,-12.5456171,-0.9720458984,13.57283513
22.42829179,-3.265691042,-11.72679996,2.11647439,12.35564807
22.43329694,-1.355118155,-12.12423706,6.629544735,13.88467979
22.43830248,1.924938202,-12.74672985,8.334216118,15.35068947
22.44330717,4.50109911,-13.03164005,5.518634796,14.85055102
22.44831232,5.805939198,-12.99333286,1.601720929,14.32135255
22.45331609,6.291962147,-12.84249783,-1.106121182,14.34371089
22.45829086,6.473921299,-12.58152962,-1.788468719,14.26201826
22.46329571,6.485892296,-12.36365795,-1.472434044,14.03904907
22.46830132,5.571307182,-11.80341434,-0.3399766386,13.05663196
22.47330594,4.596867085,-11.04924107,0.2394201756,11.96972168
22.47831202,3.402160645,-9.988609314,0.6607996821,10.57277964
22.4833154,2.087743998,-8.506598473,1.242590666,8.846746528
22.48828994,1.199495077,-7.237671852,1.838746905,7.563310946
22.49329517,0.4118026793,-6.057330132,2.303221941,6.49350915
22.49829948,-0.3136404157,-4.955997467,2.41574955,5.522329861
22.50330471,-0.9816226959,-3.857059002,2.779668093,4.854589784
22.50830894,-1.30005157,-3.155557871,2.801215887,4.415256505
22.51286655,-1.685518026,-2.647987127,2.296039343,3.889036321
22.5182884,-1.927332401,-2.293645144,1.948880196,3.574010667
22.52329263,-2.051830769,-2.054224968,1.687912226,3.358406974
22.52829825,-2.176329374,-1.920149803,1.628057122,3.32775522
22.53330309,-2.576161146,-1.867477298,1.470039845,3.505009965
22.53786032,-2.97599268,-1.764526606,1.395819545,3.730737028
22.54328286,-3.105279684,-1.663970232,1.41018486,3.794756934
22.54784071,-3.268085241,-1.63523972,1.493981838,3.94795793
22.55329171,-3.337517262,-1.666364431,1.592144132,4.05594808
22.5582994,-3.320757866,-1.675941229,1.477222443,4.002299083
22.56330163,-3.34469986,-1.707065821,1.443703651,4.023104659
22.56830648,-3.284844637,-1.721431017,1.369483352,3.953354738
22.57331117,-3.289633036,-1.769315004,1.381454349,3.982534019
22.57831663,-3.201047659,-1.651999116,1.424550056,3.873648159
22.58329117,-3.215412855,-1.577778935,1.532289028,3.895661159
22.5882954,-3.19865346,-1.539471745,1.584961534,3.88760341
22.59330071,-3.141192675,-1.532289028,1.683123827,3.87916317
22.59830617,-2.877830505,-1.59932673,1.752555609,3.729772857
22.60331086,-2.56897831,-1.668758631,1.733402014,3.519813555
22.60831486,-2.262520552,-1.735796213,1.63763392,3.288439234
22.61328956,-1.980004787,-1.78368032,1.52510643,3.070485966
22.61784678,-1.841141105,-1.824381709,1.417367458,2.954166498
22.62285171,-1.807622313,-1.853112102,1.261744261,2.879847473
22.62785663,-1.893813491,-1.853112102,1.07739079,2.860301542
22.6332794,-2.011129379,-1.838746905,0.8667010069,2.859510832
22.63831548,-2.106897593,-1.941697598,0.215478152,2.873262581
22.64328863,-2.178723574,-2.059013367,-0.4716577232,3.034605981
22.64829417,-2.073378563,-2.298433542,-1.108515382,3.287932749
22.65329848,-1.800439715,-2.609679937,-1.908178806,3.700426854
22.6583034,-1.352723956,-3.251325846,-3.090914488,4.685587928
22.6633084,-1.034295082,-3.871424198,-4.209006786,5.811491183
22.66831302,-0.8355764151,-4.625597477,-5.398924828,7.158402703
22.67328717,-0.7996633649,-5.415684223,-6.665457726,8.625394124
22.6782924,-1.177947283,-6.313509941,-8.185775757,10.40456113
22.6832964,-1.915361404,-7.144298077,-9.504981041,12.04384776
22.68830217,-2.671929121,-8.075642586,-11.42034245,14.24006425
22.69330617,-3.253720045,-9.090784073,-14.01805115,17.02159826
22.69786502,-3.296815634,-10.25675964,-14.91108799,18.39594131
22.70328586,-3.100491285,-12.30380249,-14.54716969,19.30328334
22.70784379,-3.131615877,-14.69321537,-13.69004536,20.3252291
22.71329548,-2.803610086,-18.86870384,-12.8401041,22.99470564
22.71830309,-3.134010077,-22.36184311,-13.04600525,26.07819586
22.72330563,-3.883395195,-25.56049728,-16.82405472,30.8458846
22.72786348,-3.658340216,-28.30904007,-24.74168015,37.77480561
22.73283756,-1.333570361,-29.45347023,-23.31952477,37.59103023
22.73828994,0.1149216816,-27.53331947,-16.45534897,32.07608763
22.74284679,0.3806780577,-23.83427811,-12.29901409,26.82318915
22.74829886,0.3543418646,-18.82081985,-10.0317049,21.33035212
22.75330494,0.7709329724,-11.6669445,-9.797073364,15.25432982
22.75830863,1.343147159,-6.775590897,-10.66137981,12.70345212
22.76331356,1.285686255,-3.155557871,-10.63743782,11.16985309
22.76828871,0.6081272364,-0.7326257229,-9.397241592,9.445353817
22.77329332,-0.940921247,0.1987187415,-7.659051418,7.719189761
22.77829825,-2.518700123,-0.7350199223,-6.457161903,6.969866888
22.78330317,-4.161122322,-2.667140722,-5.753266811,7.584764836
22.78830863,-5.923254967,-4.967968464,-4.474762917,8.932478
22.7933124,-8.463502884,-7.987056732,-2.195482969,11.84247026
22.79828894,-9.931148529,-10.39801788,-0.3974374831,14.38417337
22.80329325,-10.89840603,-12.83052731,2.49236393,17.01791888
22.80829732,-11.6023016,-15.4713316,4.778826714,19.92015784
22.81330217,-10.88404083,-19.11530685,4.254496574,22.40442015
22.8183074,-9.02374649,-22.27325821,0.8858546019,24.04809286
22.82331209,-6.124367714,-24.89730263,-1.403002143,25.67784985
22.82831694,-3.53384161,-25.10559845,-2.983175278,25.52799336
22.83329117,-0.1604115069,-22.2325573,-4.115632534,22.61085507
22.83829486,2.873042107,-18.71547508,-4.541800499,19.4718086
22.8433004,3.651157618,-14.61181259,-1.630451322,15.14907227
22.84830556,1.537077546,-8.257601738,7.84340477,11.49215351
22.85331056,-1.149216771,-4.345476151,10.79066753,11.68941265
22.85786809,-3.552995205,-2.183511972,8.38928318,9.368648341
22.86328986,-5.623979568,-1.089361787,3.392583847,6.657738388
22.86829456,-7.565677166,-0.4716577232,-3.066972494,8.177301038
22.87330063,-7.58722496,-0.7086837292,-3.708618402,8.474790008
22.87830594,-6.567295074,-1.534683347,-1.127668977,6.837854553
22.88330925,-4.929661274,-2.767697096,1.70946002,5.90626456
22.88786656,-3.002328873,-4.27125597,4.046200752,6.605251452
22.89328809,-0.9002198577,-6.406883717,7.220912457,9.695366494
22.89829356,-0.3687070608,-8.015787125,9.84974575,12.70457711
22.90285056,-1.458068848,-9.351752281,11.6717329,15.02699519
22.90830279,-2.841917515,-10.77630138,12.41393566,16.68265462
22.91330833,-3.531447411,-11.75553036,11.78904915,17.01896867
22.9183124,-3.41892004,-12.53364563,10.67335129,16.81373589
22.9232874,-1.996764183,-13.47217274,8.698134422,16.15995198
22.92829209,-0.8906430602,-14.71476364,6.897695065,16.27561708
22.93329725,0.2920926213,-15.52879238,4.5394063,16.18131393
22.93830248,1.977610588,-16.2039566,0.7637503147,16.34204601
22.94330679,4.108449936,-16.73786354,-6.088454723,18.27853161
22.94831171,4.261679173,-16.527174,-9.33020401,19.45153198
22.95331725,3.193865061,-15.66286755,-9.476250648,18.58293626
22.95829333,2.061407566,-14.42745972,-7.644686222,16.45728478
22.9632954,1.259350061,-12.94066048,-5.130774021,13.97753548
22.96830009,0.9385270476,-11.8967886,-3.406949043,12.41054849
22.97330617,0.5698199868,-10.9055891,-2.296039343,11.1592278
22.97831056,0.2035071403,-10.08677197,-1.508347034,10.20095557
22.98286871,-0.4596867263,-9.378087997,-1.048660398,9.447726446
22.98828932,-1.364694953,-8.595184326,-0.8355764151,8.742869887
22.99329479,-1.9321208,-8.049305916,-0.8331822157,8.319772179
22.9982994,-2.707842112,-7.481880188,-0.4309563041,7.968479365
23.00330502,-3.658340216,-6.811503887,-0.4477157295,7.744707077
23.00830925,-4.335899353,-6.426037312,-0.787692368,7.791946996
23.01331448,-4.510675907,-6.31590414,-1.254561663,7.861982397
23.01828894,-4.345476151,-6.301538944,-1.534683347,7.806907776
23.02329294,-3.663128614,-6.576871872,-1.56101954,7.688337718
23.0282994,-2.738966703,-6.754043102,-1.223437071,7.390252709
23.03285571,-2.219424963,-6.907271862,-1.199495077,7.353573293
23.03783209,-1.881842494,-7.022193432,-1.321599364,7.389124214
23.04328286,-1.218648672,-7.115567684,-1.30005157,7.335294278
23.04828802,-0.517147541,-7.24724865,-1.328781962,7.386184135
23.05284563,0.05985504389,-7.407660007,-1.56101954,7.570587257
23.05829702,0.5434837937,-7.563282967,-1.848323703,7.804801367
23.06330286,0.9074024558,-7.776367188,-2.001552582,8.080933027
23.06830686,1.168370485,-7.965508938,-1.994369984,8.294090297
23.07331171,1.326387763,-8.157045364,-1.841141105,8.466787711
23.07831609,1.553836942,-8.367734909,-1.513135433,8.64424523
23.08329086,1.661576033,-8.520963669,-1.218648672,8.766570672
23.0882954,1.690306425,-8.611943245,-1.034295082,8.836994318
23.09330125,1.549048543,-8.702922821,-0.9002198577,8.885426991
23.09830594,1.235408068,-8.736441612,-0.6775590777,8.849335085
23.10331056,0.8810662031,-8.817844391,-0.624886632,8.883757125
23.10831602,0.4788403511,-8.839392662,-0.6224924326,8.874212503
23.11328963,0.1221042871,-8.755595207,-0.5482721925,8.773594434
23.11829756,-0.2968810201,-8.573636055,-0.3280056417,8.58504288
23.12329979,-0.739808321,-8.374917984,-0.2466027737,8.411146207
23.1283044,-1.233013868,-8.090007782,-0.383072257,8.192392414
23.13331056,-1.764526606,-7.694964409,-0.7948749661,7.934598768
23.13831417,-1.982398987,-7.369352818,-1.07739079,7.707012236
23.14328802,-2.109291792,-7.094019413,-1.060631394,7.476574232
23.14829394,-2.188300371,-6.91445446,-1.000776291,7.321194724
23.15285109,-2.195482969,-6.873753071,-0.9097966552,7.272988155
23.15830317,-2.042253971,-7.010222435,-0.8619126081,7.352340662
23.16330802,-1.891419291,-7.218518257,-0.9313444495,7.520098088
23.16831271,-1.731007814,-7.489062786,-1.039083481,7.756425978
23.17328717,-1.37427175,-7.857769966,-1.343147159,8.089327288
23.17829148,-1.046266198,-8.226476669,-1.647210717,8.454755732
23.18285048,-0.7829039693,-8.564059258,-2.068590164,8.845061609
23.18830286,-0.5770025849,-8.904036522,-2.506729126,9.268143788
23.19330656,-0.2777273953,-9.370905876,-2.93768549,9.824510445
23.19831394,-0.01197100803,-9.703699112,-3.150769472,10.20241481
23.20328625,0.2178723514,-9.947908401,-3.251325846,10.46802129
23.20829056,0.4309563041,-10.16578007,-3.318363667,10.70235232
23.2132964,0.5674257874,-10.29746151,-3.210624456,10.80128673
23.2183004,0.691924274,-10.37886429,-3.007117271,10.82785008
23.22330625,0.7829039693,-10.52730465,-2.700659513,10.89635919
23.22831025,0.8044517636,-10.68771648,-2.30561614,10.96313331
23.2333151,0.806845963,-11.00614548,-2.152387381,11.24362086
23.238145,0.9313444495,-11.21922874,-2.37744236,11.50611699
23.24351146,1.110909581,-11.41794777,-2.887407303,11.82965647
23.24830062,1.417367458,-11.53526402,-3.363853455,12.09903949
23.25330308,1.678335428,-11.58554173,-3.622427225,12.25412444
23.25830708,1.956062794,-11.51132202,-3.318363667,12.1387089
23.26331354,2.336740971,-11.41076565,-2.746149302,11.96692387
23.26828777,2.746149302,-11.35330486,-2.070984364,11.8628767
23.27329169,3.299209833,-11.35091019,-1.22583127,11.88404855
23.27829916,3.734954596,-11.50413895,-0.5961562395,12.10993398
23.28330339,4.089296341,-11.80580902,-0.1221042871,12.49457405
23.28830716,4.38617754,-12.19366932,-0.0287304204,12.95858597
23.29331146,4.515464306,-12.6294136,-0.1556231081,13.41326673
23.29828554,4.493916512,-13.15853214,-0.7278373241,13.92379262
23.30329139,4.180276394,-13.5224514,-1.522712231,14.2355209
23.308297,3.703830004,-13.77623653,-2.396595955,14.46536283
23.31330031,2.999934673,-14.01326275,-3.179499865,14.67924931
23.318305,1.774103403,-14.32690334,-3.79241538,14.92615211
23.32331116,0.653617084,-14.56632328,-3.993528366,15.11797797
23.32828531,-0.6009446383,-14.61660099,-4.197035789,15.21910866
23.33329023,-1.8579005,-14.54716969,-4.288015366,15.27936569
23.33829446,-2.964021683,-14.37239265,-4.01747036,15.21483366
23.34329969,-3.203441858,-14.24550056,-3.318363667,14.97357217
23.34830492,-3.093308687,-14.31014347,-2.932897091,14.93153208
23.35330869,-2.772485495,-14.55914021,-2.688688517,15.06267856
23.35831508,-2.281674147,-14.82729149,-2.535459518,15.2145708
23.36328992,-1.371877551,-15.13614273,-2.262520552,15.36567161
23.36829362,-0.8690952063,-15.09783554,-1.807622313,15.23047809
23.37329877,-0.9816226959,-14.72912884,-1.146822572,14.80628317
23.37830369,-1.371877551,-14.27901936,-0.423773706,14.35102874
23.38330892,-2.284068346,-13.71638107,0.7038952708,13.92305809
23.38831292,-3.177105665,-13.33091545,1.515529633,13.78782569
23.39328831,-3.706224203,-13.68046856,2.051830769,14.32135913
23.39829231,-3.924096584,-14.30535507,2.686294317,15.07507529
23.40329792,-4.314351559,-14.72912884,3.493140221,15.74048583
23.40785477,-5.023035049,-14.92305946,4.307168961,16.324224
23.41327669,-6.473921299,-14.91587639,5.008669853,17.01416466
23.41831177,-7.553706169,-14.86559868,5.291185856,17.4940318
23.42328716,-8.492233276,-14.85123348,4.776432514,17.76207954
23.42829139,-9.615114212,-14.85123348,3.059789658,17.95471721
23.43329577,-10.55842972,-15.00206757,1.017535686,18.37329171
23.43830254,-10.7284174,-15.50724411,-1.254561663,18.89834608
23.44285977,-10.24718285,-16.12255478,-2.964021683,19.33201887
23.44828008,-9.629479408,-16.68997955,-3.991134167,19.67768897
23.45283731,-9.03571701,-17.05389786,-4.532223701,19.82474882
23.45829054,-8.425195694,-17.10178185,-4.924872875,19.69033361
23.463297,-7.838616371,-16.80729675,-4.90571928,19.18320131
23.46829946,-7.395689011,-16.13213158,-4.596867085,18.33229588
23.473304,-6.402095318,-15.16487312,-4.098873138,16.96351857
23.47830839,-4.86980629,-14.5040741,-3.821146011,15.76972845
23.48331516,-4.058171749,-13.6301899,-3.869029999,14.73839298
23.48828831,-3.339911461,-13.05318737,-2.53067112,13.70930361
23.49329416,-1.41257906,-12.90235329,0.8523358107,13.00740467
23.49829885,1.467645645,-13.18726254,4.819528103,14.11685971
23.50330408,3.191470861,-13.40752983,5.27442646,14.75692776
23.50830746,4.702212334,-13.43147182,3.047818661,14.55350249
23.51331292,5.628767967,-13.42668343,0.6512228847,14.57336433
23.51828954,5.829881191,-13.30218506,-0.9696516991,14.55595639
23.52329262,5.118803024,-12.99812126,-1.091755986,14.01232428
23.52829762,4.42448473,-12.53125191,-0.2035071403,13.29096515
23.53330154,3.770867586,-11.91354752,0.390254885,12.50217404
23.53830654,2.966415882,-11.08036518,0.7469909191,11.49487326
23.54286554,2.102109194,-10.19211674,1.261744261,10.48284814
23.54784,1.273715258,-9.430760384,1.824381709,9.689683204
23.5528437,0.3327940404,-8.178592682,2.056619167,8.439775621
23.5578477,-0.5123591423,-6.993463039,2.33913517,7.39206267
23.56285331,-1.18752408,-5.904101372,2.521094322,6.528747432
23.56785877,-1.59932673,-5.001487255,2.592920542,5.856275069
23.57328093,-2.145204782,-4.134786129,2.880224705,5.476682777
23.57828531,-2.659958124,-3.500322819,3.01190567,5.329091182
23.58329016,-2.841917515,-2.947262287,2.760514498,4.937943949
23.58829446,-3.066972494,-2.537853718,1.980004787,4.446059011
23.59285146,-3.318363667,-2.406172752,1.56101954,4.386112942
23.59830716,-3.409343243,-2.389413357,1.386242747,4.388004842
23.6033117,-3.303998232,-2.394201756,1.209071875,4.255638749
23.60831331,-3.409343243,-2.197877169,0.9169792533,4.158742159
23.612841,-3.368641853,-2.217030764,0.7685387731,4.105316698
23.61784554,-3.339911461,-2.372653961,0.6584054828,4.149456972
23.62329854,-3.260902643,-2.463633537,0.624886632,4.134423727
23.62830285,-3.05021286,-2.564189911,0.8092401624,4.066169946
23.63330746,-2.8969841,-2.806004286,1.146822572,4.193015495
23.63831323,-2.56897831,-2.93768549,1.158793569,4.070927183
23.64328831,-2.485181332,-2.918531895,1.204283476,4.01799121
23.64829231,-2.698265314,-2.832340717,1.268926859,4.11253754
23.653297,-2.990357876,-2.748543501,1.48679924,4.325194051
23.65830162,-3.136404276,-2.602497339,1.584961534,4.37288546
23.663308,-3.239354849,-2.45166254,1.738190413,4.418752647
23.6683127,-3.260902643,-2.363077164,1.833958507,4.425045032
23.67328562,-3.095702887,-2.327163935,1.89860189,4.313207331
23.67829239,-2.913743496,-2.387019157,1.836352706,4.190459745
23.68329785,-2.681505919,-2.444479942,1.702277422,4.007955165
23.68785385,-2.418143749,-2.525882721,1.537077546,3.819700262
23.69327446,-2.238578558,-2.621650934,1.41257906,3.725542535
23.69831046,-2.138022184,-2.71263051,1.149216771,3.640082737
23.70331631,-2.161964178,-2.724601507,0.8834604025,3.588599276
23.70828931,-2.284068346,-2.765302896,0.5219359994,3.6244014
23.71329423,-2.49236393,-2.755726099,0.05506663769,3.716037759
23.71829939,-2.645592928,-2.798821688,-0.5889736414,3.896081972
23.72330562,-2.717418909,-2.930502892,-1.288080573,4.198971813
23.72830931,-2.628833532,-3.129221678,-2.099714994,4.594735804
23.73331393,-2.437297344,-3.438073635,-3.035847664,5.193952224
23.7382887,-2.147598982,-3.857059002,-4.180276394,6.079785873
23.74329508,-1.790862918,-4.563348293,-6.133944988,7.852172868
23.74829846,-1.56101954,-5.394136429,-7.924807549,9.712675455
23.75330254,-1.331176162,-6.380547523,-9.806650162,11.77513499
23.75830954,-1.18752408,-7.508216381,-11.60469532,13.87272432
23.76331331,-1.079784989,-9.03571701,-14.19761562,16.86364157
23.76828685,-1.048660398,-10.37647057,-15.27021885,18.4919013
23.77329262,-1.15161097,-11.74116516,-14.4944973,18.68881
23.77829731,-1.297657371,-13.11783123,-12.73715305,18.33020673
23.78330277,-1.889025092,-14.89911747,-11.16895103,18.71623852
23.78830654,-3.040636063,-18.03312683,-9.821015358,20.75792556
23.792865,-4.288015366,-20.13284302,-9.940725327,22.85905649
23.79828716,-5.437232018,-23.25488091,-12.79940224,27.09571323
23.80329146,-6.524199486,-25.18460846,-19.9939785,32.81141354
23.80784862,-6.112396717,-26.27396965,-24.64351845,36.53745854
23.81330039,-4.529829502,-25.37374878,-21.10009956,33.31006881
23.81830531,-2.480392933,-22.47197723,-16.13213158,27.77386864
23.82331208,-0.720654726,-17.91820526,-12.59110641,21.91158104
23.82828554,0.7757213712,-12.29901409,-10.45308495,16.15965582
23.83328931,2.552218914,-5.853823185,-9.99100399,11.85753887
23.838296,3.521870613,-2.188300371,-10.14662647,10.96112494
23.8433,3.536235809,-0.07900865376,-9.488221169,10.12608251
23.84785693,2.662352324,0.6368576288,-7.809885979,8.275749303
23.85327885,0.3687070608,-0.9433154464,-5.781997204,5.870032418
23.85831446,-1.810016513,-3.100491285,-4.57771349,5.817616933
23.86328985,-3.739742994,-5.27682066,-3.143586874,7.191150977
23.86829354,-5.032611847,-7.568071365,-1.197100878,9.167111688
23.87329846,-6.179434776,-10.00058079,1.498770237,11.8508794
23.878304,-7.864952564,-13.13459015,4.57531929,15.97837551
23.88330962,-8.568847656,-15.67244434,5.410895824,18.66355956
23.88831323,-8.808267593,-18.23423958,4.510675907,20.74654834
23.89328654,-7.905653954,-20.62844276,2.585737944,22.24225834
23.8982917,-5.829881191,-23.32670784,-1.587355733,24.09652489
23.90329816,-3.409343243,-24.56690407,-3.507505417,25.04913154
23.90830162,-0.4118026793,-23.50387764,-4.912901878,24.01537946
23.91330654,2.418143749,-20.52309608,-5.125985622,21.29132736
23.91786585,2.964021683,-17.04432106,-4.984727859,18.00393892
23.92328716,1.161187768,-11.88002872,1.199495077,11.99675906
23.92784377,-1.18991828,-7.699752808,6.363788128,10.05981601
23.93329577,-3.622427225,-4.723760128,5.956773758,8.42134445
23.93830062,-5.870582581,-2.911349297,2.834734917,7.139707039
23.94330623,-8.611943245,-1.290474772,-1.678335428,8.868353929
23.94831139,-9.378087997,-0.5793967843,-3.394978046,9.990501041
23.953316,-8.540117264,-0.6081272364,-1.424550056,8.679444941
23.95829016,-6.756437302,-1.352723956,2.171540976,7.22460361
23.96329539,-4.556165695,-2.578555346,4.774038315,7.085127758
23.9683,-3.016694069,-4.352658749,6.327875137,8.251550463
23.973304,-1.704671621,-5.832275391,8.379706383,10.35088502
23.978309,-1.233013868,-7.422025204,10.91755962,13.25895507
23.98331516,-2.525882721,-8.779537201,12.8592577,15.77405672
23.98828862,-3.323152065,-10.36689377,13.80017853,17.57727947
23.99329323,-3.531447411,-11.37964058,12.95502567,17.6011372
23.9982997,-3.19865346,-12.27746677,11.65736771,17.22967777
24.0033047,-2.535459518,-13.02924538,10.11310768,16.68726272
24.00830839,-1.462857246,-13.8073616,7.656657219,15.85583758
24.01331239,-0.05985504389,-14.91587639,4.635174274,15.6195964
24.01828685,2.126051188,-15.91665268,-0.6512228847,16.07121705
24.0232927,5.116408825,-16.86715126,-8.128314972,19.40999575
24.02829731,6.227318764,-17.13290787,-11.5975132,21.60597934
24.03330254,4.948814869,-16.33803177,-10.74996567,20.17383981
24.03830777,3.596091032,-14.98770237,-8.025363922,17.37727134
24.04331262,2.724601507,-13.59188271,-5.252878666,14.82415135
24.04828677,2.126051188,-12.33971596,-3.181894064,12.91948658
24.05329023,1.508347034,-11.30542088,-1.654393315,11.52495853
24.0582957,0.7852981687,-10.3357687,-1.079784989,10.42164783
24.06330193,0.02154781483,-9.658209801,-0.758961916,9.68800826
24.06830593,-0.6153098345,-8.901641846,-0.05027823523,8.923024243
24.07331085,-1.702277422,-8.03494072,0.0287304204,8.213333442
24.078317,-3.134010077,-7.115567684,-0.3447650373,7.782813473
24.08329077,-3.447650433,-6.770802498,-0.9193734527,7.653450693
24.08829546,-3.749319792,-6.490680695,-1.089361787,7.57449958
24.09285108,-4.46039772,-6.038176537,-1.091755986,7.58595115
24.09785693,-4.809951305,-5.626373768,-1.472434044,7.547170023
24.10328008,-4.532223701,-5.513846397,-2.00873518,7.41475359
24.10831447,-4.225766182,-5.561730385,-1.972822189,7.258234778
24.11328962,-3.541024208,-5.777208805,-1.668758631,6.978520573
24.11829231,-2.67432332,-6.098031521,-1.41257906,6.806862218
24.12329916,-1.467645645,-6.459556103,-1.328781962,6.756146112
24.12830377,-0.6488286853,-6.7636199,-1.331176162,6.923840176
24.13330808,-0.05027823523,-7.115567684,-1.343147159,7.241400117
24.13831239,0.3016694188,-7.496245384,-1.340752959,7.621175618
24.14328839,0.5722141862,-8.013393402,-1.149216771,8.115577742
24.148292,0.6320692301,-8.331821442,-1.051054597,8.421607674
24.15329762,0.5722141862,-8.616731644,-0.9792284966,8.69105182
24.15830347,0.6631938815,-8.813055992,-0.7254431248,8.867696982
24.16330747,0.739808321,-8.983044624,-0.3543418646,9.020419349
24.168312,0.6607996821,-9.165003777,-0.1292868853,9.189704323
24.17328646,0.4405331016,-9.126696587,-0.04070143029,9.137413015
24.17784285,0.117315881,-9.026140213,0.02633621916,9.026940997
24.18329608,-0.3375824392,-8.882488251,0.09337386489,8.889391324
24.18830131,-1.012747288,-8.583212852,0.08619125932,8.643183955
24.19330524,-1.515529633,-8.307879448,-0.08379705995,8.445395961
24.19831085,-1.939303398,-8.046912193,-0.3974374831,8.28683595
24.20331693,-2.348711967,-7.857769966,-0.6416460276,8.226342223
24.20829116,-2.664746523,-7.659051418,-0.8140285611,8.150127923
24.21329477,-2.837129116,-7.575253963,-0.9457096457,8.144209045
24.21829939,-2.829946518,-7.520187378,-0.9241618514,8.088009064
24.22330531,-2.719813108,-7.558494568,-0.8571242094,8.078544757
24.228309,-2.473210335,-7.603984833,-0.8619126081,8.042403126
24.23331454,-2.090138197,-7.788338184,-0.9481038451,8.119469826
24.23829077,-1.697489023,-8.025363922,-1.113303781,8.278126622
24.24329446,-1.242590666,-8.444349289,-1.37427175,8.64521193
24.24829854,-0.7972691655,-8.971074104,-1.683123827,9.162353111
24.25330339,-0.3399766386,-9.442731857,-2.001552582,9.658518612
24.25786131,-0.1436520964,-9.883264542,-2.281674147,10.14423929
24.26328346,0.09576806426,-10.29267311,-2.643198729,10.62707819
24.2682877,0.2011129409,-10.52491093,-2.8993783,10.9188182
24.273292,0.2226607651,-10.57040024,-3.11964488,11.02338982
24.27784931,0.2226607651,-10.48420906,-3.258508444,10.98117001
24.28285508,0.215478152,-10.37647057,-3.263296843,10.87964515
24.28782931,0.1556231081,-10.32858658,-3.052607059,10.77136617
24.29283362,0.1005564705,-10.41477776,-2.681505919,10.75491429
24.29783854,0.07422025502,-10.43393135,-2.200271368,10.66365914
24.30329177,0.181959331,-10.45787334,-1.776497602,10.60924916
24.308296,0.4429273009,-10.32379818,-2.027888775,10.5304001
24.3133,0.7852981687,-10.30703831,-2.592920542,10.65715576
24.31830716,1.221042871,-10.38844109,-3.153163671,10.92488421
24.32331177,1.994369984,-10.54166985,-3.38300705,11.24940227
24.32783793,2.485181332,-10.70208168,-3.208230257,11.44567254
24.33329016,3.23456645,-11.04445267,-2.341529369,11.74415236
24.33829485,3.845088005,-11.31020927,-1.323993564,12.01908876
24.34330131,4.469974518,-11.6118784,-0.1939303428,12.44403476
24.34830524,4.766855717,-12.00692177,0.3591302633,12.92354666
24.35330808,4.94642067,-12.2798605,0.517147541,13.24875439
24.35786708,4.965574265,-12.52167511,0.5027823448,13.47969085
24.36328954,4.75488472,-12.71799946,0.1867477298,13.57907632
24.3682927,4.165910721,-12.82813263,-0.2585737705,13.49009486
24.37329785,3.555389643,-12.91432381,-0.8044517636,13.41893057
24.37830277,2.942473888,-13.02206326,-1.55862534,13.44104151
24.38330993,2.200271368,-13.14656162,-2.298433542,13.52612558
24.38831231,0.988805294,-13.38119316,-3.270479441,13.81050695
24.3932877,-0.2130839527,-13.6206131,-4.005499363,14.19896232
24.39829508,-1.484405041,-13.73553562,-4.764461517,14.61398271
24.40329816,-2.564189911,-13.86242771,-5.291185856,15.05784247
24.40830193,-3.203441858,-14.09945393,-5.511452198,15.47361451
24.41330677,-3.339911461,-14.46576691,-4.898536682,15.63358828
24.41831147,-2.916137695,-14.67406178,-3.64158082,15.39782643
24.42328624,-2.257732153,-15.02840424,-2.683900118,15.43222629
24.42784462,-1.391031146,-15.40189934,-2.08295536,15.60423577
24.43284839,-0.5889736414,-15.67004967,-1.654393315,15.76814395
24.43785354,0.1340752989,-15.78736591,-1.352723956,15.84578054
24.44330624,0.6560112834,-15.51442719,-0.988805294,15.55974092
24.44831054,0.5841852427,-14.8679924,-0.605733037,14.89178911
24.45331485,0.141257897,-14.16170311,-0.3136404157,14.1658801
24.45829024,-0.8020575643,-13.44823074,0.1268926859,13.4727246
24.4632957,-1.647210717,-13.2423296,0.7158663273,13.36357216
24.46830031,-2.640804529,-13.37879944,1.649604917,13.73635029
24.47330493,-3.521870613,-13.83369732,2.506729126,14.49339315
24.47831108,-4.405331135,-14.44661331,3.459621429,15.4945332
24.48331516,-5.434837818,-14.70997524,4.005499363,16.18532851
24.48828831,-6.64869833,-14.86559868,4.395754337,16.86753894
24.49329454,-7.69257021,-15.07149982,4.106055737,17.41222091
24.49829847,-8.544905663,-15.25824738,2.942473888,17.73380045
24.50330439,-9.454702377,-15.65568447,1.18752408,18.32763124
24.50830893,-10.08677197,-16.17043877,-0.1915361285,19.0594529
24.51286554,-10.08916569,-16.70195198,-1.522712231,19.57204938
24.51784039,-9.847352028,-17.13769531,-2.432508945,19.91451838
24.52329331,-9.514557838,-17.31007767,-3.055001259,19.98746188
24.52829793,-9.169792175,-17.1664257,-3.433285236,19.76255822
24.53330193,-8.805873871,-16.80729675,-3.706224203,19.33299606
24.53830624,-8.185775757,-16.23029327,-3.969586372,18.60610009
24.543312,-6.993463039,-15.50006199,-3.689464808,17.40036199
24.54828593,-5.71974802,-14.37957573,-3.847482204,15.94649914
24.55329077,-4.90571928,-13.27584839,-4.228160381,14.77130909
24.55829824,-4.230554581,-12.40435886,-3.325546265,13.52127837
24.56330224,-3.040636063,-11.9662199,-1.537077546,12.44180428
24.56830647,-1.134851575,-11.70046329,1.838746905,11.89830743
24.57331054,0.4764461517,-11.57596493,4.663905144,12.48927444
24.57831477,2.090138197,-11.41315937,5.473145008,12.82903741
24.58329077,3.744531393,-11.34612179,3.8642416,12.55740252
24.58829485,4.118026733,-11.20486355,1.984793186,12.1015088
24.5932997,4.01747036,-10.9055891,0.316034615,11.62634163
24.59785731,3.689464808,-10.62786102,-0.1963245422,11.25176092
24.60328031,3.481169224,-10.39322948,0.1388636976,10.96161673
24.60831485,3.01429987,-10.0460701,0.5722141862,10.50414
24.61328893,2.152387381,-9.531316757,1.046266198,9.827178818
24.61829354,1.386242747,-9.10036087,1.192312479,9.282232812
24.62329847,0.586579442,-8.607154846,1.55862534,8.766784071
24.62830339,-0.1292868853,-7.817068577,1.900996208,8.045934552
24.63330831,-0.8786720037,-6.971915245,2.334346771,7.404649993
24.63831516,-1.326387763,-5.894524574,2.554613113,6.559784494
24.64328777,-1.752555609,-5.063736439,2.71502471,6.007015653
24.64829239,-2.212242365,-4.390965939,2.770091295,5.643403578
24.65329693,-2.662352324,-3.849876404,2.595314741,5.352132923
24.65830193,-3.088520288,-3.356670856,2.013523579,4.986027879
24.66330839,-3.05021286,-3.126827478,1.685518026,4.682074283
24.66831116,-2.760514498,-3.215412855,1.716642618,4.572327854
24.67328647,-2.482787132,-3.347094059,1.381454349,4.390408489
24.67829147,-2.394201756,-3.512293816,1.012747288,4.369675842
24.682849,-2.408566952,-3.550601006,0.8906430602,4.381918224
24.68830101,-2.597708941,-3.404554844,0.7733271718,4.351680174
24.69330501,-2.628833532,-3.38061285,0.7445967197,4.34669222
24.69831054,-2.659958124,-3.404554844,0.6823474765,4.374010629
24.7033167,-2.710236311,-3.423708439,0.6033388376,4.408080998
24.70829047,-2.669534922,-3.473986626,0.5770025849,4.41904195
24.71329424,-2.645592928,-3.469198227,0.6488286853,4.410836309
24.71830254,-2.698265314,-3.459621429,0.7445967197,4.450173077
24.72330554,-2.85867691,-3.371036053,0.8619126081,4.503200094
24.72830924,-2.997540474,-3.296815634,1.022324085,4.571584928
24.73331424,-3.071760893,-3.201047659,1.15161097,4.583517091
24.73828924,-3.165134668,-2.997540474,1.276109457,4.542222111
24.74329424,-3.174711466,-2.870647907,1.331176162,4.482347853
24.74829854,-3.026270866,-2.801215887,1.381454349,4.348970214
24.75330277,-2.85867691,-2.806004286,1.292868972,4.209180907
24.75830839,-2.626439333,-2.863465309,1.125274777,4.045226875
24.76331385,-2.367865562,-2.928108692,0.8906430602,3.869606297
24.7682887,-2.056619167,-3.071760893,0.7134721279,3.76489573
24.77329301,-1.874659896,-3.256114244,0.5530605912,3.797697423
24.77829701,-1.848323703,-3.399766445,0.2585737705,3.878346656
24.78330224,-1.848323703,-3.399766445,0.2585737705,3.878346656
24.78830839,-2.173935175,-3.505111217,-0.9121908545,4.224202995
24.793312,-2.281674147,-3.505111217,-1.45088625,4.426840009
24.79828839,-2.427720547,-3.545812607,-2.159569979,4.809402935
24.8032917,-2.422932148,-3.636792421,-3.047818661,5.327856783
24.80829608,-2.22900176,-3.811569214,-4.335899353,6.188419178
24.8133007,-1.900996208,-4.041412354,-5.295974255,6.927780575
24.81830554,-1.508347034,-4.381389141,-6.445190907,7.938020371
24.82331147,-1.165976286,-4.797980309,-7.575253963,9.042377362
24.82831485,-0.7829039693,-5.453991413,-8.77235508,10.35920724
24.83328924,-0.653617084,-6.088454723,-9.59835434,11.38529324
24.83829454,-0.8451532125,-6.806715488,-10.67813969,12.69126971
24.84329947,-1.027112484,-7.730877399,-11.71961689,14.0773167
24.8483047,-1.106121182,-9.078812599,-12.56237602,15.5390358
24.8533087,-0.9576807022,-10.24239445,-12.35647488,16.07813011
24.85831416,-1.125274777,-11.88002872,-11.82735634,16.8014191
24.86284124,-1.59693253,-14.06354046,-10.92713642,17.88115416
24.86829354,-2.224213362,-17.4800663,-9.706093788,20.11735816
24.87329847,-3.066972494,-20.55182648,-10.69011021,23.36797698
24.87785754,-3.576937437,-23.87497902,-14.49210262,28.15723962
24.88327793,-3.722983599,-27.01617241,-18.68674469,33.05947074
24.88786501,-2.889801502,-28.39762688,-17.89665794,33.69074844
24.8932877,-2.329558372,-27.11912346,-14.50646782,30.8433349
24.89829301,-2.631227732,-24.51902008,-12.46421432,27.63082235
24.90284924,-2.099714994,-20.85110283,-11.81059742,24.0555088
24.90830216,-1.335964561,-15.15050793,-11.98297977,19.3627089
24.91285947,-0.6631938815,-9.962273598,-12.35168648,15.88240788
24.91828093,0.117315881,-5.487510204,-12.02846909,13.22159596
24.9228397,0.1939303428,-2.178723574,-10.68053341,10.90221259
24.92829078,-0.3399766386,-0.0023942017,-8.633491516,8.640183193
24.93329578,-1.130063176,0.1891419291,-7.400477409,7.488650301
24.93785385,-2.63601613,-0.7278373241,-6.105214119,6.689691147
24.94327508,-4.922478676,-2.882618904,-4.738125324,7.415532324
24.94830985,-6.730101109,-5.032611847,-3.167528868,8.98079518
24.9533157,-8.049305916,-7.395689011,-1.556231141,11.04125885
24.95829116,-8.690952301,-9.710882187,0.538695395,13.0431621
24.96329454,-9.703699112,-12.61265469,3.768473387,16.35366095
24.96829885,-10.07480049,-15.01643276,5.109226227,18.79093001
24.97330408,-9.715670586,-17.49443245,4.568136692,20.52601507
24.97830931,-8.312667847,-19.9149704,1.948880196,21.66805544
24.98331454,-4.5370121,-22.68745613,-1.611297727,23.19270197
24.98828839,-1.668758631,-23.69541359,-3.438073635,24.00161934
24.99329239,1.235408068,-22.27325821,-4.637568474,22.78445316
24.99785178,3.722983599,-19.39064026,-4.072536945,20.16043387
25.00285601,3.938461781,-15.79215431,-3.162740469,16.58030598
25.00782985,2.274491549,-10.88882923,0.5434837937,11.13711311
25.01283539,0.174776718,-6.890512466,5.595249176,8.87786699
25.01783978,-1.958456993,-3.936067581,7.802703381,8.956023774
25.02329201,-4.264073372,-2.068590164,5.901707172,7.569117157
25.02784893,-6.033388138,-1.304839969,2.602497339,6.699057558
25.03330224,-7.601590633,-0.895431459,-1.058237195,7.72695565
25.03786031,-8.228871346,-0.8834604025,-2.499546528,8.645377884
25.04283416,-7.603984833,-1.470039845,-0.6009446383,7.768058763
25.04828562,-6.148310184,-2.667140722,2.346317768,7.100743963
25.05329116,-4.733336926,-3.97676897,3.713406801,7.211696053
25.05829601,-2.664746523,-6.181828976,5.025429249,8.400644181
25.06330031,-1.843535304,-8.099584579,6.912060261,10.80640874
25.06830562,-2.403778553,-9.643844604,8.971074104,13.38887825
25.07331054,-2.710236311,-10.84094524,10.58955383,15.39513316
25.07831601,-2.212242365,-11.90875912,10.97262669,16.34353378
25.08328985,-1.551442742,-12.59350109,9.979032516,16.14262476
25.08829447,-0.691924274,-13.30697346,8.609549522,15.8643829
25.09285301,0.2466027737,-14.11860752,6.696582317,15.62818307
25.09830431,1.56101954,-15.03079796,3.327940464,15.47374735
25.10330954,2.803610086,-15.62216568,-0.2059013397,15.87308053
25.10831424,3.892971992,-15.94059467,-4.05338335,16.90229884
25.11328831,4.067748547,-15.7514534,-6.787561893,17.62741782
25.11829393,3.452438831,-14.96854877,-8.118738174,17.37500204
25.1232997,2.748543501,-13.95101357,-7.644686222,16.1439307
25.12785631,2.152387381,-12.8592577,-6.445190907,14.54420042
25.13327754,1.67115283,-11.82975101,-4.632780075,12.81399282
25.13831239,1.031900883,-10.65419769,-3.768473387,11.34804563
25.14328716,0.1867477298,-9.813833237,-2.815581083,10.21144918
25.14829201,-0.5650315881,-9.174580574,-1.884236693,9.383098493
25.15284931,-1.477222443,-8.609549522,-1.048660398,8.798080345
25.15785447,-2.195482969,-7.941566944,-0.3687070608,8.247701249
25.16327608,-3.306392431,-7.134721279,-0.1340752989,7.864760316
25.16831147,-3.97676897,-6.730101109,-0.4022258818,7.827562714
25.17328562,-4.529829502,-6.505045891,-0.5147533417,7.943547593
25.17829078,-4.443638325,-6.423643112,-0.3974374831,7.820937856
25.18329608,-4.218583584,-6.438008308,-0.1963245422,7.699541659
25.18830008,-4.120420933,-6.382941723,-0.3184288144,7.604025948
25.19330524,-3.861847401,-6.428431511,-0.6631938815,7.528507366
25.19831208,-3.385401249,-6.689399719,-0.8571242094,7.546103109
25.20328531,-2.798821688,-6.976703644,-0.9672574997,7.579141353
25.20828901,-2.04464817,-7.302315235,-0.962469101,7.644000308
25.21329416,-1.233013868,-7.814674377,-1.089361787,7.985998242
25.21829916,-0.6392518282,-8.204929352,-1.209071875,8.318134609
25.22285662,-0.2035071403,-8.599972725,-1.283292055,8.697573485
25.22827908,0.2226607651,-8.83699894,-1.304839969,8.935588141
25.23331447,0.4213795066,-9.078812599,-1.422155857,9.199180734
25.23828778,0.4764461517,-9.234436035,-1.537077546,9.373602147
25.24329331,0.5770025849,-9.313444138,-1.616086125,9.470211616
25.24829878,0.5626373887,-9.399636269,-1.663970232,9.562349071
25.2533037,0.4070142806,-9.351752281,-1.673547029,9.509032076
25.25786124,0.1771709323,-9.239224434,-1.647210717,9.386584087
25.26328224,0.1125274822,-9.069235802,-1.675941229,9.223474371
25.26828708,-0.07661445439,-8.817844391,-1.862688899,9.012760921
25.27284555,-0.3327940404,-8.638279915,-1.987187386,8.870149123
25.27785078,-0.7110779285,-8.36294651,-2.066195965,8.64370707
25.28330247,-1.079784989,-8.137891769,-1.982398987,8.445183469
25.28830747,-1.458068848,-7.908048153,-1.74776721,8.229087469
25.29331108,-1.685518026,-7.706935406,-1.434126854,8.01838788
25.29828593,-1.716642618,-7.620744228,-1.15161097,7.896126411
25.30329085,-1.78368032,-7.47469759,-0.806845963,7.726811758
25.30829601,-1.726219416,-7.393294811,-0.4141969085,7.603433482
25.31285393,-1.580173135,-7.390900612,-0.1101332754,7.558735895
25.31827454,-1.419761658,-7.410054207,0.1628057212,7.546597393
25.32331108,-1.268926859,-7.479485989,0.4213795066,7.598055456
25.3278677,-1.177947283,-7.671022415,0.7062895298,7.793009021
25.33328955,-1.043871999,-7.989450932,1.04147768,8.124387404
25.33829485,-0.9121908545,-8.24802494,1.194706678,8.383873307
25.3432997,-0.7781155705,-8.482656479,0.8858546019,8.564208262
25.3478567,-0.7445967197,-8.650250435,0.4644751251,8.694653185
25.35327908,-0.7254431248,-8.743624687,-0.356736064,8.780916867
25.35831547,-0.7038952708,-8.829815865,-1.213860273,8.94061371
25.36328839,-0.55784899,-8.939949036,-2.391807556,9.271171859
25.36829331,-0.2633621991,-8.978256226,-3.208230257,9.537881624
25.37329854,0.06943184882,-9.071630478,-3.730166197,9.808844996
25.37830347,0.3758896589,-9.133879662,-3.790021181,9.896126073
25.38286001,0.6967126727,-9.236829758,-3.53384161,9.914255849
25.38828285,0.940921247,-9.490615845,-3.031059265,10.0072195
25.39328685,1.086967587,-9.746794701,-2.659958124,10.16153939
25.39829208,1.168370485,-9.967061996,-2.461239338,10.33272053
25.40329701,1.22822547,-10.25675964,-2.281674147,10.57902137
25.40830131,1.345541358,-10.55364132,-2.200271368,10.86420824
25.41285939,1.565807939,-10.82179165,-2.190694571,11.15177437
25.41828124,1.817199111,-11.00135708,-2.183511972,11.36220906
25.42328562,2.130839586,-11.16655636,-2.202665567,11.57947295
25.42829108,2.446874142,-11.13782597,-2.138022184,11.60213339
25.4328487,2.705447912,-11.04684639,-2.025494576,11.55226782
25.43830193,2.760514498,-10.95107841,-1.879448295,11.44896871
25.44330655,2.873042107,-10.94150162,-1.63523972,11.42999727
25.44831055,2.868253708,-11.12346077,-1.472434044,11.58129185
25.45331578,2.856282711,-11.46104336,-1.539471745,11.91150028
25.45829016,2.865859509,-11.87045193,-1.74776721,12.3359422
25.46329447,2.906560898,-12.44745445,-1.915361404,12.92500785
25.46829978,2.894589901,-12.87841129,-2.178723574,13.37830201
25.47285724,2.829946518,-13.29021358,-2.468421936,13.81055688
25.47783108,2.633621931,-13.67089176,-3.007117271,14.24331423
25.48328408,2.205059767,-14.12578964,-3.684676409,14.76404626
25.4882887,1.613691926,-14.39154625,-4.209006786,15.08099278
25.49284562,0.962469101,-14.55195808,-4.709394932,15.3252808
25.49829793,0.2130839527,-14.59505367,-5.202600479,15.49606557
25.50330308,-0.3016694188,-14.57111168,-5.458779812,15.56298741
25.50830801,-0.5746083856,-14.46816063,-5.288791656,15.41522507
25.51331293,-0.5434837937,-14.36999893,-4.735731125,15.13999317
25.51828985,-0.1843535304,-14.38915253,-4.122815132,14.96927858
25.52329208,0.2418143749,-14.49689102,-3.615244627,14.94283498
25.52829724,0.605733037,-14.71476364,-3.34230566,15.101728
25.53330216,1.185129881,-15.01403904,-3.354276657,15.42974637
25.53830678,1.443703651,-15.10023022,-2.784456491,15.42252997
25.54331208,0.9935936928,-14.91827106,-2.207453966,15.11340111
25.54828593,0.2561795712,-14.63575459,-1.774103403,14.74511387
25.55329085,-0.3543418646,-14.31493187,-1.218648672,14.37107989
25.5582957,-1.441309452,-14.02762794,0.2178723514,14.10316231
25.56330101,-2.63841033,-13.94383049,1.295263171,14.25023945
25.56830501,-3.280056238,-14.35323906,2.032677174,14.86290742
25.57331055,-3.502717018,-15.22472858,3.131615877,15.93324841
25.57831485,-3.600879431,-15.77300072,4.082113743,16.6858484
25.58328993,-3.897760391,-16.00284386,4.745307922,17.14063869
25.58784747,-4.510675907,-16.04354477,5.082890034,17.42346972
25.59285147,-5.592854977,-15.91904736,5.35343504,17.70184629
25.59786008,-6.758831501,-15.7370882,5.176264286,17.89221787
25.60283178,-8.525752068,-15.52400398,3.878606796,18.13082289
25.6078357,-9.823410034,-15.42105293,2.255337954,18.42267102
25.61284132,-10.88643551,-15.70117474,0.2585737705,19.10780538
25.61784593,-10.91755962,-16.2039566,-1.719036818,19.61418888
25.6228517,-10.26154804,-16.72110558,-3.138798475,19.86823585
25.6278557,-9.236829758,-16.86954498,-3.385401249,19.52847955
25.63327732,-8.135497093,-16.69237518,-3.706224203,18.93562252
25.63786685,-7.402871609,-16.27817726,-4.118026733,18.35046885
25.64328716,-6.715735912,-15.73948193,-4.151545525,17.60874017
25.6482917,-5.57848978,-15.10501862,-3.706224203,16.52323314
25.65284893,-5.298368454,-14.15212631,-3.560178041,15.52514912
25.65785447,-4.596867085,-13.19683933,-2.504334927,14.19716341
25.66282924,-2.734178305,-13.10107136,-0.8403648138,13.40969853
25.66828155,-0.9792284966,-12.8496809,1.185129881,12.94131835
25.67328524,1.824381709,-13.08910084,3.131615877,13.58160327
25.67829085,3.126827478,-12.89038181,1.683123827,13.37056092
25.68329608,3.751713991,-12.58631802,0.316034615,13.13737557
25.68830062,4.247313976,-12.37323475,-0.2322375625,13.0839806
25.69330493,4.630385876,-12.12423706,-0.05985504389,12.97848914
25.69831047,4.477157116,-11.76510715,0.2849099934,12.59141993
25.70331547,4.039018154,-11.29584408,0.3974374831,12.00282124
25.70829016,3.639186621,-10.74038887,0.8595184088,11.37270435
25.71329508,2.736572504,-10.07480049,1.048660398,10.49238403
25.71785239,1.814804912,-9.255983353,1.209071875,9.509395327
25.72285639,1.165976286,-8.499416351,1.649604917,8.736176246
25.72827916,0.691924274,-7.76679039,2.178723574,8.096210754
25.73331362,0.05027823523,-7.058106422,2.288856745,7.420125293
25.73828839,-0.6488286853,-6.291962147,2.149993181,6.680736262
25.74329301,-1.108515382,-5.446808815,2.04704237,5.923420894
25.74829855,-1.810016513,-4.61362648,2.04704237,5.362097681
25.75285601,-2.061407566,-4.029441357,1.948880196,4.927873052
25.75828008,-2.281674147,-3.593696833,1.742978811,4.599855321
25.76331232,-2.475604534,-3.299209833,1.429338455,4.365365019
25.76828708,-2.63841033,-3.088520288,1.230619669,4.244359953
25.77284501,-2.37744236,-3.100491285,1.568202138,4.21005182
25.77829755,-2.240972757,-3.172317266,1.405396342,4.130459371
25.78330101,-2.506729126,-3.205836058,0.8690952063,4.161298141
25.78830685,-2.853888512,-3.210624456,0.5554547906,4.331433834
25.79331178,-3.263296843,-3.201047659,0.3878606856,4.587619024
25.79828585,-3.588908434,-3.201047659,0.282515794,4.817342113
25.80329085,-3.744531393,-3.162740469,0.3687070608,4.915321711
25.80829632,-3.849876404,-3.107673883,0.5410895944,4.977144085
25.81330093,-3.955221176,-2.990357876,0.7374141216,5.012962633
25.81830562,-4.070142746,-2.942473888,0.9241618514,5.106690678
25.82331108,-4.249708176,-2.82036972,1.113303781,5.220531606
25.8283157,-4.290409565,-2.707842112,1.204283476,5.214433989
25.83329016,-4.254496574,-2.590526342,1.292868972,5.146171199
25.83829639,-4.146757126,-2.523488522,1.395819545,5.050930724
25.84329978,-3.892971992,-2.542642117,1.417367458,4.860986564
25.84830409,-3.643975019,-2.619256735,1.414973259,4.705444624
25.85330932,-3.308786631,-2.765302896,1.326387763,4.511571076
25.85786709,-3.016694069,-2.995146275,1.173158884,4.409948535
25.86328839,-2.588132143,-3.311181068,1.010353088,4.322402274
25.86829293,-2.262520552,-3.586514235,0.8379706144,4.322531475
25.87329909,-1.924938202,-3.842693806,0.5650315881,4.334852184
25.87830378,-1.690306425,-4.050989151,0.2394201756,4.396017622
25.88330778,-1.551442742,-4.237737179,-0.3208230138,4.524192567
25.88786593,-1.513135433,-4.390965939,-0.9385270476,4.73824796
25.89328678,-1.577778935,-4.491522312,-1.759738207,5.075415018
25.89829262,-1.740584612,-4.594472885,-2.932897091,5.721949076
25.90329639,-1.867477298,-4.733336926,-3.857059002,6.38504926
25.90830216,-1.9321208,-4.929661274,-4.759673119,7.119630556
25.91330678,-2.037465572,-5.114014626,-5.729324818,7.945412161
25.91831239,-2.205059767,-5.365406036,-6.813898087,8.948691393
25.92328685,-2.439691544,-5.535394192,-7.527369976,9.656810159
25.9278437,-2.691082716,-5.786785603,-8.092401505,10.30610382
25.93284832,-3.153163671,-6.210559368,-8.779537201,11.20686228
25.9382997,-3.371036053,-6.971915245,-9.981427193,12.6333042
25.94330532,-3.617638826,-7.953537941,-10.51772785,13.67364895
25.94786347,-3.737348795,-9.153033257,-9.904812813,13.99468151
25.95283693,-3.921702385,-10.34774017,-8.36294651,13.87062906
25.95784224,-4.01747036,-11.3173914,-6.564900875,13.68653863
25.96284647,-3.981557369,-12.56237602,-6.248866558,14.58473255
25.96785208,-4.077325344,-14.2000103,-8.152256966,16.8737716
25.97285732,-4.031835556,-15.97890186,-10.61828423,19.6043098
25.9782797,-3.514688015,-18.4425354,-13.55357552,23.15555124
25.98331485,-2.614468336,-20.41775131,-15.79933739,25.94877791
25.98828862,-1.120486379,-21.62921906,-17.11135864,27.60212313
25.99329362,0.4596867263,-21.93328094,-17.41063499,28.00732647
25.9978527,1.951274395,-21.43528748,-16.48886681,27.11386637
26.00330339,2.97599268,-19.32839012,-14.17606831,24.15375974
26.00830809,2.240972757,-16.33563805,-12.58152962,20.74053801
26.01331324,0.9840168953,-11.91354752,-11.84890461,16.83144213
26.01828647,0.9481038451,-8.750806808,-12.14099693,14.99597703
26.02329139,1.307234168,-6.351817131,-12.49055004,14.07367338
26.02829639,1.829170108,-4.838681698,-12.37802315,13.41544486
26.03285485,1.869871497,-3.931279182,-11.34612179,12.15260692
26.03782832,1.604115129,-3.663128614,-9.404424667,10.2193395
26.04328132,0.457292527,-3.840299606,-6.890512466,7.901656761
26.04828624,-1.034295082,-4.517858505,-5.243301868,6.99807304
26.05329055,-3.260902643,-5.930437565,-3.189076662,7.481563053
26.0582957,-4.711789131,-7.517793179,-1.304839969,8.967763291
26.06330093,-5.403713226,-9.205705643,1.113303781,10.73240785
26.06830501,-6.320692539,-10.95347309,4.031835556,13.27348578
26.07330993,-7.649474621,-13.35485744,5.892130375,16.47980217
26.07831693,-8.157045364,-15.39232254,5.489904404,18.26472098
26.08329055,-7.967903137,-17.45372963,3.572149038,19.51615759
26.08784747,-6.897695065,-19.50556183,0.2753331959,20.69108378
26.09330009,-4.127603531,-21.82314873,-3.823540211,22.53677863
26.09830462,-2.027888775,-22.67069626,-5.35104084,23.38175442
26.10330932,-0.141257897,-22.03144455,-6.129156113,22.86856046
26.10831455,0.1268926859,-19.59893417,-5.657498837,20.3995494
26.11328832,-0.6105214357,-15.25345898,-5.087678432,16.09115344
26.11829355,-1.520318031,-11.76510715,-2.808398485,12.19082505
26.12329909,-2.995146275,-8.058882713,1.798045516,8.783476503
26.12830255,-5.317522049,-4.213795185,4.812345505,8.318099534
26.13330778,-7.331045628,-2.425326347,4.223371983,8.801324263
26.13831332,-9.277531624,-1.498770237,1.474828243,9.512834678
26.14328686,-10.35731697,-0.9600749016,-1.769315004,10.55112479
26.14829232,-10.28309631,-0.6512228847,-2.8993783,10.70385704
26.15329662,-9.117119789,-0.9959878922,-0.2873041928,9.175860114
26.15830378,-7.582436562,-1.78128612,2.592920542,8.209114531
26.16330778,-5.83466959,-2.837129116,4.42448473,7.852944414
26.16831208,-2.784456491,-4.781220913,5.858611584,8.058324954
26.17283947,-0.9337386489,-6.217741966,7.177816868,9.542182036
26.17829024,-0.4261679053,-8.506598473,10.69250488,13.67016815
26.18329632,0.04070143029,-10.13704967,13.63976669,16.99425397
26.18830001,0.4118026793,-11.77947235,15.05473995,19.11990443
26.19285786,0.5315127969,-12.85207462,14.34605694,19.2683076
26.1982797,0.5530605912,-13.6254015,12.43069553,18.45209022
26.20328439,0.5147533417,-14.37239265,10.07240677,17.55801867
26.20828955,0.9792284966,-15.1720562,5.767632008,16.2608658
26.21329416,2.205059767,-15.71314621,1.00556469,15.89894376
26.21830009,4.050989151,-16.20874596,-5.252878666,17.5136145
26.22330439,5.035006046,-16.38831139,-10.6350441,20.17503901
26.22831024,4.019864559,-15.93820095,-11.5879364,20.11133587
26.23331416,2.48996973,-14.99009705,-10.01973438,18.20159432
26.23784316,1.52510643,-13.72835255,-7.527369976,15.73069967
26.24284593,0.4836287498,-12.45463753,-5.667075634,13.69188223
26.24829878,-0.5722141862,-11.22880554,-3.840299606,11.88113648
26.25330193,-1.350329757,-10.38365269,-2.564189911,10.78047789
26.25830716,-2.001552582,-9.591172218,-1.367089152,9.892710954
26.2633127,-2.803610086,-8.817844391,-0.3591302633,9.259783138
26.26828716,-3.186682463,-8.231265068,0.4644751251,8.838801213
26.27329201,-4.039018154,-7.515398979,0.4740519226,8.545151531
26.27829701,-5.116408825,-6.859387875,-0.02394201607,8.557418682
26.28330155,-5.990292549,-6.239289761,-0.3639186621,8.657065226
26.28830593,-6.351817131,-5.901707172,-0.03830722719,8.67047841
26.29331139,-6.157886982,-5.853823185,0.2059013397,8.498777166
26.29828624,-5.5042696,-6.093243122,0.06224924326,8.211484065
26.30329086,-4.173093796,-6.703764915,-0.2082955539,7.8992761
26.30829601,-2.782062292,-7.273584843,-0.1771709323,7.789499124
26.31330062,-1.63523972,-7.65426302,-0.2873041928,7.832259892
26.31785978,-0.720654726,-7.912836552,-0.3088520169,7.951585697
26.32283262,0.03830722719,-8.159439087,-0.2226607651,8.162566476
26.32783701,0.7062895298,-8.453926086,-0.1675941199,8.485033822
26.33329047,1.084573388,-8.678980827,-0.3256114423,8.752544227
26.33829416,1.489193439,-8.872911453,-0.7062895298,9.024693882
26.3432997,1.70946002,-9.107542992,-0.9696516991,9.317178614
26.34830309,1.903390408,-9.222464561,-1.256955862,9.500351871
26.35286224,1.987187386,-9.346963882,-1.393425345,9.656929207
26.35828347,1.965639591,-9.459490776,-1.381454349,9.759821764
26.36328893,1.78128612,-9.502586365,-1.441309452,9.774942496
26.36829301,1.52510643,-9.490615845,-1.644816518,9.752084911
26.37285078,1.278503656,-9.47146225,-1.771709204,9.720191472
26.37830347,0.8810662031,-9.382876396,-1.745373011,9.584413079
26.38330862,0.5099649429,-9.258378029,-1.745373011,9.435250655
26.38831362,0.1125274822,-9.162610054,-1.793257117,9.337122497
26.39328747,-0.2322375625,-8.978256226,-1.716642618,9.143843886
26.39829424,-0.7158663273,-8.702922821,-1.465251446,8.854393939
26.40285016,-1.089361787,-8.54251194,-1.278503656,8.706077817
26.40785509,-1.403002143,-8.367734909,-1.07739079,8.552670544
26.41327724,-1.656787634,-8.128314972,-0.7565677166,8.329876605
26.41831147,-1.814804912,-7.951143742,-0.3088520169,8.161470041
26.42328624,-1.82198751,-7.838616371,0.05506663769,8.047768475
26.42829116,-1.714248419,-7.788338184,0.3926490843,7.984424376
26.43329539,-1.508347034,-7.797914982,0.3543418646,7.950355149
26.43830093,-1.33835876,-7.905653954,0.2729389966,8.022784074
26.44330624,-1.335964561,-8.104372978,0.2035071403,8.216269094
26.44831016,-1.309628367,-8.346187592,0.07661445439,8.448659275
26.45331609,-1.268926859,-8.650250435,-0.1675941199,8.744432271
26.45829078,-1.168370485,-8.913613319,-0.390254885,8.998327115
26.46329455,-0.9720458984,-9.078812599,-0.6560112834,9.154237393
26.46829909,-0.6607996821,-9.294290543,-0.9768342972,9.368815195
26.47330432,-0.2322375625,-9.514557838,-1.414973259,9.622000544
26.47831116,0.107739076,-9.643844604,-1.891419291,9.828164295
26.48331393,0.383072257,-9.739612579,-2.449268341,10.05015985
26.48828893,0.6272808313,-9.770736694,-2.980781078,10.23454115
26.49329393,0.9121908545,-9.765948296,-3.53384161,10.42563546
26.49829824,1.094150186,-9.737217903,-3.919308186,10.55327218
26.5033037,1.252167463,-9.742006302,-4.182670593,10.67564253
26.50830739,1.383848548,-9.895236015,-4.12999773,10.81145753
26.51286624,1.472434044,-10.06761837,-3.734954596,10.83858328
26.5178397,1.462857246,-10.36928749,-3.138798475,10.93225184
26.52284493,1.493981838,-10.59194851,-2.573766708,11.0020739
26.52829732,1.48679924,-10.77390766,-2.121262789,11.08094825
26.53330193,1.477222443,-10.87685871,-1.953668594,11.14921802
26.53830647,1.644816518,-10.81700325,-2.142810583,11.14919808
26.54331109,1.82198751,-10.77390766,-2.487575531,11.20646049
26.54828624,2.00873518,-10.78348446,-2.794033289,11.3192392
26.55329139,2.298433542,-10.74517727,-2.873042107,11.3576407
26.55829909,2.473210335,-10.64701462,-2.63601613,11.2438548
26.56330186,2.535459518,-10.49139214,-2.087743998,10.99347711
26.56830709,2.499546528,-10.20648193,-1.142034173,10.56996917
26.57330986,2.446874142,-10.08677197,-0.4548983276,10.38927785
26.57831601,2.300827742,-9.974244118,0.1340752989,10.23705672
26.58328963,2.171540976,-9.885659218,0.5602431893,10.13684965
26.58829509,1.972822189,-9.895236015,0.8595184088,10.12652433
26.59329878,1.733402014,-10.01733971,0.8331822157,10.20029264
26.59830432,1.422155857,-10.22324085,0.5530605912,10.33649151
26.60330901,1.063025594,-10.47942066,-0.04309562966,10.53328714
26.60831416,0.55784899,-10.85531044,-1.127668977,10.92797317
26.6132887,0.1125274822,-11.32217979,-1.999158382,11.49787163
26.61829332,-0.2011129409,-11.82975101,-2.758120298,12.14869059
26.62329786,-0.4692635238,-12.28225517,-3.292027235,12.72444277
26.62830255,-0.7637503147,-12.75391293,-3.761290789,13.31889327
26.63330801,-1.015141487,-13.09149456,-4.039018154,13.73795508
26.63831455,-1.271321058,-13.41231823,-4.242525578,14.12464374
26.64328716,-1.393425345,-13.71398735,-4.036623955,14.36347507
26.64829116,-1.393425345,-14.17846203,-3.227383852,14.60775226
26.65329701,-1.290474772,-14.54716969,-2.372653961,14.795775
26.65830193,-1.079784989,-14.84165668,-1.371877551,14.94398731
26.66330616,-0.739808321,-15.21036339,-0.5817909837,15.23945378
26.66831055,-0.423773706,-15.68441486,-0.04070143029,15.69019153
26.67328493,-0.2657563984,-16.09621811,-0.4285621047,16.10411529
26.67829139,-0.1795651317,-16.33563805,-1.285686255,16.38713835
26.68329639,-0.4668693244,-16.24705315,-2.365471363,16.42498577
26.68785355,-0.9097966552,-15.89749908,-2.892195702,16.18403544
26.6928277,-2.126051188,-15.33246803,-3.452438831,15.8595083
26.69828063,-3.797203779,-14.83926201,-3.572149038,15.72840431
26.70328432,-6.131550789,-14.16888523,-3.253720045,15.77782995
26.70828993,-7.407660007,-13.71398735,-2.559401512,15.79548707
26.71329478,-7.58961916,-13.37401104,-1.474828243,15.44802928
26.7183007,-7.338228226,-13.16092682,0.0287304204,15.06852394
26.72330378,-7.266402245,-12.96699619,2.006340981,14.9989665
26.72830955,-7.7284832,-12.77067184,2.978386879,15.22137643
26.73331447,-8.348581314,-12.56716442,3.294421434,15.44298042
26.73828809,-8.564059258,-12.5408287,3.327940464,15.54640419
26.74329293,-8.252813339,-12.73475838,3.134010077,15.49532246
26.74829824,-8.281543732,-12.91432381,2.738966703,15.58414786
26.75330309,-8.255207062,-13.20402241,2.171540976,15.7229209
26.75830809,-7.99663353,-13.64694977,1.424550056,15.88126974
26.7633127,-7.010222435,-14.28141308,0.3256114423,15.91251083
26.76828678,-6.002263546,-14.46337223,-0.5650315881,15.66957449
26.77284501,-5.377377033,-14.48731422,-1.252167463,15.50375376
26.77829693,-4.529829502,-14.55914021,-1.608903527,15.33220432
26.78330224,-3.076549292,-14.68842697,-1.572990537,15.08937844
26.78830586,-1.910573006,-14.72912884,-1.213860273,14.90204624
26.7933117,-1.283292055,-14.51604462,-0.9193734527,14.60163133
26.79828624,0.1508347094,-14.32929707,-0.09097966552,14.33037972
26.80328993,1.268926859,-14.40830612,-0.7541735172,14.48372322
26.80829601,1.616086125,-14.4801321,-0.7469909191,14.58917254
26.8133004,3.16034627,-14.93263626,0.457292527,15.27024986
26.81830586,3.033453465,-14.79137802,-1.046266198,15.13543447
26.82331055,2.425326347,-14.54716969,-1.754949808,14.85201005
26.82831509,2.106897593,-14.33169174,-1.946485996,14.61592328
26.83328963,1.474828243,-13.77384281,-1.393425345,13.92248176
26.8382954,0.7374141216,-12.89038181,-0.7350199223,12.93236162
26.8432994,0.5434837937,-12.17690945,-0.490811348,12.19890954
26.8483047,1.046266198,-11.47780323,1.982398987,11.69463748
26.85330893,0.4692635238,-10.83136845,1.388636947,10.93009896
26.85786647,-0.9145850539,-10.15380955,0.5099649429,10.20766273
26.86328863,-1.723825216,-9.169792175,0.6272808313,9.351478127
26.86829363,-1.97042799,-8.453926086,0.739808321,8.711989962
26.87329816,-2.059013367,-7.730877399,0.8451532125,8.04489188
26.87830555,-2.152387381,-6.789956093,1.18991828,7.221646674
26.88330809,-2.379836559,-6.121973515,1.441309452,6.724548661
26.88831232,-2.645592928,-5.406107426,1.56101954,6.217872743
26.89284032,-2.93768549,-4.642356873,1.733402014,5.760742653
26.8978444,-3.141192675,-3.964797974,1.695094824,5.334797171
26.9032967,-3.251325846,-3.464409828,1.261744261,4.915816696
26.90785486,-3.205836058,-3.248931646,0.7996633649,4.633832449
26.91327693,-3.19625926,-3.203441858,0.3806780577,4.541258502
26.91831109,-3.055001259,-3.330334663,-0.1915361285,4.52336686
26.92328647,-2.837129116,-3.541024208,-0.6560112834,4.584594297
26.92829086,-2.640804529,-3.7181952,-0.9935936928,4.667553163
26.93329663,-2.547430515,-3.852270603,-1.218648672,4.7764522
26.93785293,-2.52827692,-3.897760391,-1.26413846,4.814848523
26.94330555,-2.511517525,-3.983951569,-1.137245774,4.844885791
26.94831024,-2.482787132,-4.074931145,-1.084573388,4.89342367
26.9533154,-2.466027737,-4.165910721,-0.9648633003,4.936300854
26.95829147,-2.588132143,-4.19464159,-0.6943184733,4.977501803
26.9632954,-2.681505919,-4.118026733,-0.3926490843,4.929786149
26.9682994,-2.79163909,-4.050989151,-0.1125274822,4.921018629
26.97330501,-2.798821688,-3.914519787,0.1197100878,4.813647111
26.97830932,-2.717418909,-3.797203779,0.2633621991,4.67680251
26.98286678,-2.583343744,-3.730166197,0.4405331016,4.558714092
26.98784124,-2.487575531,-3.687070608,0.5267243981,4.478834702
26.99284616,-2.341529369,-3.670311213,0.5458779931,4.387701787
26.99829947,-2.19308877,-3.677493811,0.4764461517,4.308201483
27.00285609,-2.054224968,-3.708618402,0.3758896589,4.256170075
27.00782932,-1.953668594,-3.809175014,0.2322375625,4.287256647
27.01328193,-1.8579005,-3.995922565,0.07422025502,4.407346148
27.0178397,-1.778891921,-4.134786129,-0.06703764945,4.501711546
27.02329232,-1.680729628,-4.240131378,-0.2513911724,4.568015292
27.02785016,-1.532289028,-4.355052948,-0.3950432837,4.633622238
27.03330247,-1.316810966,-4.465186119,-0.6392518282,4.698991498
27.0383077,-1.18991828,-4.553771496,-0.9959878922,4.810897237
27.04331301,-1.113303781,-4.625597477,-1.45088625,4.97399922
27.04828624,-1.086967587,-4.757278919,-2.190694571,5.349050753
27.05329047,-1.130063176,-4.809951305,-2.930502892,5.744608041
27.05829578,-1.182735682,-4.90571928,-3.835511208,6.338461294
27.0633004,-1.204283476,-5.111620426,-4.874594688,7.16523799
27.06830555,-1.285686255,-5.336675644,-6.253654957,8.321135523
27.07286378,-1.319205165,-5.477933407,-7.235277653,9.170457971
27.07828463,-1.33835876,-5.770026207,-8.544905663,10.3971063
27.08328955,-1.072602391,-6.076483727,-9.275136948,11.14012099
27.08829424,-0.7326257229,-6.682217121,-9.873687744,11.94480957
27.0932994,-0.5530605912,-7.4363904,-9.979032516,12.45740214
27.09830432,-0.2777273953,-8.494627953,-10.05325317,13.16448768
27.10286163,-0.1149216816,-9.823410034,-9.998186111,14.01700101
27.10828317,0.07900865376,-11.64060879,-9.576807022,15.07399244
27.11328863,0.06464344263,-12.98854446,-9.006986618,15.80608345
27.11829486,-0.107739076,-14.29817295,-8.628703117,16.70041541
27.12329886,-0.7469909191,-15.61258888,-8.556877136,17.8194016
27.12830317,-1.580173135,-17.17839813,-9.136273384,19.52090676
27.13330832,-2.114080191,-18.32282639,-10.43393135,21.19108834
27.13831301,-2.918531895,-19.26135254,-11.62384892,22.68548861
27.1432877,-3.665522814,-19.87905693,-12.24634171,23.63442081
27.14829232,-3.801992416,-20.17593765,-12.20803452,23.8863918
27.15284932,-4.206612587,-19.58456993,-11.78665543,23.24169131
27.15830132,-4.604049683,-18.11213493,-11.49216843,21.93892979
27.1628594,-4.141968727,-15.94538307,-11.33175659,19.99549584
27.16828132,-3.110068083,-12.65575027,-10.9343195,17.01175715
27.17328624,-2.391807556,-9.947908401,-10.37886429,14.57403338
27.17829055,-1.63523972,-7.371747017,-9.569623947,12.18992886
27.1832957,-0.8164227605,-4.699818134,-8.681375504,9.905610393
27.1883007,-0.4716577232,-3.155557871,-7.939172745,8.556311726
27.19330563,-0.4070142806,-2.149993181,-7.249642849,7.572678043
27.19831178,-0.7948749661,-1.78368032,-6.531382084,6.817059015
27.20328524,-1.759738207,-2.114080191,-5.544970989,6.189726721
27.20828955,-2.813186884,-2.8969841,-4.520252705,6.061288793
27.2132954,-3.950432777,-3.933673382,-3.399766445,6.529786925
27.21829909,-5.202600479,-5.262455463,-2.688688517,7.87334333
27.2233034,-6.785167694,-7.254431248,-1.975216389,10.12752453
27.22830955,-7.723694801,-9.11233139,-1.314416766,12.01739307
27.23331455,-8.50420475,-11.17613316,-0.0023942017,14.04376931
27.23828832,-8.942343712,-13.46977901,0.7733271718,16.18636749
27.24329355,-8.398859978,-16.26141739,-0.03830722719,18.3023499
27.24829786,-7.273584843,-18.21269226,-2.85867691,19.81865862
27.25330317,-5.214571476,-19.76652908,-5.966350555,21.29565135
27.2583084,-1.841141105,-20.22382164,-6.682217121,21.37860585
27.26331386,0.4525041282,-18.85673332,-6.021417141,19.79996505
27.26828624,1.750161409,-16.53196335,-4.673481941,17.26876691
27.27284493,1.719036818,-13.71159267,-3.711012602,14.30854555
27.27829909,0.9337386489,-10.13944435,-1.766920805,10.33451541
27.28330217,-0.004788403399,-7.407660007,1.529894829,7.563995499
27.28785909,-1.290474772,-5.178658485,4.766855717,7.155888643
27.29328216,-2.920926094,-3.739742994,5.956773758,7.615815158
27.29828586,-5.008669853,-2.719813108,3.689464808,6.789426162
27.30329055,-6.045359135,-2.188300371,0.4453215301,6.444636285
27.3082967,-6.313509941,-2.04704237,-1.580173135,6.822590225
27.31330063,-5.841852188,-2.446874142,-0.9648633003,6.406667717
27.31830593,-4.572925091,-3.75650239,1.278503656,6.05454587
27.32331086,-3.224989653,-5.358223438,2.331952572,6.674512677
27.3278684,-1.651999116,-7.17063427,2.846705914,7.889919611
27.33328993,-0.4381389022,-8.872911453,3.737348795,9.637857613
27.33829393,0.14844051,-10.53209305,5.530605793,11.89683231
27.34329978,0.1604115069,-11.52089882,6.813898087,13.38603932
27.3483044,0.2896983922,-12.31098557,7.252037048,14.29112774
27.35330863,0.5961562395,-12.9430542,6.821080685,14.6425816
27.3583157,1.084573388,-13.69004536,5.272032261,14.71013139
27.36328901,1.477222443,-14.23592377,3.387795448,14.70785061
27.36829301,2.183511972,-14.76025391,1.577778935,15.00407299
27.37329786,3.749319792,-15.26782417,-0.6703764796,15.7357319
27.37830286,4.34787035,-15.43062973,-3.292027235,16.36599382
27.38330747,3.964797974,-15.00685596,-4.57771349,16.18273184
27.38831178,3.100491285,-14.15930843,-5.245696068,15.41481069
27.3928397,2.178723574,-13.15135002,-5.260061264,14.33084395
27.3978444,1.424550056,-12.19606304,-4.862623692,13.20675606
27.40284963,0.5099649429,-11.11149025,-4.072536945,11.84528754
27.40785486,-0.2059013397,-10.28788471,-3.349488258,10.82136954
27.4128284,-0.921767652,-9.531316757,-2.446874142,9.88346335
27.41783363,-1.565807939,-8.892065048,-1.59693253,9.169011333
27.42328624,-2.334346771,-8.288725853,-0.8188169599,8.650006493
27.42829109,-2.882618904,-7.900865555,-0.5195417404,8.426333241
27.4332964,-3.315969467,-7.642292023,-0.5339069963,8.347774407
27.43830278,-3.732560396,-7.477091789,-0.5434837937,8.374621387
27.44330563,-3.873818398,-7.376535416,-0.09337386489,8.332374355
27.44831017,-3.876212597,-7.35977602,-0.2944868207,8.323343658
27.45331578,-3.722983599,-7.426813602,-1.326387763,8.412934783
27.45829024,-3.107673883,-7.752425194,-1.537077546,8.492369559
27.46329386,-2.588132143,-8.020575523,-1.527500629,8.565122176
27.4682994,-2.157175779,-8.183381081,-1.534683347,8.600952635
27.47285701,-1.786074519,-8.329427719,-1.460463047,8.643053895
27.4782794,-1.479616642,-8.51617527,-1.407790542,8.757646993
27.48331394,-1.15161097,-8.50420475,-1.26653266,8.674780184
27.4882887,-0.758961916,-8.470685959,-1.144428372,8.581273804
27.49329355,-0.5099649429,-8.475474358,-1.074996591,8.558583265
27.49829786,-0.4860229492,-8.468291283,-1.237802267,8.572066846
27.50330378,-0.4692635238,-8.501810074,-1.661576033,8.675356921
27.5083087,-0.3663128614,-8.523358345,-1.687912226,8.696601076
27.51286555,-0.2537853718,-8.511386871,-1.532289028,8.651937538
27.51784132,-0.2777273953,-8.501810074,-1.570596337,8.650126004
27.52329294,-0.5267243981,-8.499416351,-1.726219416,8.688921128
27.52784994,-0.8643068075,-8.525752068,-1.824381709,8.761497771
27.53330132,-1.209071875,-8.540117264,-1.939303398,8.840608313
27.53830647,-1.381454349,-8.585607529,-2.04704237,8.933725719
27.54331178,-1.556231141,-8.614337921,-2.149993181,9.013941639
27.54828555,-1.742978811,-8.568847656,-2.171540976,9.009923168
27.55329178,-1.917755604,-8.556877136,-2.197877169,9.04038699
27.55829601,-2.087743998,-8.595184326,-2.319981337,9.144297786
27.56330009,-2.224213362,-8.633491516,-2.432508945,9.241287822
27.56830563,-2.30561614,-8.664615631,-2.427720547,9.288985783
27.57286432,-2.329558372,-8.628703117,-2.324769735,9.235037305
27.5782847,-2.238578558,-8.604761124,-2.185906172,9.155945268
27.58328955,-2.054224968,-8.58081913,-2.003946781,9.047988719
27.58829509,-1.731007814,-8.508993149,-1.742978811,8.856485059
27.59285178,-1.431732655,-8.47786808,-1.472434044,8.723082459
27.59830655,-1.086967587,-8.456320763,-1.108515382,8.597654664
27.60286124,-0.720654726,-8.43956089,-0.7302315235,8.501692145
27.60828347,-0.3615244627,-8.355764389,-0.2561795712,8.367504194
27.6132884,-0.1340752989,-8.303091049,0.1651999205,8.305816526
27.61829424,-0.0023942017,-8.221688271,0.457292527,8.234396165
27.62329847,0.107739076,-8.264783859,0.5051765442,8.280909569
27.6278554,0.1628057212,-8.291120529,0.4189853072,8.303296575
27.63327755,0.1843535304,-8.386888504,0.2274491638,8.391997267
27.63831301,0.1244984865,-8.564059258,0.05746084079,8.565156892
27.64328717,-0.04070143029,-8.817844391,-0.1915361285,8.820018276
27.64829263,-0.2585737705,-9.033323288,-0.4764461517,9.049574076
27.6532964,-0.4644751251,-9.208099365,-0.9840168953,9.272169127
27.65830163,-0.6009446383,-9.378087997,-1.503558636,9.516845986
27.66330624,-0.7541735172,-9.552865028,-2.224213362,9.837333634
27.66831209,-0.9121908545,-9.634267807,-2.705447912,10.04841563
27.67328594,-1.065419793,-9.742006302,-3.162740469,10.29780236
27.67829209,-1.182735682,-9.780313492,-3.600879431,10.48902895
27.68329609,-1.230619669,-9.816226959,-4.139574528,10.72421623
27.68785363,-1.127668977,-9.835380554,-4.46039772,10.85824552
27.69282863,-0.9840168953,-9.864110947,-4.632780075,10.94219472
27.6982797,-0.7781155705,-9.890447617,-4.623203278,10.94533811
27.70331509,-0.4213795066,-9.974244118,-4.115632534,10.79821918
27.70828955,-0.141257897,-10.14183807,-3.394978046,10.69592021
27.7128477,0.1795651317,-10.3405571,-2.592920542,10.66220435
27.71829909,0.538695395,-10.46745014,-1.771709204,10.62998865
27.72285701,0.9026140571,-10.58955383,-1.063025594,10.68098244
27.72827847,1.544260144,-10.54645824,-0.6799532771,10.68058319
27.73331424,2.138022184,-10.40280628,-0.6224924326,10.6384686
27.73828863,2.808398485,-10.30943298,-0.8810662031,10.72137063
27.74329324,3.430891037,-10.13226128,-0.9552865028,10.73993967
27.74829824,3.890577793,-10.11550236,-0.9840168953,10.88247549
27.7533034,4.09169054,-10.30224991,-0.9648633003,11.12696031
27.75831086,4.005499363,-10.82179165,-1.024718285,11.58469884
27.76331332,3.658340216,-11.3030262,-1.244984865,11.94536905
27.76828709,3.090914488,-11.75074196,-1.707065821,12.26979065
27.77329171,2.401384354,-12.12902546,-2.30561614,12.57759004
27.77829671,1.369483352,-12.49294472,-3.210624456,12.97140169
27.78330186,0.5530605912,-12.82334423,-3.840299606,13.39746
27.78786001,-0.1891419291,-13.21359921,-4.237737179,13.87780224
27.79328163,-0.7829039693,-13.66131496,-4.338293552,14.35497322
27.79828563,-1.52510643,-14.05635834,-4.156333923,14.73710525
27.8032914,-2.054224968,-14.25986576,-4.05338335,14.96641334
27.80829578,-2.351106167,-14.34605694,-4.09169054,15.10228398
27.81330094,-2.319981337,-14.45619011,-4.153939724,15.21903286
27.81830555,-1.742978811,-14.60463047,-4.12999773,15.27710992
27.8233114,-0.8355764151,-14.76264763,-3.780444384,15.26190397
27.82786863,0.1771709323,-15.05713463,-3.299209833,15.41536501
27.83328994,1.173158884,-15.41626453,-2.717418909,15.69783041
27.83829663,2.233790159,-15.84243298,-2.097320795,16.13602354
27.84329971,2.813186884,-15.98608494,-1.738190413,16.32452872
27.84830409,2.873042107,-15.95256615,-1.759738207,16.30446001
27.85330924,2.147598982,-15.62695408,-1.889025092,15.88654434
27.85831394,1.37427175,-15.1720562,-2.001552582,15.36509437
27.86328894,0.6129156351,-14.81292629,-2.006340981,14.9607438
27.86784655,-0.2633621991,-14.46816063,-1.666364431,14.56618694
27.87285086,-0.9385270476,-14.37718105,-0.825999558,14.43143941
27.87830309,-1.829170108,-14.27423096,-0.02394201607,14.39097307
27.88330801,-2.616862535,-14.12339592,0.7493851185,14.38331881
27.88831294,-3.481169224,-14.11142445,1.74776721,14.63917789
27.89328809,-4.316745758,-13.95340729,3.004723072,14.91174804
27.89829232,-4.90811348,-13.75468922,3.938461781,15.12588955
27.90329724,-5.442020416,-13.47696114,4.316745758,15.16174006
27.90830217,-5.892130375,-13.28781986,3.969586372,15.06787885
27.9133074,-6.303933144,-13.15853214,3.270479441,14.95267792
27.91831455,-6.528987885,-13.40992355,2.683900118,15.15444002
27.92328594,-6.703764915,-13.93664837,1.994369984,15.59320825
27.9278437,-6.368576527,-14.60223579,1.309628367,15.98434183
27.93284901,-5.707777023,-15.14332581,0.85473001,16.20585075
27.93785332,-4.560954094,-15.50245571,0.4501099288,16.16573643
27.94282771,-3.785232782,-15.52879238,0.3088520169,15.98645582
27.9482797,-2.93768549,-15.33965015,0.2873041928,15.62105651
27.95283909,-1.924938202,-15.04276943,-0.174776718,15.16643815
27.95784217,-1.865083098,-14.40112305,-1.438915253,14.59251031
27.96329517,-2.233790159,-13.53442192,-2.353500366,13.91795097
27.96829978,-0.7445967197,-13.247118,-2.22900176,13.45395883
27.97330494,0.14844051,-12.80419064,-0.9289502501,12.83870247
27.97830863,0.6177040339,-12.38041687,-0.5674257874,12.40879737
27.98331424,1.424550056,-12.23915863,0.6679822803,12.3398763
27.98828809,1.968033791,-12.11226654,1.168370485,12.32660729
27.99329324,2.777273893,-12.08832455,1.307234168,12.47195661
27.99829947,3.785232782,-12.30380249,1.170764685,12.92602928
28.00330255,4.331110954,-12.51449203,0.9074024558,13.27382432
28.00830778,4.620809078,-12.51928043,0.6967126727,13.36299621
28.01286501,4.331110954,-12.43308926,0.7350199223,13.18637497
28.01828747,3.332728863,-12.14099693,1.194706678,12.64666803
28.02329147,2.425326347,-11.5975132,1.11569798,11.90081099
28.02829724,1.209071875,-10.87685871,1.283292055,11.01883609
28.03330194,0.3998316824,-10.24957752,1.474828243,10.36285786
28.03830624,-0.06943184882,-9.634267807,1.508347034,9.751874063
28.0433117,-0.6895300746,-9.081207275,1.498770237,9.229847752
28.04828586,-1.470039845,-8.236053467,1.570596337,8.512365518
28.05329109,-1.891419291,-7.666234016,1.606509328,8.057883292
28.05829517,-2.236184359,-7.096413612,1.580173135,7.60634957
28.06330071,-2.523488522,-6.528987885,1.570596337,7.173733336
28.06830586,-2.67671752,-5.928043365,1.704671621,6.724018156
28.07331117,-2.707842112,-5.437232018,1.632845521,6.289839856
28.07828717,-2.810792685,-5.111620426,1.333570361,5.983947594
28.08328955,-2.82276392,-4.891354084,0.9672574997,5.729653392
28.08829448,-2.813186884,-4.738125324,0.5722141862,5.539971219
28.09329971,-2.710236311,-4.735731125,0.2202665508,5.460865087
28.09830371,-2.590526342,-4.769249916,0.1005564705,5.42832231
28.10330955,-2.372653961,-4.771644115,0.009576806799,5.328992972
28.10831394,-2.217030764,-4.742913723,0.1316810995,5.237155325
28.11284101,-2.224213362,-4.79079771,0.3184288144,5.291527633
28.11829417,-2.272097349,-4.824316502,0.5243301988,5.358299938
28.12329786,-2.322375536,-4.893748283,0.7852981687,5.473471805
28.1283034,-2.485181332,-4.848258495,0.9744400978,5.534552393
28.1328604,-2.659958124,-4.797980309,1.094150186,5.594028682
28.13828217,-2.832340717,-4.800374508,1.149216771,5.69090929
28.1432874,-3.035847664,-4.845864296,1.180341482,5.838833602
28.1478444,-3.114856482,-4.86741209,1.221042871,5.90635057
28.15329763,-3.184288263,-4.98233366,1.249773264,6.043614287
28.15785509,-3.227383852,-5.037400246,1.201889277,6.102126318
28.16327701,-3.222595453,-5.075707436,1.204283476,6.131739241
28.1683114,-3.193865061,-5.123591423,1.113303781,6.139332896
28.17328563,-3.11964488,-5.173870087,0.9816226959,6.120841361
28.17829178,-2.987963676,-5.204994678,0.85473001,6.06221576
28.18329509,-2.82276392,-5.324704647,0.6392518282,6.060455315
28.18830063,-2.667140722,-5.456385612,0.2705447972,6.079389613
28.19330532,-2.466027737,-5.516240597,-0.2681505978,6.048314465
28.19786286,-2.355894566,-5.532999992,-0.8762778044,6.077186101
28.20328494,-2.360682964,-5.475539207,-1.67115283,6.192503973
28.20784286,-2.422932148,-5.396530628,-2.408566952,6.387044526
28.21329478,-2.585737944,-5.339069843,-3.256114244,6.767125496
28.21829948,-2.918531895,-5.262455463,-4.367023945,7.435197648
28.22330409,-3.359065056,-5.221754074,-5.003881454,7.974262553
28.22830986,-4.036623955,-5.267243862,-5.243301868,8.457564977
28.23286717,-4.879383087,-5.219359875,-5.554547787,9.050033035
28.23784186,-5.123591423,-5.166687489,-5.647922039,9.21112762
28.24329478,-5.111620426,-5.279214859,-5.501875401,9.179836918
28.24829817,-4.896142483,-5.537788391,-5.714959621,9.343450912
28.25285632,-4.50109911,-5.961562157,-6.368576527,9.816256085
28.25783048,-3.749319792,-6.39491272,-7.481880188,10.53237099
28.26328248,-2.319981337,-7.271190643,-8.860940933,11.69481941
28.26828748,-1.211466074,-8.358158112,-9.267954826,12.53879754
28.27284463,-0.08140286058,-9.63666153,-8.774748802,13.03334525
28.27829763,1.237802267,-11.05163479,-6.552929878,12.90781453
28.28285386,0.9433154464,-12.36844635,-3.955221176,13.01968063
28.28827671,-0.02154781483,-13.25190639,-1.984793186,13.39973475
28.29331171,-1.460463047,-13.67328548,-2.018311977,13.89839097
28.29828624,-2.614468336,-13.836092,-5.171475887,15.0005683
28.30329017,-2.537853718,-13.8959465,-8.710105896,16.5952998
28.30829632,-2.243366957,-13.82890892,-11.74834728,18.28373816
28.31330101,-2.221819162,-13.29739666,-13.99650288,19.43345906
28.3183074,-1.728613615,-12.63659668,-15.31810284,19.93278594
28.32286348,-0.9481038451,-12.15057373,-15.70835781,19.8818472
28.32783724,0.02633621916,-11.56878281,-15.64131927,19.45477571
28.33328963,1.505952835,-10.97980881,-14.96854877,18.62475632
28.33829448,2.427720547,-10.00776291,-13.85524559,17.26316819
28.34329855,3.033453465,-8.805873871,-12.37323475,15.48683934
28.34830309,3.557783842,-7.508216381,-10.63743782,13.49763766
28.35286248,4.089296341,-6.449979305,-9.10036087,11.8802839
28.35828401,4.350264549,-5.499481201,-7.335834026,10.14808139
28.36328801,3.967192173,-5.240907669,-6.488286495,9.235994185
28.36829386,3.155557871,-5.54257679,-6.10281992,8.827350334
28.37329848,1.886630893,-7.012616634,-5.707777023,9.236605802
28.37830286,1.086967587,-8.77235508,-4.819528103,10.06794732
28.38330778,0.4070142806,-10.58237171,-2.501940727,10.88172592
28.38786555,-0.05985504389,-12.33253288,0.4046200812,12.33931389
28.39328809,-0.5027823448,-14.28141308,2.607285738,14.52616565
28.39784594,-1.211466074,-15.29176617,2.954444885,15.62160386
28.40329763,-2.037465572,-16.76659393,2.375048161,17.05610717
28.40830217,-2.947262287,-17.79131317,0.9241618514,18.05744319
28.41330594,-4.249708176,-19.01474953,-0.5650315881,19.49204914
28.41831171,-5.57848978,-19.97721863,0.08379705995,20.74164493
28.42328594,-5.956773758,-20.40099335,1.675941229,21.31882882
28.42829117,-4.920084476,-19.87426758,2.039859772,20.57558677
28.43329609,-2.978386879,-18.13368416,-1.213860273,18.41669749
28.43830032,-2.803610086,-15.47372532,-2.770091295,15.96777413
28.44330563,-3.268085241,-12.89277649,-2.348711967,13.50631388
28.44831048,-3.7181952,-10.723629,-2.806004286,11.69165747
28.45331548,-4.850652695,-7.709329605,-4.623203278,10.21452902
28.45829017,-6.177040577,-5.037400246,-5.324704647,9.585599152
28.46329478,-6.643909931,-3.102885485,-4.304774761,8.502971436
28.46829855,-5.741295815,-2.04464817,-1.233013868,6.217988981
28.4733044,-4.611232281,-1.934514999,1.589749932,5.247200804
28.47831078,-3.406949043,-2.255337954,4.46039772,6.048884103
28.48331394,-2.853888512,-2.741360903,6.806715488,7.873443654
28.48828778,-2.880224705,-3.373430252,8.686163902,9.753213283
28.49284678,-3.217807055,-3.873818398,9.385271072,10.65101236
28.49785078,-3.766079187,-5.19781208,9.665391922,11.60260332
28.50285571,-4.429273129,-6.521805286,9.555258751,12.38771062
28.50782955,-4.821922302,-8.051700592,9.493009567,13.34908415
28.51283424,-4.453215122,-9.62469101,9.567230225,14.28277621
28.51783978,-3.610456228,-11.583148,9.205705643,15.22989587
28.52329209,-2.612074137,-13.32612705,8.192957878,15.85979673
28.52829671,-0.6344634295,-15.73469353,6.387730122,16.9937112
28.53330255,1.307234168,-17.62850761,4.718971729,18.29595136
28.53830778,2.437297344,-18.54548645,2.26970315,18.84216119
28.54331178,3.162740469,-18.55266953,-2.398990154,18.97260202
28.54828594,3.040636063,-17.35796165,-9.370905876,19.95891223
28.55328986,1.551442742,-15.5359745,-11.36527538,19.31173122
28.55829763,0.117315881,-13.55118179,-9.871294022,16.76576084
28.56330032,-0.6512228847,-11.77947235,-6.919242859,13.67684108
28.56830563,-0.825999558,-10.14662647,-3.406949043,10.73515747
28.57331109,-0.6488286853,-9.375694275,-1.798045516,9.568573012
28.57828463,-0.3998316824,-9.050082207,-1.297657371,9.151380659
28.58328994,-0.3758896589,-8.853757858,-1.07739079,8.926986735
28.58829448,-0.7781155705,-8.55448246,-0.9911994934,8.646797698
28.59329978,-1.477222443,-8.054094315,-0.7924807668,8.226703297
28.59830409,-2.293645144,-7.520187378,-0.586579442,7.884040949
28.60330863,-3.296815634,-6.938396454,-0.4740519226,7.696431894
28.60831394,-3.82593441,-6.473921299,-0.8690952063,7.569990593
28.61284071,-3.806780815,-6.342240334,-1.206677675,7.494775756
28.61784648,-3.763684988,-6.390124321,-1.271321058,7.524311979
28.62285025,-3.739742994,-6.50983429,-1.347935557,7.62761761
28.6283034,-3.610456228,-6.706159115,-1.470039845,7.756866725
28.63330801,-2.920926094,-6.974309444,-1.364694953,7.683436327
28.63831417,-2.26970315,-7.343016624,-1.089361787,7.762612617
28.64328778,-1.556231141,-7.742848396,-0.7158663273,7.930070696
28.64829271,-1.110909581,-8.082824707,-0.4836287498,8.173131108
28.65284963,-0.7350199223,-8.372523308,-0.4357447028,8.416012968
28.65830163,-0.4860229492,-8.645462036,-0.517147541,8.6745417
28.66330594,-0.3208230138,-8.968679428,-0.7493851185,9.005649124
28.6683124,-0.1651999205,-9.121908188,-0.9959878922,9.177608179
28.67328563,-0.1651999205,-9.208099365,-1.271321058,9.296915734
28.67829109,-0.3088520169,-9.241618156,-1.493981838,9.366689781
28.68284832,-0.3711012602,-9.239224434,-1.67115283,9.396474662
28.68785394,-0.5602431893,-9.184157372,-1.879448295,9.391216372
28.6928274,-0.787692368,-9.090784073,-1.900996208,9.32076182
28.69783263,-1.036689281,-9.006986618,-1.790862918,9.241629867
28.70328525,-1.367089152,-8.875306129,-1.508347034,9.105773027
28.70828925,-1.618480325,-8.719682693,-1.252167463,8.956576812
28.71329417,-1.812410712,-8.595184326,-0.9528923035,8.835724641
28.71830132,-2.056619167,-8.511386871,-0.7278373241,8.786531514
28.72330402,-2.209848166,-8.46589756,-0.6416460276,8.773058762
28.72830902,-2.260126352,-8.446743965,-0.4788403511,8.756993938
28.73331394,-2.329558372,-8.396465302,-0.248996973,8.717194002
28.73784125,-2.389413357,-8.408436775,-0.06943184882,8.741620329
28.74284594,-2.298433542,-8.372523308,0.1125274822,8.683006721
28.74785078,-2.205059767,-8.348581314,0.2394201756,8.638195445
28.75330348,-2.037465572,-8.315062523,0.3088520169,8.566616618
28.75830863,-1.884236693,-8.300697327,0.3351882398,8.518466715
28.76331325,-1.812410712,-8.300697327,0.4094084799,8.506116858
28.76828748,-1.659181833,-8.370129585,0.586579442,8.553129782
28.77329263,-1.608903527,-8.444349289,0.7350199223,8.627621906
28.77829694,-1.63523972,-8.549694061,0.8810662031,8.749145966
28.78330163,-1.70946002,-8.659827232,0.9265560508,8.875436179
28.78830678,-1.78368032,-8.769960403,0.8834604025,8.993009688
28.7928644,-1.867477298,-8.899248123,0.5602431893,9.110321676
28.79828625,-1.944091797,-9.014169693,0.03351882473,9.221489667
28.80329086,-1.989581585,-9.148244858,-0.5051765442,9.37571449
28.80829702,-1.936909199,-9.289502144,-1.130063176,9.556333508
28.81330063,-1.788468719,-9.442731857,-1.922544003,9.801019372
28.81830648,-1.654393315,-9.591172218,-2.439691544,10.03392728
28.82331055,-1.529894829,-9.725247383,-2.885013103,10.25886521
28.82831609,-1.350329757,-9.868899345,-3.27287364,10.48476355
28.83284286,-1.209071875,-10.00297451,-3.447650433,10.64930267
28.83829478,-0.9720458984,-10.24957752,-3.280056238,10.80543759
28.84330002,-0.8307880163,-10.47223854,-2.870647907,10.89029881
28.84830409,-0.8164227605,-10.6446209,-2.33913517,10.92913782
28.85330863,-0.9552865028,-10.7284174,-1.719036818,10.90718111
28.85831386,-1.185129881,-10.66137981,-1.539471745,10.83695186
28.86328932,-1.18752408,-10.51533413,-1.786074519,10.73184642
28.86784617,-1.072602391,-10.33816338,-2.236184359,10.63149182
28.87329878,-0.7302315235,-10.25197124,-2.669534922,10.61897213
28.87785694,-0.2226607651,-10.3214035,-2.782062292,10.69209141
28.88327794,0.5841852427,-10.44590187,-2.509123325,10.75889577
28.88831271,1.400607944,-10.6158905,-1.977610588,10.88897504
28.89328717,2.41335535,-10.88404083,-1.158793569,11.20845357
28.89829325,3.153163671,-11.04445267,-0.4477157295,11.49446933
28.90329671,3.739742994,-11.22880554,0.1939303428,11.83677999
28.90830248,4.161122322,-11.44907284,0.7709329724,12.20616834
28.91330655,4.276044369,-11.82496262,1.30005157,12.64137771
28.91831232,4.05577755,-12.17212105,1.477222443,12.91479959
28.92328678,3.639186621,-12.56237602,1.393425345,13.1528934
28.92784378,3.112462282,-12.95981407,0.9385270476,13.3613261
28.93284863,2.353500366,-13.27345467,0.3399766386,13.48477463
28.93830155,1.259350061,-13.6014595,-0.6320692301,13.67425225
28.94285786,0.2657563984,-13.73792934,-1.52510643,13.82487898
28.94783232,-0.6488286853,-13.836092,-2.394201756,14.05669315
28.9532844,-1.618480325,-13.94143677,-3.172317266,14.38911862
28.95829109,-2.176329374,-14.01565647,-3.502717018,14.60972492
28.96329578,-2.49236393,-14.02762794,-3.548206806,14.68250644
28.96829978,-2.647987127,-13.99410915,-3.414131641,14.6459285
28.9733044,-2.427720547,-13.96059036,-3.399766445,14.57224493
28.97830986,-1.889025092,-13.94622517,-3.454833031,14.49142793
28.98331478,-1.122880578,-14.02762794,-3.462015629,14.49209297
28.98828894,-0.06703764945,-14.23113537,-3.296815634,14.60817241
28.99329271,0.7015010715,-14.51365089,-2.78924489,14.7958796
28.99829817,1.37666595,-14.84644508,-2.114080191,15.05926545
29.00330278,1.786074519,-15.13614273,-1.379060149,15.30342072
29.00830802,2.04704237,-15.39711094,-0.4884171486,15.54026895
29.01331294,2.049436569,-15.35880375,0.09816227108,15.49524697
29.01828802,1.877054095,-15.16966152,0.323217243,15.28876817
29.02329202,1.498770237,-14.72673512,0.1316810995,14.8033908
29.02784986,0.9840168953,-14.02283955,-0.3615244627,14.06197063
29.03285478,0.1963245422,-13.16571522,-1.11569798,13.21436274
29.03827755,-0.7038952708,-12.51928043,-1.649604917,12.64709641
29.04331178,-1.946485996,-11.92791271,-1.891419291,12.2327992
29.04828555,-2.808398485,-11.48738003,-1.582567334,11.93111568
29.0532914,-3.488351822,-11.2982378,-0.9720458984,11.86438574
29.05829602,-4.067748547,-11.18810463,-0.1987187415,11.90629046
29.06330071,-4.999093056,-11.18810463,0.5458779931,12.26631972
29.06785848,-5.731719017,-11.21444035,0.9672574997,12.63138402
29.07327971,-6.672640324,-11.20486355,1.728613615,13.15527275
29.07828432,-7.072471619,-11.23838234,2.370259762,13.48848486
29.08329017,-7.055712223,-11.46583176,3.251325846,13.84989143
29.08829479,-6.739677906,-11.82496262,3.833117008,14.14021871
29.0932994,-6.536170483,-12.25831223,4.206612587,14.51493481
29.09830402,-6.224924564,-12.78264332,4.177882195,14.81891884
29.10330955,-5.58088398,-13.49850941,3.438073635,15.00587793
29.10831394,-5.090072632,-14.04917526,2.710236311,15.18662391
29.11328863,-4.735731125,-14.52083302,1.881842494,15.38905689
29.11829448,-4.505887508,-14.84644508,1.089361787,15.55334893
29.12329825,-4.213795185,-14.93742466,-0.2370259613,15.52220689
29.12830309,-4.029441357,-14.82250309,-1.63523972,15.44723291
29.13330748,-3.543418407,-14.60463047,-2.825158119,15.29158473
29.13831294,-3.088520288,-14.29338455,-3.519476414,15.04082823
29.14328717,-2.446874142,-13.84566879,-3.677493811,14.53319298
29.1482924,-1.771709204,-13.45301914,-3.179499865,13.93671041
29.15329632,-1.355118155,-13.05558205,-2.463633537,13.35492636
29.15830186,-1.431732655,-12.51688671,-1.752555609,12.71981771
29.16285971,-0.8116343617,-12.34450436,0.1029506698,12.37158587
29.16828032,1.407790542,-12.952631,3.098097086,13.39218912
29.17283817,2.772485495,-13.26866627,2.784456491,13.83825778
29.17829117,3.572149038,-13.27345467,2.664746523,14.00163282
29.18329632,3.507505417,-13.04839897,2.370259762,13.71792409
29.18830102,3.339911461,-12.76348972,1.381454349,13.26537201
29.19330494,2.997540474,-12.36126328,0.4333505034,12.72689559
29.19831202,1.900996208,-11.65018559,0.2561795712,11.80704191
29.20328463,1.051054597,-10.9103775,0.3663128614,10.9670068
29.20784194,0.3519476354,-10.24239445,0.7900865674,10.27884954
29.2132954,-0.1628057212,-9.732429504,1.18752408,9.805962635
29.21830032,-0.7661445141,-9.129091263,1.271321058,9.248975183
29.22330432,-1.170764685,-8.736441612,1.209071875,8.897075744
29.22830802,-1.640028119,-8.216899872,1.163581967,8.459376971
29.23331448,-2.075772762,-7.61595583,1.110909581,7.971557932
29.23828894,-2.449268341,-7.015010834,1.489193439,7.578059745
29.24329363,-2.52827692,-6.603208065,1.752555609,7.284640835
29.24829817,-2.681505919,-6.236895561,1.52510643,6.958109647
29.25330317,-2.688688517,-5.899312973,1.292868972,6.610782833
29.25830832,-2.726995707,-5.501875401,1.149216771,6.2472264
29.26331386,-2.729389906,-5.31512785,1.015141487,6.060582939
29.2682874,-2.777273893,-5.233725071,0.895431459,5.992238805
29.27329209,-2.734178305,-5.147533417,0.7374141216,5.875083903
29.2778514,-2.78924489,-5.049371243,0.7062895298,5.811616118
29.28330278,-2.846705914,-5.013458252,0.5315127969,5.789732641
29.28830617,-2.85867691,-4.958391666,0.4094084799,5.738056892
29.29331202,-2.846705914,-4.888959885,0.356736064,5.668591001
29.29828655,-2.875436306,-4.771644115,0.3806780577,5.58405205
29.30329086,-3.095702887,-4.663905144,0.4189853072,5.613460273
29.30829602,-3.313575268,-4.479551315,0.4716577232,5.591835302
29.3133004,-3.543418407,-4.204218388,0.5626373887,5.527008874
29.31830555,-3.744531393,-4.05577755,0.6105214357,5.553699966
29.32331086,-3.782838583,-3.909731388,0.6679822803,5.481064459
29.32831578,-3.742137194,-3.787626982,0.7757213712,5.380655404
29.33328986,-3.670311213,-3.639186621,0.988805294,5.262375848
29.3378474,-3.557783842,-3.526659012,1.120486379,5.133287385
29.34285202,-3.430891037,-3.356670856,1.235408068,4.956257221
29.34830502,-3.284844637,-3.217807055,1.268926859,4.770184682
29.35330925,-3.047818661,-3.08133769,1.192312479,4.49504723
29.35831548,-2.82036972,-2.997540474,1.091755986,4.258129329
29.36328809,-2.604891539,-2.966415882,0.9504981041,4.060607068
29.36829363,-2.432508945,-3.045424461,0.7493851185,3.969041191
29.37329825,-2.45405674,-3.105279684,0.1939303428,3.962671495
29.37830256,-2.494758129,-3.114856482,-0.3423708379,4.005417184
29.38330863,-2.499546528,-3.11964488,-0.895431459,4.096549099
29.38831394,-2.552218914,-3.165134668,-1.503558636,4.335041802
29.39328678,-2.705447912,-3.280056238,-2.439691544,4.902072231
29.39829202,-2.794033289,-3.402160645,-3.308786631,5.507212365
29.4032964,-2.86107111,-3.519476414,-4.09169054,6.108549222
29.40830163,-2.777273893,-3.670311213,-5.176264286,6.92662592
29.41330679,-2.624045134,-3.883395195,-5.935225964,7.562623774
29.41831117,-2.48996973,-4.256890774,-6.543353081,8.193688904
29.42328648,-2.552218914,-4.778826714,-7.115567684,8.943282933
29.4282914,-2.23139596,-5.607220173,-8.133103371,10.12755728
29.43329548,-1.831564307,-6.600813866,-9.442731857,11.66578572
29.43830286,-1.805228114,-7.910442352,-10.62307262,13.36725921
29.44330617,-2.049436569,-9.397241592,-10.7044754,14.39076556
29.44830994,-2.006340981,-10.89840603,-8.602366447,14.02859104
29.4533154,-1.805228114,-11.71243477,-5.779603004,13.18498341
29.45828994,-2.331952572,-12.76109505,-4.089296341,13.60168718
29.46329479,-3.134010077,-14.26704788,-4.57771349,15.30771489
29.4682994,-4.05338335,-16.16564941,-7.69017601,18.35475264
29.47330371,-4.177882195,-17.30529022,-11.15937424,21.01093531
