Time (s),Acceleration x (m/s^2),Acceleration y (m/s^2),Acceleration z (m/s^2),Absolute acceleration (m/s^2)
30.00331062,-1.280897856,-9.533711433,-4.118026733,10.4637707
30.00831577,-1.161187768,-9.538499832,-4.616020679,10.66015868
30.01287146,-0.9289502501,-9.574412346,-4.781220913,10.74208517
30.01829331,-0.6488286853,-9.665391922,-4.601655483,10.72455187
30.02284969,-0.4477157295,-9.825803757,-4.113238335,10.66140696
30.02830439,-0.1771709323,-10.00297451,-3.337517262,10.54655916
30.03330846,0.08379705995,-10.0269165,-2.626439333,10.36553231
30.03831239,0.3016694188,-9.99100399,-1.78368032,10.15345659
30.04331823,0.6296750307,-10.07719517,-1.122880578,10.15909513
30.04829331,1.192312479,-10.17056847,-0.6584054828,10.26136296
30.05329731,1.721431017,-10.22324085,-0.5243301988,10.38040945
30.05830139,2.272097349,-10.32858658,-0.6033388376,10.59274019
30.06330654,2.86107111,-10.43871975,-0.8116343617,10.85409362
30.068313,3.512293816,-10.48420906,-1.051054597,11.10673504
30.073317,4.096478939,-10.62307262,-1.18991828,11.44756381
30.07832293,4.352658749,-10.78587818,-1.106121182,11.68350591
30.08329585,4.335899353,-11.05881786,-1.019929886,11.92215302
30.08785423,4.149151325,-11.40118885,-0.9457096457,12.16950823
30.09330562,3.672705412,-11.84172153,-0.921767652,12.43240884
30.09786292,3.265691042,-12.06438255,-0.9576807022,12.53519911
30.10328446,2.533065319,-12.43069553,-1.256955862,12.74827633
30.108322,1.912967205,-12.67490387,-1.687912226,12.92910203
30.11329523,1.216254473,-12.928689,-2.248155355,13.17894065
30.11829862,0.2944868207,-13.21120453,-2.784456491,13.50466014
30.12330531,-0.4501099288,-13.46020222,-2.959233284,13.78900665
30.12831023,-1.055842996,-13.71398735,-3.239354849,14.13087659
30.133314,-1.869871497,-13.87439919,-3.404554844,14.40785778
30.13831854,-2.71502471,-13.87439919,-3.746925592,14.62565429
30.143293,-3.112462282,-13.84088039,-4.086902142,14.76347387
30.14829946,-3.141192675,-13.88636971,-4.256890774,14.85999576
30.15330377,-2.731784105,-14.06114674,-4.09169054,14.89699377
30.15831031,-1.812410712,-14.33648014,-3.521870613,14.87356944
30.163313,-0.9265560508,-14.7698307,-2.578555346,15.02182921
30.168318,-0.1244984865,-15.1481142,-1.939303398,15.27225463
30.17329154,0.5267243981,-15.42105293,-1.333570361,15.48756669
30.17829554,0.8427590132,-15.60061836,-0.9983820915,15.65523244
30.18330193,0.8427590132,-15.46893692,-1.125274777,15.53269119
30.18830754,0.5291185975,-15.05234623,-1.594538331,15.14581282
30.19331208,-0.09816227108,-14.46337223,-2.178723574,14.62687966
30.19831646,-0.9504981041,-13.98453236,-2.494758129,14.2370787
30.20332162,-2.324769735,-13.76905441,-2.087743998,14.11913909
30.20829731,-3.615244627,-13.48414421,-1.400607944,14.0304612
30.21330016,-4.458003521,-13.36203957,-0.5817909837,14.09809836
30.21830477,-4.987122059,-13.47217274,0.174776718,14.36667573
30.22330993,-5.482721806,-13.57033539,1.15400517,14.68148388
30.22831577,-6.31590414,-13.50329781,2.394201756,15.09840716
30.23331954,-7.120356083,-13.50090313,2.995146275,15.55457352
30.23829669,-7.876923561,-13.61343098,3.232172251,16.05672336
30.24285146,-8.372523308,-13.84088039,3.296815634,16.5087283
30.24785769,-8.578424454,-14.05156994,2.887407303,16.71445796
30.25330939,-8.83699894,-14.27183628,2.030282974,16.90857504
30.25831362,-9.002198219,-14.4753437,1.221042871,17.08994131
30.26287154,-8.755595207,-14.81771469,0.2873041928,17.21358939
30.26829423,-8.0229702,-15.10980701,-0.5482721925,17.11651019
30.27329823,-6.986280441,-15.19599819,-1.290474772,16.77473698
30.27830323,-6.35660553,-15.02122116,-1.501164436,16.37977453
30.28330746,-5.415684223,-14.71955204,-1.52510643,15.75819779
30.28831423,-4.601655483,-14.45140171,-1.963245392,15.29289302
30.293318,-3.663128614,-13.98692608,-2.494758129,14.67230147
30.29829177,-3.210624456,-13.20162773,-3.296815634,13.98070375
30.30329616,-2.319981337,-12.57195282,-3.090914488,13.1525687
30.30830231,-1.039083481,-12.44745445,-2.655169725,12.76983724
30.31330693,-0.2873041928,-12.14339066,-2.288856745,12.36055604
30.3183137,1.345541358,-12.15296745,0.4141969085,12.23424123
30.32331639,2.980781078,-12.49533844,2.035071373,13.00615447
30.32832192,3.612850428,-12.46181965,1.347935557,13.04479082
30.33329639,3.885789394,-12.30380249,0.672770679,12.92035353
30.33829985,3.823540211,-12.10508347,0.1532289088,12.69551041
30.343305,3.861847401,-11.73637676,-0.107739076,12.35588979
30.34831123,3.682282209,-11.34851646,-0.117315881,11.93154605
30.35331516,2.93529129,-10.81460953,0.1723825186,11.20720438
30.35832008,2.00873518,-10.11071396,0.4596867263,10.31856897
30.36329485,0.9504981041,-9.287108421,0.7733271718,9.367596511
30.36830077,0.2226607651,-8.674192429,1.127668977,8.750018824
30.37285731,-0.3926490843,-8.118738174,1.482010841,8.262229662
30.37830908,-0.9959878922,-7.58722496,1.757344007,7.851511475
30.38331339,-1.663970232,-6.809109688,2.042253971,7.300929595
30.38831985,-1.893813491,-6.258443356,2.171540976,6.889864511
30.39329331,-2.066195965,-5.695806026,2.183511972,6.44042674
30.39830108,-2.363077164,-5.051765442,1.874659896,5.883775785
30.40330323,-2.726995707,-4.496310711,1.798045516,5.557542917
30.40830939,-3.023876667,-3.960009575,1.805228114,5.299467377
30.41331331,-3.153163671,-3.665522814,1.503558636,5.063515302
30.418317,-3.098097086,-3.548206806,0.988805294,4.81307729
30.42329177,-2.961627483,-3.581725836,0.5889736414,4.684750502
30.42829893,-2.664746523,-3.648763418,0.316034615,4.529263339
30.43330223,-2.621650934,-3.734954596,0.117315881,4.564723701
30.438306,-2.535459518,-3.801992416,0.06943184882,4.570396272
30.44331116,-2.45405674,-3.828328609,-0.004788403399,4.547363781
30.44831677,-2.545036316,-3.881000996,-0.01675941236,4.641083866
30.45329085,-2.63841033,-3.952826977,-0.0023942017,4.752478923
30.45784846,-2.67671752,-4.058171749,0.117315881,4.86285283
30.46330077,-2.796427488,-4.125209332,0.2418143749,4.989572418
30.46830723,-2.894589901,-4.185064793,0.3758896589,5.102422077
30.47331,-2.971204281,-4.225766182,0.517147541,5.191588994
30.47831762,-3.064578056,-4.244919777,0.6272808313,5.272993819
30.48332108,-3.071760893,-4.244919777,0.6679822803,5.282164256
30.48784785,-3.095702887,-4.206612587,0.7350199223,5.274392866
30.49285177,-3.136404276,-4.161122322,0.7541735172,5.265049711
30.49785616,-3.148375273,-4.115632534,0.8140285611,5.245316054
30.50286193,-3.035847664,-4.09408474,0.8283938169,5.163732876
30.50828377,-2.889801502,-4.022258759,0.7924807668,5.015729659
30.51331885,-2.67432332,-4.036623955,0.7350199223,4.897610893
30.51829246,-2.444479942,-4.062960148,0.6464344859,4.785499441
30.52329739,-2.279279947,-4.101267338,0.5793967843,4.72770679
30.52785608,-2.109291792,-4.125209332,0.4453215301,4.654543496
30.532861,-1.977610588,-4.13239193,0.2442085743,4.587727599
30.53783493,-1.908178806,-4.12999773,0.02154781483,4.54955953
30.54283923,-1.886630893,-4.122815132,-0.3016694188,4.544005411
30.54829216,-1.912967205,-4.158728123,-0.921767652,4.669488059
30.55329639,-1.910573006,-4.213795185,-1.594538331,4.893762516
30.55830285,-1.912967205,-4.345476151,-2.260126352,5.258400672
30.56330593,-1.915361404,-4.546588898,-3.253720045,5.90988782
30.56831331,-1.757344007,-4.67827034,-4.197035789,6.526069319
30.57331646,-1.441309452,-4.898536682,-5.185841084,7.277773169
30.5783207,-1.089361787,-5.193023682,-6.198588371,8.159454752
30.58329608,-0.895431459,-5.516240597,-7.369352818,9.248679299
30.58785423,-0.9720458984,-5.913678169,-8.094796181,10.07185127
30.59285677,-1.48679924,-6.581660271,-9.143456459,11.36360946
30.59831085,-2.066195965,-7.259219646,-9.988609314,12.51949486
30.60331454,-2.813186884,-8.149862289,-10.46745014,13.56103935
30.60832077,-3.514688015,-9.56004715,-10.27112484,14.46525281
30.61329431,-3.916913986,-10.78348446,-9.672574997,15.00614738
30.61829885,-3.758896589,-12.11226654,-9.533711433,15.86593704
30.62330385,-3.483563423,-14.05156994,-10.28309631,17.7573619
30.62830962,-3.124433279,-17.18318558,-11.39640045,20.85430155
30.63331362,-2.743755102,-20.06101608,-13.04361057,24.08543824
30.63787339,-2.52827692,-23.10404587,-15.96453667,28.19672943
30.64284662,-1.419761658,-25.81907082,-18.25099945,31.65026259
30.64785177,0.806845963,-26.80069351,-17.46330643,31.99836315
30.65330346,2.885013103,-25.66344833,-14.59505367,29.66397601
30.65786016,3.299209833,-23.80315399,-12.60068321,27.13396659
30.66283423,2.85867691,-19.33078384,-11.8728466,22.86516399
30.66784046,2.238578558,-14.62378407,-12.10029507,19.11238957
30.67284562,2.087743998,-9.646238327,-12.76109505,16.13239398
30.67829793,2.774879694,-4.589684486,-13.29260826,14.33382696
30.68330193,3.057395458,-1.802833915,-12.93108368,13.40935503
30.68830716,2.968810081,-0.05506663769,-11.55920601,11.93449241
30.69331146,2.272097349,0.7733271718,-9.603142738,9.898525735
30.69831731,0.6655880809,0.6967126727,-6.605602264,6.67550727
30.70332162,-1.053448796,-0.05027823523,-4.156333923,4.288052466
30.708297,-2.650381327,-1.144428372,-2.260126352,3.666389042
30.71330162,-3.574543238,-2.434903145,-0.2561795712,4.332636686
30.71830723,-4.156333923,-4.077325344,3.284844637,6.685050331
30.7233097,-5.497087002,-5.532999992,6.076483727,9.887148674
30.72831616,-6.543353081,-7.125144482,7.58722496,12.29427249
30.73287277,-7.134721279,-8.944737434,8.604761124,14.31623168
30.73829454,-7.582436562,-10.99656868,8.700529099,15.94104995
30.74330008,-8.032546997,-13.80496693,7.017405033,17.44542623
30.74830531,-7.95593214,-15.99566174,4.268861771,18.36794031
30.75330993,-7.036558628,-18.5215435,0.3711012602,19.81662048
30.75786685,-5.475539207,-21.4376812,-4.881777287,22.65805495
30.763289,-3.055001259,-24.88772583,-11.12106705,27.43009409
30.76829516,-0.7541735172,-26.42719841,-15.14093113,30.46659464
30.77329831,0.8475474119,-25.8861084,-16.7139225,30.82473276
30.77830262,-0.0023942017,-23.10404587,-15.73948193,27.95582645
30.78330785,-1.795651317,-19.24219894,-12.24394703,22.87795495
30.788313,-3.095702887,-13.6110363,-2.41335535,14.16573223
30.79287023,-4.94642067,-8.793902397,5.789179802,11.63247177
30.79829423,-6.449979305,-5.039794445,8.473079681,11.7811222
30.80329793,-7.862558365,-2.444479942,6.974309444,10.79056525
30.80830346,-9.87608242,-0.1939303428,3.711012602,10.55207219
30.81330685,-10.6254673,0.9265560508,0.8140285611,10.69680812
30.81831208,-10.42435455,1.460463047,-0.6560112834,10.54658575
30.82331646,-9.404424667,1.41257906,0.5746083856,9.527263916
30.82832231,-7.393294811,0.8762778044,2.971204281,8.016029306
30.83284816,-6.050147533,-0.09816227108,3.986345768,7.246024675
30.83830039,-3.423708439,-2.068590164,5.743690014,6.999344235
30.84285893,-1.290474772,-4.149151325,8.38928318,9.447796258
30.84831154,-0.3447650373,-6.095637321,11.51371574,13.03231781
30.85286785,0.2130839527,-7.972691536,14.27423096,16.35123495
30.85784223,0.3687070608,-9.763554573,15.33486176,18.18298457
30.86284754,0.2346317619,-11.76271248,14.1808567,18.42588271
30.86785239,0.07422025502,-13.06276417,12.20563984,17.87789026
30.87330385,0.04548983276,-14.25747108,9.272743225,17.00768409
30.87831123,0.7182605267,-15.85919189,6.423643112,17.1258009
30.883314,2.054224968,-17.13051224,2.389413357,17.41790992
30.88831923,4.417302132,-18.39944077,-3.512293816,19.24547184
30.89329339,6.80192709,-19.36669731,-10.3501339,22.98826763
30.89829739,6.093243122,-18.85673332,-13.60385418,24.03682283
30.90330346,3.655946016,-17.08502388,-12.01171017,21.20248012
30.90830877,1.89620769,-15.02122116,-8.303091049,17.26771582
30.91331246,0.6823474765,-13.16571522,-5.001487255,14.10023156
30.91787031,-0.3591302633,-11.77947235,-3.210624456,12.21446081
30.92284477,-1.259350061,-10.78348446,-2.475604534,11.1354442
30.92829677,-1.991975784,-9.58638382,-1.295263171,9.87645832
30.93330224,-2.389413357,-8.70771122,-0.6272808313,9.051354159
30.93830624,-3.428496838,-7.785943985,0.2011129409,8.509756795
30.94331177,-4.86741209,-6.813898087,0.6679822803,8.40042308
30.94787054,-5.286397457,-6.275202751,1.055842996,8.272785025
30.95329093,-5.31512785,-5.827486992,1.357512355,8.003313594
30.95829793,-5.272032261,-5.762843609,1.249773264,7.909906689
30.96330077,-5.255272865,-5.64552784,0.6224924326,7.738047189
30.96830593,-4.987122059,-5.68383503,-0.02633621916,7.561617596
30.97330993,-4.168305397,-5.94719696,-0.3375824392,7.270342734
30.97831546,-3.066972494,-6.287173748,-0.2537853718,6.999948645
30.9833207,-1.900996208,-6.751648903,-0.174776718,7.016344945
30.98829554,-0.5674257874,-7.388506413,-0.1101332754,7.411081458
30.99330039,0.1221042871,-7.833827972,-0.215478152,7.837742085
30.99785677,0.4692635238,-8.164227486,-0.4453215301,8.189818677
31.003309,0.7829039693,-8.444349289,-0.7805097699,8.516405876
31.00786754,1.019929886,-8.738836288,-1.103726983,8.867115083
31.01328908,1.249773264,-9.119514465,-1.438915253,9.316541976
31.01829331,1.319205165,-9.409213066,-1.666364431,9.646261618
31.02329854,1.357512355,-9.641449928,-1.663970232,9.877711954
31.02830385,1.307234168,-9.734824181,-1.477222443,9.932665762
31.03330777,1.180341482,-9.83777523,-1.438915253,10.01226771
31.03831331,0.8906430602,-9.773131371,-1.498770237,9.927419306
31.04331831,0.5291185975,-9.622296333,-1.462857246,9.747230609
31.04829424,0.2968810201,-9.425971985,-1.364694953,9.528876036
31.05329731,0.08140286058,-9.263166428,-1.204283476,9.341476189
31.058302,-0.2082955539,-9.102754593,-0.9193734527,9.151435721
31.063306,-0.4836287498,-8.925583839,-0.6871358752,8.965048765
31.06831239,-0.806845963,-8.724471092,-0.5123591423,8.776668396
31.07331577,-1.015141487,-8.432378769,-0.3399766386,8.50006518
31.0783207,-1.089361787,-8.204929352,-0.3734954596,8.285352957
31.08284847,-1.096544385,-7.991845131,-0.3040636182,8.072450239
31.08830231,-1.086967587,-7.807491779,-0.2849099934,7.88794017
31.09330593,-1.053448796,-7.644686222,-0.2609679997,7.721339657
31.09831085,-1.00556469,-7.472303391,-0.1316810995,7.540810183
31.10331554,-0.9768342972,-7.383718014,-0.2729389966,7.453052572
31.10832108,-0.895431459,-7.357381821,-0.6320692301,7.438573537
31.11329454,-0.8667010069,-7.469909191,-0.9337386489,7.577768921
31.118301,-0.8188169599,-7.678205013,-0.9672574997,7.782087156
31.12330531,-0.7038952708,-8.015787125,-0.8523358107,8.091649283
31.1283097,-0.5410895944,-8.331821442,-0.7829039693,8.385998158
31.13331424,-0.3064578176,-8.712499619,-0.8379706144,8.758068323
31.13831885,-0.02633621916,-9.212887764,-1.096544385,9.277952583
31.14329331,0.3280056417,-9.809044838,-1.391031146,9.912613983
31.14829947,0.5458779931,-10.23042393,-1.790862918,10.40032435
31.15330316,0.7757213712,-10.60631371,-2.319981337,10.88475757
31.1583087,1.012747288,-10.85531044,-2.803610086,11.25716
31.1633127,1.180341482,-11.0085392,-3.189076662,11.52177726
31.16787,1.194706678,-11.11388397,-3.241749048,11.63849981
31.17329277,1.113303781,-11.16176796,-3.066972494,11.62887912
31.17829639,0.9385270476,-11.11627865,-2.667140722,11.47022771
31.18330193,0.7015010715,-10.97502041,-2.157175779,11.20698818
31.18830754,0.390254885,-10.73799419,-1.759738207,10.88822744
31.19286439,0.1963245422,-10.6254673,-1.719036818,10.76541621
31.19828816,-0.1987187415,-10.43632507,-2.075772762,10.64261259
31.20329093,-0.4405331016,-10.3261919,-2.475604534,10.62793143
31.20829677,-0.5027823448,-10.3453455,-3.052607059,10.79802637
31.213301,-0.3711012602,-10.38125896,-3.153163671,10.855906
31.21830539,-0.1125274822,-10.40520096,-2.940079689,10.81318353
31.22331024,0.3471592367,-10.41956615,-2.509123325,10.7230396
31.22831639,1.00556469,-10.44590187,-1.922544003,10.66884257
31.23332039,1.793257117,-10.49857426,-1.194706678,10.71742304
31.23784685,2.264914751,-10.6398325,-0.8882488012,10.91443358
31.24329924,3.071760893,-11.07078838,-0.5746083856,11.50340146
31.248305,3.778050184,-11.51611042,-0.4548983276,12.12853639
31.25330931,4.333505154,-12.12902546,-0.5099649429,12.890019
31.25831431,4.520252705,-12.60547161,-0.7038952708,13.40992422
31.26287216,4.446032524,-13.04839897,-1.156399369,13.83348042
31.26829485,4.101267338,-13.43386555,-1.802833915,14.1611916
31.2732977,3.478775024,-13.82412052,-2.327163935,14.44381791
31.27830416,2.384624958,-14.32929707,-2.849100113,14.80312677
31.28330777,1.403002143,-14.64054298,-3.086126089,15.0279103
31.28831393,0.4189853072,-14.75546551,-3.263296843,15.11781788
31.29331739,-0.7493851185,-14.58547688,-3.574543238,15.03579307
31.29829239,-2.039859772,-14.28141308,-3.871424198,14.93679058
31.303297,-2.513911724,-14.08748245,-4.05577755,14.87367626
31.30830324,-2.382230759,-14.00129128,-3.981557369,14.75005016
31.31285954,-1.89620769,-14.02523327,-3.469198227,14.57182584
31.31828077,-1.07739079,-14.22395229,-2.964021683,14.5693862
31.32331577,0.0287304204,-14.61181259,-2.396595955,14.8070782
31.32832262,0.5985504389,-14.94460678,-2.133233786,15.10795224
31.33329547,0.9074024558,-15.14093113,-1.877054095,15.28379883
31.33830047,0.9026140571,-15.08825874,-1.575384736,15.19710831
31.34330593,0.423773706,-14.70997524,-1.144428372,14.76051056
31.34831216,-0.3711012602,-14.43703651,-0.8044517636,14.4641931
31.35331485,-1.26653266,-14.42027664,-0.248996973,14.47793089
31.358322,-2.396595955,-14.33887386,0.758961916,14.55757531
31.36329524,-3.399766445,-14.34605694,1.948880196,14.87164737
31.36830047,-4.484339714,-14.62617779,2.987963676,15.58724819
31.37330501,-5.487510204,-14.76025391,3.711012602,16.17867356
31.37830993,-6.519411087,-14.82489681,3.904942989,16.65919764
31.3833137,-7.249642849,-14.76743603,4.05577755,16.94354803
31.38832016,-8.310274124,-14.68603325,4.242525578,17.39940378
31.39329277,-8.820239067,-14.65490818,3.849876404,17.5323843
31.39829739,-9.042900085,-14.65969658,2.755726099,17.44347362
31.40330354,-9.533711433,-14.65730286,1.446097851,17.54478212
31.40831,-9.904812813,-14.73870564,-0.1005564705,17.75795237
31.41331277,-9.540893555,-15.08586502,-1.877054095,17.94812818
31.41831762,-9.021351814,-15.40189934,-2.597708941,18.03749937
31.42329177,-8.55448246,-15.5503397,-2.971204281,17.99500736
31.42829731,-8.080430984,-15.40189934,-3.327940464,17.70838942
31.43330231,-8.080430984,-15.40189934,-3.327940464,17.70838942
31.43830962,-7.043741226,-14.56632328,-3.493140221,16.55276693
31.44331216,-6.351817131,-14.15212631,-2.825158119,15.76736435
31.44831647,-5.470750809,-13.72835255,-2.540247917,14.99498708
31.45332193,-4.896142483,-12.80897903,-2.959233284,14.02851442
31.45829554,-3.813963413,-12.48336792,-1.810016513,13.17789632
31.46330077,-1.731007814,-12.79940224,0.8188169599,12.94185253
31.46830531,0.6129156351,-13.28303146,3.667917013,13.79377416
31.47331116,3.071760893,-13.5966711,3.258508444,14.31513386
31.47831493,3.414131641,-13.32373238,1.482010841,13.8338171
31.48332016,3.409343243,-13.07952404,0.3734954596,13.52172583
31.48829454,3.548206806,-12.75870132,-0.8020575643,13.26715973
31.49329985,3.758896589,-12.21042824,-0.5482721925,12.78766842
31.49830439,3.758896589,-11.72440529,0.08619125932,12.31253069
31.50330908,3.543418407,-11.12106705,0.4477157295,11.6805135
31.50786685,2.796427488,-10.52730465,0.6991068721,10.91480189
31.51328839,1.67115283,-9.658209801,1.197100878,9.874554109
31.51829547,1.070208192,-8.963891029,1.572990537,9.163568475
31.52329893,0.5793967843,-8.228871346,1.953668594,8.477431523
31.52830324,-0.2681505978,-7.096413612,2.217030764,7.439503768
31.53330724,-0.8834604025,-6.215347767,2.226607561,6.660993273
31.5383127,-1.407790542,-5.394136429,1.989581585,5.919207456
31.54331793,-1.798045516,-4.718971729,1.886630893,5.390829063
31.54829277,-2.130839586,-3.924096584,1.752555609,4.796922191
31.55284993,-2.276885748,-3.502717018,1.623268723,4.481990246
31.55785424,-2.446874142,-3.01190567,1.405396342,4.127215491
31.56330662,-2.533065319,-2.817975283,1.201889277,3.975165712
31.56831177,-2.401384354,-2.7509377,0.988805294,3.783125818
31.57331608,-2.312798738,-2.695871115,0.8212111592,3.645702517
31.57832139,-2.303221941,-2.683900118,0.6703764796,3.599660509
31.58329547,-2.293645144,-2.738966703,0.6129156351,3.624694776
31.58829954,-2.446874142,-2.738966703,0.55784899,3.714879159
31.59330562,-2.559401512,-2.726995707,0.5123591423,3.774858087
31.59831247,-2.669534922,-2.736572504,0.5410895944,3.861091001
31.60286785,-2.736572504,-2.801215887,0.6799532771,3.974666775
31.60828939,-2.760514498,-2.923320293,0.8331822157,4.106145934
31.61329454,-2.724601507,-2.964021683,0.9935936928,4.146818821
31.61830008,-2.815581083,-2.901772499,1.098938584,4.189922014
31.6228577,-2.8969841,-2.86107111,1.182735682,4.239942036
31.6283097,-3.045424461,-2.808398485,1.259350061,4.329858517
31.63331362,-3.177105665,-2.786850691,1.307234168,4.42373127
31.63787216,-3.181894064,-2.806004286,1.292868972,4.435044539
31.64329278,-3.009511471,-2.851494312,1.165976286,4.306701732
31.64785147,-2.837129116,-2.894589901,1.048660398,4.186602554
31.65330324,-2.525882721,-2.999934673,0.9313444495,4.030768419
31.65830747,-2.296039343,-3.078943491,0.7733271718,3.917872458
31.6633127,-2.078166962,-3.208230257,0.653617084,3.877980737
31.66831739,-1.97042799,-3.268085241,0.4620809257,3.844019562
31.67329247,-1.960851192,-3.256114244,0.1771709323,3.805076466
31.67829801,-2.023100376,-3.253720045,-0.1316810995,3.833662632
31.68330262,-2.15478158,-3.205836058,-0.5770025849,3.905560199
31.68830562,-2.245761156,-3.208230257,-1.012747288,4.044977333
31.69331062,-2.272097349,-3.315969467,-1.642422318,4.342307099
31.69831639,-2.260126352,-3.488351822,-2.56897831,4.886350286
31.70332101,-2.039859772,-3.828328609,-3.773261786,5.749315814
31.70829547,-1.702277422,-4.170699596,-4.912901878,6.665514865
31.71330047,-1.33835876,-4.57531929,-6.119579315,7.757190327
31.71830508,-1.007958889,-5.085284233,-7.575253963,9.179355613
31.72331054,-0.9672574997,-5.858611584,-9.399636269,11.1180969
31.72831547,-1.249773264,-6.593631268,-10.83855152,12.7480236
31.73332039,-1.697489023,-7.431602001,-11.877635,14.11341173
31.73829454,-2.624045134,-8.372523308,-12.44506073,15.22709086
31.74330016,-3.512293816,-9.749189377,-12.78264332,16.45535996
31.74830478,-4.252102375,-10.91755962,-12.51449203,17.14310338
31.7533097,-4.599261284,-12.36605167,-12.19366932,17.96546715
31.75831608,-4.922478676,-15.08825874,-11.45625496,19.57376116
31.76331985,-5.123591423,-17.95172501,-10.93671322,21.63625004
31.7682937,-5.693411827,-20.99714851,-11.55920601,24.6355521
31.77285093,-6.057330132,-23.86540222,-14.54238129,28.59597043
31.77830316,-5.31512785,-26.07764435,-18.93095207,32.65999181
31.78286047,-4.237737179,-26.15186501,-19.34036064,32.80134158
31.78783431,-3.134010077,-24.4328289,-16.90545845,29.87607191
31.79328654,-1.551442742,-21.35149002,-14.53280449,25.87461124
31.79784508,-0.2849099934,-16.85757446,-12.83052731,21.18682188
31.80329678,1.125274777,-10.37407589,-12.21282291,16.06364645
31.80830193,2.396595955,-5.954379559,-12.33492756,13.90498997
31.81330654,3.177105665,-2.810792685,-11.64539719,12.39394334
31.81786347,3.093308687,-0.6631938815,-9.835380554,10.33165502
31.82328601,2.200271368,0.4357447028,-7.292738438,7.629882139
31.82829085,0.5482721925,-0.1101332754,-5.386953831,5.415902816
31.83329493,-1.771709204,-1.577778935,-4.398148537,4.997204261
31.83830347,-4.362235546,-3.943250179,-3.086126089,6.640970951
31.84330439,-5.817910194,-6.059724331,-1.82198751,8.595811566
31.84830993,-6.768408298,-8.224082947,0.0287304204,10.65118381
31.85331547,-8.245630264,-10.52251625,2.906560898,13.68071135
31.85832047,-9.339780807,-13.71398735,5.765237808,17.56538988
31.86329424,-9.746794701,-16.21592903,6.382941723,19.96743114
31.86830008,-9.555258751,-18.79927254,4.517858505,21.56679539
31.87330416,-7.91762495,-22.26128769,-0.7422025204,23.63904776
31.87830878,-5.408501625,-24.8350544,-5.080495834,25.91993933
31.8833137,-2.506729126,-26.1901722,-8.202534676,27.55885313
31.88831947,0.9337386489,-24.60281754,-9.617507935,26.43230897
31.89284662,2.918531895,-20.70505714,-8.6957407,22.64581917
31.89829793,2.786850691,-14.8679924,-4.371812344,15.74599879
31.9028567,1.029506683,-9.787496567,4.304774761,10.7417903
31.90830747,-1.213860273,-5.307945251,8.947132111,10.47372487
31.91331247,-4.036623955,-1.889025092,8.147468567,9.286764388
31.91787124,-6.409277916,-0.7158663273,5.379771233,8.39840738
31.92329247,-8.348581314,0.3256114423,0.7948749661,8.392655061
31.92784878,-9.514557838,0.7445967197,-3.682282209,10.22939086
31.93285454,-8.954314232,0.5961562395,-3.270479441,9.551501526
31.93785985,-6.574477673,-0.5746083856,0.4884171486,6.617588894
31.94328131,-4.46039772,-2.035071373,2.729389906,5.611259446
31.94831647,-2.640804529,-3.842693806,4.393360138,6.406384124
31.9533207,-0.6607996821,-6.387730122,7.876923561,10.16295612
31.95829608,-0.06464344263,-8.176198959,11.73398209,14.30177415
31.9633007,-0.2442085743,-9.667786598,14.46576691,17.40069389
31.96830562,-1.098938584,-10.99178028,15.01882744,18.64382143
31.97331031,-1.41257906,-12.40675354,14.27662468,18.96694296
31.97831578,-1.156399369,-13.40752983,12.46900272,18.34598443
31.98287239,-0.8403648138,-14.31493187,10.10592556,17.54289654
31.98784693,-0.004788403399,-15.39711094,7.65426302,17.19473148
31.99329893,1.865083098,-16.83123779,4.350264549,17.48410427
31.99830593,3.849876404,-17.80567741,0.2801215947,18.21928002
32.0028617,6.440402508,-18.61970711,-6.531382084,20.75647439
32.00828378,6.521805286,-17.99481964,-11.85369301,22.51349631
32.01287124,4.687847137,-16.71870995,-11.68849277,20.93112602
32.01829278,1.628057122,-14.17367363,-8.24802494,16.47948754
32.02329831,0.3112462163,-12.32535076,-5.05894804,13.32681886
32.02830231,-0.05267243832,-10.53927612,-2.276885748,10.78254721
32.03330785,-0.2896983922,-9.684545517,-1.460463047,9.798331457
32.0383127,-0.7637503147,-9.220070839,-1.237802267,9.33408674
32.04331801,-1.517923832,-8.791508675,-1.168370485,8.997766786
32.04829208,-2.48996973,-8.327033043,-0.8523358107,8.733035262
32.05329585,-3.529053211,-7.800309181,-1.41257906,8.677235706
32.05830108,-4.556165695,-7.309497833,-1.812410712,8.801831457
32.06330716,-5.363011837,-6.79953289,-1.197100878,8.74234488
32.06831054,-5.331887245,-6.4715271,-0.5506663918,8.403149295
32.07286939,-5.68144083,-6.162675381,-0.3303998411,8.388474343
32.07829301,-5.999869347,-5.750872612,-0.2513911724,8.314695755
32.08329578,-5.386953831,-5.686229229,-0.3519476354,7.840685018
32.08830016,-4.450820923,-5.736507416,-0.5674257874,7.282808266
32.09330531,-3.780444384,-5.896918774,-0.5530605912,7.026470435
32.09831001,-2.949656487,-6.179434776,-0.3208230138,6.854838798
32.10331578,-1.865083098,-6.50983429,-0.2226607651,6.775400745
32.10831978,-1.22822547,-6.959944248,-0.349553436,7.076125306
32.11329462,-0.7805097699,-7.378929615,-0.4213795066,7.432049411
32.11829916,-0.1891419291,-7.821856976,-0.4548983276,7.837356296
32.12330447,0.4453215301,-8.339004517,-0.5243301988,8.367331101
32.12830962,0.7829039693,-8.719682693,-0.5961562395,8.775033172
32.13286693,0.9457096457,-8.995016098,-0.5889736414,9.063750399
32.13784108,1.048660398,-9.26556015,-0.6895300746,9.350173541
32.14284562,1.00317049,-9.452308655,-0.8044517636,9.539372756
32.14829854,0.8786720037,-9.605537415,-0.8930372596,9.686894707
32.15330285,0.7278373241,-9.641449928,-0.8523358107,9.706378327
32.15786254,0.5841852427,-9.634267807,-0.6895300746,9.676561388
32.16328231,0.2777273953,-9.48343277,-0.5267243981,9.502108618
32.16787085,-0.05746084079,-9.344569206,-0.5506663918,9.360956622
32.17329178,-0.4955997467,-9.026140213,-0.7326257229,9.06937521
32.17784939,-0.9121908545,-8.719682693,-0.7900865674,8.802794739
32.18330139,-1.350329757,-8.281543732,-0.8331822157,8.432173482
32.18830654,-1.63763392,-7.99423933,-1.00556469,8.221974682
32.19331185,-1.8602947,-7.797914982,-1.11569798,8.094007439
32.19831708,-1.968033791,-7.663839817,-1.060631394,7.983266042
32.20332101,-2.003946781,-7.55131197,-0.9361328483,7.868574196
32.20829616,-1.917755604,-7.51061058,-0.9720458984,7.812293586
32.21330047,-1.757344007,-7.539340973,-1.012747288,7.807405288
32.21830593,-1.467645645,-7.704541206,-1.221042871,7.93756163
32.22331032,-1.235408068,-8.104372978,-1.436521053,8.322901369
32.22786724,-0.9074024558,-8.530540466,-1.446097851,8.699695331
32.23284293,-0.5267243981,-9.018958092,-1.383848548,9.139698051
32.23829762,-0.04309562966,-9.730035782,-1.314416766,9.818510324
32.24329985,0.3136404157,-10.26394272,-1.443703651,10.36972375
32.24830354,0.5123591423,-10.67574501,-1.776497602,10.83466599
32.25286193,0.6823474765,-10.96783829,-2.236184359,11.21425857
32.2578377,0.7565677166,-11.09712505,-2.60010314,11.42274553
32.26328808,0.7733271718,-11.06599998,-2.906560898,11.46745337
32.26829332,0.653617084,-10.93192482,-2.949656487,11.34172249
32.27329893,0.3471592367,-10.80982113,-2.93768549,11.2072632
32.27830316,-0.141257897,-10.69729328,-2.908955097,11.08666122
32.28330785,-0.5530605912,-10.71165848,-2.803610086,11.0862858
32.28831301,-0.9050082564,-10.74038887,-2.868253708,11.15355873
32.29331739,-1.223437071,-10.61349583,-3.004723072,11.0982635
32.29829185,-1.125274777,-10.69729328,-3.548206806,11.32643361
32.30329708,-0.6823474765,-10.723629,-3.933673382,11.44270961
32.30830139,-0.174776718,-10.77630138,-4.120420933,11.53850454
32.31330662,0.5291185975,-10.7092638,-3.830722809,11.38607636
32.3183137,1.831564307,-10.47463226,-2.707842112,10.97291929
32.32331678,2.93529129,-10.3501339,-1.541865945,10.86823616
32.3283207,3.974374771,-10.26873112,-0.3303998411,11.01597284
32.33329547,4.903325081,-10.35731697,0.7733271718,11.48541016
32.33830047,5.741295815,-10.69489861,1.625662923,12.2468818
32.34330562,6.167463779,-11.20486355,1.824381709,12.9195567
32.34786355,6.270414352,-11.79144382,1.620874524,13.45300999
32.35328416,5.908889771,-12.42351246,0.8858546019,13.78562217
32.35831985,5.23611927,-13.05797577,-0.1053448766,14.06907153
32.36329424,4.407725334,-13.40513515,-1.206677675,14.16268909
32.36829924,3.387795448,-13.73792934,-2.240972757,14.32584446
32.37330416,2.04704237,-14.19282722,-3.191470861,14.69054844
32.37830878,0.7015010715,-14.48731422,-3.275267839,14.8694908
32.3833137,-1.110909581,-14.52801609,-3.330334663,14.94618682
32.38831885,-2.932897091,-14.29577827,-3.524264812,15.0130478
32.39329239,-4.788403511,-13.8265152,-3.797203779,15.11688087
32.39830008,-5.638344765,-13.57751751,-4.01507616,15.24010335
32.40330285,-5.923254967,-13.45301914,-4.158728123,15.27624604
32.40830785,-5.75805521,-13.35485744,-3.983951569,15.07910101
32.41331332,-5.054159641,-13.50329781,-3.943250179,14.94766882
32.41831762,-4.438849926,-13.70201588,-4.060565948,14.96451882
32.42329208,-3.833117008,-13.95101357,-4.19464159,15.06381703
32.42829708,-3.15795207,-14.18803883,-4.187458992,15.12639811
32.43330139,-2.336740971,-14.28859615,-3.919308186,14.99951049
32.43830685,-1.948880196,-14.07311726,-3.440467834,14.61805672
32.44331124,-1.989581585,-13.66370869,-2.932897091,14.11585121
32.44831578,-2.513911724,-13.15853214,-2.051830769,13.55273883
32.45287393,-2.827552319,-12.6629324,-0.5219359994,12.98527343
32.45784847,-3.351882458,-12.49533844,1.37427175,13.00988938
32.46329985,-3.885789394,-12.72996998,2.142810583,13.48121404
32.46785801,-4.556165695,-13.05558205,2.351106167,14.02621006
32.47286262,-5.02064085,-13.43626022,2.48996973,14.55815485
32.47783832,-5.38934803,-13.69004536,3.299209833,15.07803699
32.48284262,-5.781997204,-13.73553562,4.122815132,15.46266585
32.48784755,-5.983109951,-13.72116947,4.568136692,15.65043032
32.49329924,-6.409277916,-13.77863121,4.304774761,15.79432199
32.49830408,-6.971915245,-13.94622517,3.562572241,15.99364622
32.50330847,-7.426813602,-14.43703651,2.363077164,16.40639257
32.50831401,-7.493851185,-15.47612,0.5219359994,17.20292164
32.51331793,-7.177816868,-16.46253014,-0.9983820915,17.98701532
32.5182937,-6.727706909,-17.23825264,-2.205059767,18.63549524
32.52329793,-6.138733387,-17.6859684,-2.911349297,18.94606768
32.52830224,-5.23851347,-17.74103546,-3.394978046,18.80723899
32.53330778,-4.604049683,-17.46570206,-3.612850428,18.42011699
32.53831178,-4.216189384,-16.93418884,-4.096478939,17.92551657
32.54331732,-4.311957359,-16.04833412,-4.352658749,17.17811522
32.54829216,-2.803610086,-15.42823601,-3.404554844,16.04623599
32.55284932,-2.217030764,-14.71715832,-3.521870613,15.29423247
32.55785516,-1.606509328,-14.14254951,-2.066195965,14.38268907
32.5628607,0.3663128614,-13.88397598,0.383072257,13.89408934
32.56783309,2.087743998,-13.69483376,0.7422025204,13.87292367
32.57283855,2.126051188,-13.06755257,0.5793967843,13.25204604
32.57784416,2.128445387,-12.75630665,0.6560112834,12.9492853
32.58284808,2.504334927,-12.53843403,0.6679822803,12.8035238
32.58830039,2.559401512,-11.99255657,0.7541735172,12.2857937
32.5933047,2.149993181,-11.3173914,0.7469909191,11.54399472
32.59786316,1.604115129,-10.66616821,0.8571242094,10.82011976
32.60328532,0.8116343617,-9.81143856,1.211466074,9.919209999
32.60831985,0.3639186621,-9.109937668,1.345541358,9.215958043
32.61329362,-0.09097966552,-8.413225174,1.482010841,8.543242433
32.61829916,-0.6775590777,-7.584830761,1.632845521,7.788127405
32.62330408,-1.328781962,-6.514622688,1.989581585,6.940058008
32.62830939,-1.78128612,-5.657498837,2.099714994,6.291985091
32.63331432,-1.9321208,-4.94402647,2.102109194,5.709233888
32.6383207,-2.063801765,-4.30956316,2.15478158,5.241631045
32.64284601,-2.33913517,-3.761290789,2.085349798,4.895665994
32.6482977,-2.37744236,-3.224989653,1.951274395,4.456485409
32.65285608,-2.353500366,-3.016694069,1.699883223,4.186766061
32.65830839,-2.068590164,-2.925714493,1.333570361,3.823255219
32.66331185,-1.817199111,-3.009511471,0.8906430602,3.626653687
32.66787055,-1.726219416,-3.095702887,0.7254431248,3.617938302
32.67329155,-1.745373011,-3.210624456,0.5746083856,3.699271704
32.67829678,-1.731007814,-3.268085241,0.4836287498,3.72970052
32.68330162,-1.707065821,-3.248931646,0.586579442,3.716679432
32.68786016,-1.647210717,-3.220201254,0.7038952708,3.68489726
32.69283332,-1.752555609,-3.258508444,0.6224924326,3.75190955
32.69828562,-1.953668594,-3.263296843,0.691924274,3.865835804
32.70329085,-2.188300371,-3.23456645,0.6895300746,3.965668967
32.70829647,-2.334346771,-3.174711466,0.7852981687,4.01804193
32.71329985,-2.434903145,-3.059789658,0.9457096457,4.023112328
32.71830716,-2.920926094,-2.870647907,1.132457376,4.249104419
32.72331147,-2.93529129,-2.667140722,1.144428372,4.127867596
32.72831585,-2.913743496,-2.434903145,1.216254473,3.987220765
32.73331985,-2.925714493,-2.315192938,1.37666595,3.976824458
32.73829493,-2.748543501,-2.260126352,1.443703651,3.840174832
32.74329916,-2.525882721,-2.279279947,1.388636947,3.674712665
32.74830408,-2.358288765,-2.30561614,1.280897856,3.538091435
32.7533087,-2.272097349,-2.382230759,1.134851575,3.482145581
32.75831424,-2.410961151,-2.389413357,0.8834604025,3.507496564
32.76331824,-2.585737944,-2.365471363,0.6799532771,3.569850409
32.76829362,-2.758120298,-2.37744236,0.4620809257,3.670555617
32.77329855,-2.940079689,-2.387019157,0.1843535304,3.791558421
32.77830262,-3.090914488,-2.545036316,-0.2466027737,4.01145549
32.78330755,-3.136404276,-2.777273893,-0.5913678408,4.230838922
32.78831208,-3.155557871,-3.071760893,-0.9959878922,4.515003028
32.79331793,-3.062183857,-3.500322819,-1.577778935,4.911070777
32.7982937,-2.813186884,-4.173093796,-2.683900118,5.703687589
32.80329701,-2.511517525,-4.841075897,-3.754108191,6.620956459
32.80830232,-2.169146776,-5.64552784,-4.922478676,7.797947079
32.81330685,-1.872265697,-6.464344501,-6.270414352,9.198435999
32.81831185,-1.644816518,-7.740454197,-8.731653214,11.78396454
32.82286908,-1.37666595,-8.935160637,-11.0085392,14.24500755
32.82829024,-1.031900883,-10.23042393,-11.22162342,15.22009282
32.83329585,-0.5027823448,-11.53286934,-10.23760605,15.42946671
32.83830078,-0.007182605099,-12.98614979,-9.066842079,15.83817424
32.84330501,-0.004788403399,-14.27423096,-8.65743351,16.69445559
32.84786201,-0.8786720037,-15.88074017,-10.40998936,19.00888874
32.8528377,-1.800439715,-17.75779343,-12.72518158,21.92056242
32.85828878,-2.408566952,-19.9939785,-17.23106956,26.50415306
32.86329401,-2.470816135,-22.12960625,-25.32347107,33.72095183
32.86829924,-0.8283938169,-23.77202797,-26.23326874,35.41157916
32.87285678,2.169146776,-23.80794144,-22.23016357,32.64511366
32.87786355,4.185064793,-22.24452782,-17.34359741,28.5155073
32.88328355,4.151545525,-18.41859436,-12.47857952,22.63172321
32.88831947,3.19865346,-14.32450867,-10.29746151,17.92932364
32.89329362,2.434903145,-9.030928612,-9.957485199,13.66154956
32.89829824,2.149993181,-5.609614372,-10.76433086,12.3272488
32.90330355,1.798045516,-3.399766445,-11.10191345,11.74920686
32.90830755,1.838746905,-2.427720547,-10.42195988,10.85781124
32.91331247,1.742978811,-2.363077164,-8.334216118,8.836360513
32.91831855,1.285686255,-3.258508444,-6.58405447,7.457924623
32.92329208,0.2849099934,-4.46039772,-4.151545525,6.10013539
32.92829647,-1.482010841,-5.736507416,-0.9792284966,6.005227882
32.93285486,-3.665522814,-7.24724865,1.879448295,8.336125982
32.93785978,-6.210559368,-9.528923035,4.242525578,12.13962294
32.94328078,-7.776367188,-11.6765213,5.082890034,14.92142109
32.94831586,-9.047688484,-14.1856451,5.085284233,17.57706772
32.95332262,-8.932766914,-17.74582291,4.295197964,20.32627071
32.95829739,-7.989450932,-20.82955551,2.887407303,22.49530684
32.96330039,-7.158663273,-24.10242844,0.758961916,25.1545133
32.96830539,-5.556941986,-26.81745338,-1.982398987,27.45879305
32.97286232,-4.216189384,-27.00180626,-4.165910721,27.64468496
32.9778367,0.9169792533,-24.86378479,-10.06761837,26.84037229
32.98328939,2.772485495,-20.98757172,-11.10430717,23.90544876
32.98829524,1.15161097,-14.25028896,-1.544260144,14.37990552
32.99329832,-1.589749932,-8.437167168,7.472303391,11.38193361
32.9983047,-3.694253206,-4.527435303,8.741230011,10.51447951
33.00330909,-4.857835293,-2.142810583,5.614402771,7.727335854
33.00831424,-8.010998726,0.2537853718,1.328781962,8.124418078
33.01331824,-9.868899345,1.774103403,-3.500322819,10.62049326
33.01829362,-10.57758331,2.571372509,-5.959167957,12.41003256
33.02329801,-9.684545517,2.45405674,-2.779668093,10.37011914
33.02830347,-8.183381081,1.350329757,1.814804912,8.49026697
33.03286047,-7.077260017,0.0718260482,4.110844135,8.184852341
33.03828416,-5.592854977,-1.546654344,5.128379822,7.744187888
33.0433177,-3.672705412,-3.881000996,7.127538681,8.908015571
33.0482927,-2.573766708,-6.983886242,11.877635,14.0170309
33.0528497,-2.983175278,-8.846575737,15.34922695,17.96552268
33.05785432,-3.392583847,-10.55364132,17.21909904,20.47892434
33.06285955,-3.79241538,-12.20803452,16.77856636,21.09357272
33.06828078,-4.426878929,-13.95340729,14.47294903,20.58545811
33.07331609,-4.137180328,-14.99727917,12.6629324,20.05952393
33.07832193,-2.796427488,-16.1345253,9.880870819,19.12523259
33.08329555,0.1197100878,-17.51119041,3.586514235,17.87510013
33.08830009,3.974374771,-19.51513863,-5.640739441,20.69913602
33.09285801,8.611943245,-21.11925316,-15.51442719,27.58415979
33.09786255,9.703699112,-21.20544434,-17.51837349,29.16720857
33.10328532,6.68461132,-19.20389175,-13.49850941,24.40662294
33.10832039,4.204218388,-16.72828674,-8.789113998,19.35870746
33.11329432,3.174711466,-14.04678154,-4.393360138,15.05631023
33.11830109,2.286462545,-11.90875912,-1.563413739,12.22663965
33.12330478,1.575384736,-10.13465595,-0.9337386489,10.29878421
33.12830901,1.122880578,-9.344569206,-1.383848548,9.51298435
33.13331401,0.3711012602,-8.719682693,-0.8930372596,8.773146412
33.13831855,-0.6679822803,-7.939172745,-0.1005564705,7.967858922
33.14329278,-2.365471363,-6.845022678,-0.05746084079,7.242450689
33.14785032,-3.265691042,-6.229712963,-0.04788403213,7.033943024
33.15285555,-3.962403774,-5.820304394,0.383072257,7.05147724
33.15786009,-4.283226967,-5.609614372,1.312022567,7.178802816
33.16328224,-5.432443619,-5.224148273,1.22822547,7.636210229
33.16831801,-5.621585369,-5.269638062,0.4692635238,7.719554107
33.17329186,-5.492298603,-5.473145008,-0.1867477298,7.755999932
33.17784878,-4.888959885,-5.770026207,-0.6440402865,7.590119833
33.18330286,-3.620033026,-6.208165169,-0.8978256583,7.242378393
33.18830563,-2.410961151,-6.665457726,-0.7829039693,7.131198987
33.19331093,-1.316810966,-7.144298077,-0.7134721279,7.299590989
33.19831793,-0.3711012602,-7.802703381,-0.7781155705,7.850182166
33.20329062,0.01675941236,-8.276755333,-0.9552865028,8.331718432
33.20829578,0.1604115069,-8.640673637,-1.218648672,8.72766162
33.21330078,0.2011129409,-8.860940933,-1.436521053,8.978881521
33.2183047,0.1771709323,-9.033323288,-1.640028119,9.182701748
33.22331062,0.1628057212,-9.160215378,-1.70946002,9.31978031
33.22831486,0.09816227108,-9.267954826,-1.728613615,9.428293988
33.23332047,-0.09576806426,-9.339780807,-1.766920805,9.505929002
33.23829432,-0.323217243,-9.346963882,-1.845929503,9.532977443
33.24329886,-0.3926490843,-9.270348549,-1.738190413,9.440065754
33.24830386,-0.5650315881,-9.220070839,-1.604115129,9.37561477
33.25330932,-0.7757213712,-9.117119789,-1.589749932,9.287137435
33.25831309,-1.132457376,-8.750806808,-1.316810966,8.921494865
33.26331886,-1.359906554,-8.415618896,-1.055842996,8.589923846
33.2682937,-1.544260144,-8.204929352,-0.8307880163,8.390221319
33.27329832,-1.656787634,-7.965508938,-0.6153098345,8.159220802
33.27830532,-1.687912226,-7.663839817,-0.3471592367,7.855189874
33.28330809,-1.630451322,-7.410054207,-0.2274491638,7.590718542
33.2883127,-1.572990537,-7.254431248,-0.1149216816,7.423899174
33.2933177,-1.441309452,-7.228095055,-0.06464344263,7.370679062
33.29829178,-1.268926859,-7.338228226,-0.009576806799,7.447137744
33.30329739,-1.084573388,-7.522581577,0.09097966552,7.600908519
33.30830139,-0.8595184088,-7.790732384,0.1508347094,7.839453685
33.31330655,-0.5889736414,-8.020575523,0.1316810995,8.043249442
33.31831155,-0.517147541,-8.317456245,-0.1053448766,8.334183674
33.32331616,-0.4836287498,-8.492233276,-0.5219359994,8.52199155
33.32832101,-0.4764461517,-8.65743351,-1.029506683,8.731439739
33.33329493,-0.3208230138,-8.796297073,-1.580173135,8.942858421
33.33830016,-0.04788403213,-8.860940933,-2.121262789,9.111439125
33.3433057,0.2849099934,-8.925583839,-2.827552319,9.367084535
33.34831062,0.6440402865,-8.937555313,-3.454833031,9.603673992
33.35331493,1.146822572,-8.980650902,-3.806780815,9.82134781
33.35832293,1.477222443,-9.229647636,-3.643975019,10.0323046
33.36329524,1.814804912,-9.543288231,-3.169923067,10.21842842
33.36829947,2.135627985,-9.883264542,-2.571372509,10.43320571
33.37330378,2.422932148,-10.31900978,-1.889025092,10.76666052
33.37830847,2.631227732,-10.6206789,-1.553836942,11.05154238
33.3833137,2.71502471,-10.86967564,-1.441309452,11.29595417
33.38831801,2.724601507,-11.06839466,-1.553836942,11.50422631
33.39284655,2.547430515,-11.12346077,-1.630451322,11.52732203
33.39785055,2.181117773,-11.04684639,-1.539471745,11.36486089
33.40330316,2.020706177,-11.00614548,-1.541865945,11.29583296
33.40786009,2.061407566,-10.95347309,-1.604115129,11.26060208
33.41283555,2.032677174,-10.97502041,-1.678335428,11.28714575
33.41784078,2.063801765,-10.84333992,-1.403002143,11.12680158
33.42284478,2.001552582,-10.83376312,-1.101332784,11.07201743
33.42784962,1.872265697,-10.89840603,-0.8116343617,11.08780335
33.43330139,1.67115283,-11.09712505,-0.7924807668,11.25019831
33.43830786,1.496376038,-11.32696819,-1.039083481,11.47253434
33.44331216,1.22583127,-11.5783596,-1.539471745,11.74440491
33.44831578,0.7805097699,-11.88002872,-2.286462545,12.12320869
33.45332109,0.4285621047,-12.28704357,-2.930502892,12.63894586
33.45829555,0.1029506698,-12.71799946,-3.562572241,13.20795329
33.46330047,-0.3064578176,-13.19444561,-4.13239193,13.82982192
33.46830624,-1.017535686,-13.64694977,-4.42209053,14.38156812
33.47331032,-1.673547029,-13.86242771,-4.5370121,14.68169406
33.47831547,-2.217030764,-14.04678154,-4.551377296,14.93125354
33.48332009,-2.542642117,-14.28859615,-4.414907932,15.16972053
33.4882937,-2.509123325,-14.51365089,-3.845088005,15.2225643
33.49329947,-2.133233786,-14.65011978,-3.110068083,15.1277632
33.49830416,-1.63763392,-14.87996387,-2.379836559,15.1577964
33.50330962,-0.9768342972,-15.13614273,-1.74776721,15.26799634
33.50831339,-0.1915361285,-15.46414852,-1.807622313,15.57061572
33.51331893,0.1915361285,-15.66047287,-2.056619167,15.79610012
33.51784693,0.4979939461,-15.57667637,-2.121262789,15.7283375
33.52329824,0.3303998411,-15.157691,-1.984793186,15.29065612
33.52830324,-0.5530605912,-14.37957573,-1.568202138,14.47540439
33.53330747,-1.398213744,-13.96777248,-0.8236053586,14.06172093
33.53831216,-2.26730895,-13.92228317,0.09576806426,14.10602106
33.5433174,-3.473986626,-13.97256088,0.9385270476,14.42850906
33.54829124,-4.57771349,-14.34126854,1.601720929,15.13911999
33.5532967,-5.133168221,-14.62138939,2.011129379,15.62623067
33.55830132,-5.736507416,-14.70997524,2.387019157,15.96836715
33.56330716,-6.775590897,-14.73391724,2.71502471,16.44288017
33.56786386,-7.445967197,-14.76025391,2.983175278,16.79901359
33.57328563,-8.355764389,-14.81771469,3.445256233,17.3566488
33.57832078,-9.064447403,-14.97573185,3.232172251,17.80122717
33.58329616,-10.06522369,-15.26782417,2.183511972,18.41691906
33.58830016,-10.67095661,-15.64131927,0.7469909191,18.94935828
33.59330478,-10.77630138,-16.1153717,-0.8044517636,19.4031188
33.5983127,-10.14902115,-16.48407936,-1.903390408,19.45123126
33.60331616,-8.959102631,-16.57266426,-2.41335535,18.99323576
33.60832016,-7.891288757,-16.41225243,-2.468421936,18.37736583
33.61329393,-7.041347027,-15.96214294,-2.176329374,17.58143865
33.61829986,-6.035782337,-15.35641003,-2.099714994,16.63306347
33.6233044,-4.75249052,-14.53998661,-2.473210335,15.495617
33.62830901,-4.630385876,-13.67089176,-3.165134668,14.7767328
33.63331401,-4.259284973,-12.71560478,-3.493140221,13.85749408
33.63831832,-2.389413357,-12.37802315,-2.8969841,12.93511771
33.64329247,-0.7158663273,-12.05959415,-2.547430515,12.34648444
33.64829801,0.8188169599,-12.10029507,-0.2633621991,12.13082691
33.65285493,2.841917515,-12.59828949,1.929726601,13.05822492
33.65830816,3.938461781,-12.61026001,1.675941229,13.31686591
33.6633124,4.273650169,-12.30859089,0.7086837292,13.04866767
33.66831793,4.90811348,-12.23915863,0.02394201607,13.18662789
33.67329216,4.903325081,-11.94467258,-0.5363011956,12.92305765
33.67829763,4.367023945,-11.55681133,-0.2681505978,12.35729303
33.6833017,3.849876404,-11.04924107,0.1388636976,11.70156227
33.68830624,2.920926094,-10.38844109,0.3184288144,10.7959675
33.69331178,1.776497602,-9.651026726,0.5937620401,9.831114583
33.69831616,0.6129156351,-8.729259491,1.07739079,8.816825265
33.7033217,0.107739076,-8.056488991,1.436521053,8.184266327
33.70829578,-0.4429273009,-7.302315235,1.752555609,7.522728464
33.71330109,-0.9672574997,-6.478709698,1.97042799,6.840457067
33.71830563,-1.510741234,-5.499481201,1.958456993,6.030106662
33.7233094,-1.9321208,-4.809951305,1.786074519,5.482589218
33.72831578,-2.355894566,-4.225766182,1.740584612,5.141689783
33.73332009,-2.707842112,-3.758896589,1.881842494,5.000304355
33.73829455,-2.961627483,-3.213018656,1.690306425,4.685281426
33.74329924,-3.01429987,-2.863465309,1.199495077,4.327149838
33.74830509,-2.947262287,-2.679111719,0.8140285611,4.065296679
33.75330932,-2.875436306,-2.580949545,0.4525041282,3.890269205
33.75831524,-2.827552319,-2.557007313,0.2681505978,3.821680685
33.76331886,-2.78924489,-2.607285738,0.181959331,3.8224253
33.76829393,-2.652775526,-2.738966703,0.03112462163,3.813151628
33.77329763,-2.590526342,-2.908955097,-0.08379705995,3.896135064
33.77830324,-2.650381327,-3.134010077,-0.2130839527,4.109981157
33.78330747,-2.700659513,-3.256114244,-0.2250549644,4.236329959
33.78831301,-2.837129116,-3.392583847,-0.2082955539,4.427450036
33.7933177,-2.887407303,-3.552995205,-0.1651999205,4.581286596
33.79829209,-2.968810081,-3.79241538,-0.0023942017,4.816248898
33.80329709,-3.033453465,-3.924096584,0.2657563984,4.96699108
33.8083014,-3.093308687,-4.031835556,0.4620809257,5.102722349
33.81286009,-3.08373189,-4.09169054,0.6177040339,5.160706552
33.81783424,-3.023876667,-4.13239193,0.7900865674,5.181190012
33.82328601,-2.959233284,-4.180276394,0.8810662031,5.196926978
33.82832232,-2.920926094,-4.216189384,0.9457096457,5.21559478
33.83329516,-2.853888512,-4.256890774,0.9121908545,5.205563452
33.83830324,-2.71502471,-4.254496574,0.8667010069,5.120866227
33.8433057,-2.614468336,-4.290409565,0.7924807668,5.086362618
33.84831024,-2.473210335,-4.338293552,0.6655880809,5.03791304
33.85331486,-2.190694571,-4.443638325,0.5051765442,4.979986707
33.8578727,-1.89860189,-4.517858505,0.3088520169,4.910307951
33.86284747,-1.656787634,-4.618414879,0.04548983276,4.906808594
33.86829986,-1.340752959,-4.702212334,-0.2346317619,4.89524988
33.87330324,-0.9744400978,-4.857835293,-0.7422025204,5.009886408
33.87830909,-0.806845963,-4.910507679,-1.314416766,5.14701637
33.88331432,-0.739808321,-4.90571928,-1.975216389,5.339932377
33.88831955,-0.6943184733,-4.888959885,-2.688688517,5.622548607
33.89329278,-0.7541735172,-4.967968464,-3.732560396,6.259512398
33.89829893,-1.00317049,-5.049371243,-4.671087742,6.951371208
33.90330293,-1.350329757,-5.212177277,-5.736507416,7.86750912
33.90830786,-1.862688899,-5.374982834,-6.873753071,8.922361329
33.91286447,-2.365471363,-5.585672379,-7.862558365,9.930509289
33.91828909,-2.97359848,-5.920860767,-8.736441612,10.96468386
33.92329147,-3.521870613,-6.253654957,-9.241618156,11.70125118
33.92829647,-4.302380562,-6.818686485,-9.81143856,12.69918464
33.93285486,-4.594472885,-7.635109425,-10.16817474,13.52020172
33.93785893,-4.508281708,-9.081207275,-10.56800652,14.64498861
33.94328047,-3.957615376,-10.56800652,-10.51533413,15.4245821
33.94831616,-3.004723072,-12.67011547,-10.15141487,16.51094821
33.95332193,-2.109291792,-14.47773743,-9.967061996,17.70300307
33.95829647,-1.185129881,-16.35479164,-10.72123528,19.59154482
33.96330132,-0.2394201756,-18.47844887,-12.16972733,22.12719272
33.96830593,0.988805294,-21.04742622,-14.08508873,25.34485374
33.97330993,1.419761658,-22.22537422,-14.97333717,26.83624058
33.97831547,2.178723574,-22.34987259,-14.88954067,26.94368317
33.9833204,2.940079689,-21.81596565,-13.69483376,25.92544884
33.98829455,3.074155092,-19.7784996,-12.20085144,23.44142171
33.99285209,2.37744236,-17.83680344,-11.83453941,21.53741192
33.99830601,1.350329757,-13.66131496,-12.16972733,18.34549482
34.00330963,0.5602431893,-9.885659218,-12.99572659,16.33796316
34.00831401,0.4141969085,-5.482721806,-14.14494324,15.17600793
34.01331893,0.5410895944,-2.932897091,-14.27662468,14.58480975
34.0182927,0.8044517636,-1.446097851,-13.24472427,13.34769878
34.02285001,0.7422025204,-0.8523358107,-11.30542088,11.36177284
34.02830255,0.1675941199,-1.666364431,-8.379706383,8.545427858
34.03330786,-1.15161097,-3.301604033,-6.260837555,7.171114551
34.03831278,-2.760514498,-5.061342239,-4.151545525,7.104432124
34.04331701,-4.13239193,-6.742072105,-0.8283938169,7.951002179
34.04829216,-5.564124584,-8.841787338,2.607285738,10.76729421
34.05329701,-7.687781811,-10.57518864,5.458779812,14.16809376
34.05830201,-9.885659218,-12.28704357,7.295132637,17.37574914
34.06330663,-11.37006378,-14.73152351,8.24802494,20.35500064
34.06831093,-11.51850414,-16.92221832,7.491456985,21.79814989
34.0733167,-11.2838726,-19.34036064,5.178658485,22.98246798
34.07832286,-9.866505623,-21.89258003,0.7852981687,24.02602104
34.08329616,-6.698976517,-24.8446312,-4.900930882,26.19448623
34.0883004,-3.660734415,-25.56289101,-7.910442352,27.0081001
34.09285832,-0.4309563041,-23.67865562,-10.85770512,26.05291185
34.09831063,1.434126854,-20.3578968,-11.65976238,23.5042707
34.10286786,1.45088625,-16.28057098,-7.869740963,18.14097256
34.1078417,0.1604115069,-11.50174522,0.672770679,11.52252123
34.11329486,-1.364694953,-5.916072369,8.003816605,10.04606315
34.11829886,-3.292027235,-2.916137695,8.054094315,9.176586381
34.12330447,-5.712565422,-0.7924807668,4.740519524,7.46551772
34.1283094,-7.32146883,0.282515794,0.9265560508,7.385270958
34.1333134,-7.802703381,0.8164227605,-1.889025092,8.069519315
34.13831855,-7.115567684,0.787692368,-1.508347034,7.316206224
34.14329363,-5.317522049,-0.117315881,1.795651317,5.613748071
34.14829855,-4.106055737,-1.259350061,4.09408474,5.933564371
34.15330286,-2.707842112,-2.707842112,5.743690014,6.90324509
34.15830932,-1.230619669,-4.604049683,7.520187378,8.903084659
34.16331309,-1.419761658,-6.95276165,10.34295177,12.54325592
34.16831732,-1.740584612,-8.599972725,12.73954678,15.46884668
34.17329209,-1.733402014,-10.11789608,13.70201588,17.12079854
34.17829701,-1.618480325,-11.79383755,12.70363426,17.40966416
34.18330163,-1.22822547,-13.02445698,10.96783829,17.07156976
34.18830601,-0.8188169599,-14.08269405,8.602366447,16.52251317
34.19331155,-0.04548983276,-15.01643276,5.772420406,16.08776428
34.19831647,1.651999116,-16.04354477,1.019929886,16.16059055
34.20332163,3.53384161,-16.75701714,-4.666299343,17.74992984
34.20829609,4.623203278,-17.12093544,-9.358934402,20.05218422
34.21329978,4.297592163,-16.8815155,-10.9893856,20.59663711
34.21830563,3.074155092,-15.63413715,-9.706093788,18.65703435
34.22330994,2.051830769,-14.33887386,-7.532158375,16.32625869
34.22831486,1.244984865,-13.08191776,-5.430049419,14.21871993
34.2333207,0.490811348,-11.90397072,-3.969586372,12.55798673
34.23829586,-0.3375824392,-10.64701462,-2.576161146,10.95944745
34.24329894,-1.022324085,-9.81143856,-1.56101954,9.9873047
34.24830416,-1.70946002,-9.119514465,-0.9433154464,9.326180444
34.25330994,-2.276885748,-8.547300339,-0.4165911078,8.855173626
34.2583137,-3.543418407,-7.544129372,-0.4070142806,8.344780561
34.26331863,-4.288015366,-6.754043102,-0.2226607651,8.003358784
34.26829186,-4.999093056,-6.119579315,0.0359130241,7.901991655
34.27329801,-5.461174011,-5.789179802,0.0191536136,7.958604854
34.27830232,-5.422866821,-5.738901615,0.01675941236,7.895742979
34.28330755,-4.850652695,-5.91128397,0.1915361285,7.64910425
34.28831247,-4.316745758,-5.995080948,0.0191536136,7.387533849
34.2933177,-3.134010077,-6.361393929,-0.1244984865,7.092591328
34.29829124,-2.334346771,-6.758831501,-0.3040636182,7.157054757
34.30284901,-1.606509328,-7.20894146,-0.4189853072,7.397652187
34.30785455,-0.8331822157,-7.637503624,-0.3998316824,7.693212566
34.31285955,-0.2106897533,-8.152256966,-0.4046200812,8.165010791
34.3178364,0.1771709323,-8.595184326,-0.4596867263,8.609291203
34.32328717,0.5482721925,-8.997409821,-0.6440402865,9.037077723
34.32829063,0.7996633649,-9.246406555,-1.000776291,9.334722752
34.33329586,1.022324085,-9.514557838,-1.414973259,9.673371011
34.33785301,1.079784989,-9.622296333,-1.620874524,9.817421075
34.34330563,1.209071875,-9.801861763,-1.934514999,10.06383113
34.34830963,1.144428372,-9.895236015,-2.018311977,10.16361133
34.35331586,1.072602391,-9.902418137,-2.104503393,10.18024044
34.3578727,0.8403648138,-9.832986832,-2.128445387,10.09574776
34.36329463,0.5219359994,-9.689333916,-2.030282974,9.913508858
34.3678527,0.2609679997,-9.516951561,-1.924938202,9.713179623
34.37330501,-0.2250549644,-9.260771751,-1.74776721,9.42694189
34.37786101,-0.6200982332,-8.971074104,-1.493981838,9.115737718
34.38283609,-0.9911994934,-8.611943245,-1.235408068,8.75638487
34.38828786,-1.244984865,-8.334216118,-1.029506683,8.489348009
34.39284624,-1.386242747,-8.125920296,-0.8164227605,8.283646282
34.39785278,-1.623268723,-7.915230751,-0.4812345505,8.094286002
34.40330294,-1.572990537,-7.826645374,-0.316034615,7.989402664
34.40830809,-1.446097851,-7.845798969,-0.1987187415,7.980429161
34.41331332,-1.249773264,-7.888894558,-0.107739076,7.988003397
34.41831801,-1.031900883,-7.943961143,0.02154781483,8.010730453
34.42329247,-0.8355764151,-8.128314972,0.1005564705,8.171768709
34.42829732,-0.6607996821,-8.482656479,0.1292868853,8.509337945
34.4333017,-0.5003881454,-8.731653214,0.0023942017,8.745979755
34.43830686,-0.3974374831,-8.966285706,-0.2178723514,8.977733805
34.44331186,-0.3351882398,-9.160215378,-0.4118026793,9.175591445
34.44786909,-0.3758896589,-9.337387085,-0.517147541,9.359248484
34.45329032,-0.383072257,-9.414001465,-0.6344634295,9.443130401
34.45829578,-0.3974374831,-9.39484787,-0.8978256583,9.446015772
34.4633004,-0.2992752194,-9.380482674,-1.256955862,9.469052692
34.4683057,-0.07900865376,-9.409213066,-1.738190413,9.568742801
34.47331063,0.1292868853,-9.425971985,-2.11647439,9.661528181
34.4783177,0.3351882398,-9.473855972,-2.542642117,9.814852371
34.48332017,0.6105214357,-9.538499832,-2.930502892,9.997177735
34.48829401,0.9648633003,-9.631873131,-3.253720045,10.21227866
34.49285186,1.244984865,-9.761159897,-3.330334663,10.38852053
34.49785732,1.479616642,-9.880870819,-3.201047659,10.49130972
34.50330847,1.589749932,-9.947908401,-2.925714493,10.49037615
34.5083134,1.690306425,-10.09395409,-2.662352324,10.57512008
34.51287155,1.683123827,-10.21366405,-2.497152328,10.6483618
34.51784601,1.67115283,-10.38604736,-2.456450939,10.80263314
34.52329771,1.750161409,-10.59913063,-2.511517525,11.03233227
34.52830263,1.790862918,-10.91277122,-2.679111719,11.37863812
34.53330778,1.879448295,-11.11149025,-2.798821688,11.61167276
34.53831247,2.068590164,-11.35330486,-2.786850691,11.87194733
34.54331763,2.446874142,-11.50653362,-2.585737944,12.04464818
34.54829155,2.688688517,-11.56878281,-2.212242365,12.08138228
34.55285001,2.815581083,-11.57357121,-1.759738207,12.0404205
34.55830355,2.834734917,-11.63582039,-1.379060149,12.05528287
34.56330686,2.662352324,-11.75553036,-1.070208192,12.10065946
34.56786417,2.463633537,-11.85608673,-1.022324085,12.15242483
34.57283832,1.965639591,-12.02368069,-1.350329757,12.2578965
34.57829063,1.367089152,-12.19845772,-1.807622313,12.40720766
34.58284878,0.6488286853,-12.40196514,-2.406172752,12.64987689
34.5883004,-0.3663128614,-12.8353157,-3.038241863,13.19509106
34.5933047,-1.180341482,-13.20881081,-3.210624456,13.64455929
34.59831024,-1.924938202,-13.53921032,-3.268085241,14.0604404
34.60286817,-2.576161146,-13.66610336,-3.289633036,14.29057987
34.60828932,-3.222595453,-13.71398735,-3.574543238,14.53395782
34.61329394,-3.56736064,-13.6062479,-3.763684988,14.56095356
34.61785301,-3.483563423,-13.35246277,-3.627215624,14.26815227
34.62330355,-2.772485495,-13.2279644,-3.248931646,13.90040556
34.6283097,-2.090138197,-13.33570385,-3.088520288,13.84733304
34.63331463,-1.422155857,-13.63976669,-3.347094059,14.11626018
34.63832109,-0.2705447972,-13.99171448,-3.696647406,14.47433835
34.6432927,0.3280056417,-14.2000103,-3.368641853,14.59779532
34.64829801,0.3064578176,-14.10184765,-2.770091295,14.37461058
34.65330232,-0.04788403213,-13.74032402,-2.26730895,13.92621582
34.65830778,-0.4070142806,-13.21120453,-1.438915253,13.29556553
34.66331186,-0.9576807022,-12.91432381,-0.6153098345,12.96439424
34.6683167,-1.862688899,-12.93587208,-0.04548983276,13.06937128
34.67284447,-2.643198729,-13.35725117,0.1628057212,13.61723775
34.67829678,-3.538630009,-14.10663605,1.022324085,14.57958262
34.68330194,-4.189853191,-14.72194672,2.207453966,15.46490989
34.68830601,-4.627991676,-15.21275806,3.428496838,16.26655789
34.69331186,-4.927267075,-15.4713316,4.479551315,16.84358757
34.69831586,-5.176264286,-15.37316895,5.231330872,17.04390971
34.70332101,-5.693411827,-15.25106525,5.164293289,17.07863738
34.70829578,-6.24168396,-15.19360352,4.57531929,17.05103378
34.71330101,-6.959944248,-15.26303577,3.689464808,17.17594933
34.71830747,-7.390900612,-15.70596313,2.446874142,17.52968576
34.72331124,-7.043741226,-16.13691902,1.477222443,17.66908691
34.72831578,-6.291962147,-16.43619537,0.758961916,17.61571257
34.73287301,-5.494692802,-16.41225243,0.3711012602,17.31159712
34.73829432,-4.474762917,-16.02439117,-0.1364694983,16.63800588
34.74285278,-3.694253206,-15.49048519,-0.9935936928,15.95587248
34.74830378,-2.849100113,-15.06431675,-2.118868589,15.47709969
34.7533094,-2.671929121,-14.31972027,-3.423708439,14.9638021
34.7583137,-2.865859509,-13.25190639,-4.273650169,14.21584537
34.76331894,-1.893813491,-12.83770943,-3.430891037,13.42253054
34.7678457,-1.053448796,-12.53125191,-2.683900118,12.85866823
34.7732974,0.2346317619,-12.36126328,0.01675941236,12.36350123
34.77830324,1.182735682,-12.73715305,1.936909199,12.93775672
34.78330755,2.145204782,-12.91911221,1.824381709,13.22247074
34.78831309,2.494758129,-13.04121685,1.170764685,13.32921022
34.79331709,2.770091295,-13.18965721,0.4932055473,13.48642706
34.7982934,2.401384354,-13.15613842,0.4932055473,13.38259604
34.80329617,2.003946781,-12.95023727,0.3711012602,13.10962106
34.80830132,1.323993564,-12.48336792,-0.07422025502,12.55360276
34.81330594,0.1843535304,-11.5927248,-0.2873041928,11.5977497
34.81831209,-0.5482721925,-10.83615685,-0.01197100803,10.85002493
34.8233167,-1.192312479,-10.23521233,0.3543418646,10.31051592
34.82832101,-1.817199111,-9.543288231,0.5363011956,9.729551986
34.8332964,-2.602497339,-8.422801971,0.7829039693,8.850396832
34.83830009,-3.246537447,-7.546523571,1.142034173,8.294230854
34.84330594,-3.682282209,-6.698976517,1.37666595,7.76728381
34.84831032,-3.837905407,-5.906495571,1.625662923,7.229037819
34.85331494,-3.830722809,-5.080495834,1.683123827,6.581700462
34.85831948,-3.670311213,-4.534617901,1.666364431,6.067183393
34.86329486,-3.512293816,-4.09408474,1.462857246,5.589068708
34.86829832,-3.332728863,-3.768473387,1.146822572,5.1598135
34.87330378,-3.107673883,-3.502717018,0.7038952708,4.735201371
34.87786348,-2.873042107,-3.493140221,0.3399766386,4.535634869
34.88283578,-2.437297344,-3.586514235,0.007182605099,4.336306526
34.88828848,-1.989581585,-3.7181952,-0.2657563984,4.225403755
34.89329363,-1.788468719,-3.725377798,-0.1915361285,4.13687638
34.89829794,-1.716642618,-3.655946016,0.004788403399,4.038913973
34.90330324,-1.862688899,-3.608062029,0.248996973,4.068134834
34.90830786,-2.133233786,-3.691859007,0.4548983276,4.288058045
34.9133134,-2.341529369,-3.816357613,0.6081272364,4.518535598
34.91831709,-2.597708941,-3.90254879,0.8188169599,4.759037719
34.92284448,-2.834734917,-3.97916317,1.007958889,4.988531117
34.92829678,-3.100491285,-4.05338335,1.165976286,5.234736239
34.93330201,-3.270479441,-4.05338335,1.276109457,5.362313652
34.93785955,-3.38061285,-4.050989151,1.33835876,5.44336849
34.94328071,-3.402160645,-4.070142746,1.383848548,5.482316648
34.94831617,-3.299209833,-4.118026733,1.400607944,5.459361896
34.95332109,-3.177105665,-4.211400986,1.319205165,5.437848926
34.9582964,-2.928108692,-4.355052948,1.168370485,5.376373897
34.96330101,-2.63841033,-4.467580318,0.9193734527,5.269319739
34.96785824,-2.394201756,-4.608838081,0.4932055473,5.216976348
34.97331055,-2.080561161,-4.824316502,-0.1268926859,5.255365468
34.97831548,-1.905784607,-5.015852451,-0.6775590777,5.40831555
34.9833204,-1.757344007,-5.188235283,-1.168370485,5.600993921
34.98829463,-1.697489023,-5.307945251,-1.802833915,5.857129152
34.99329917,-1.608903527,-5.291185856,-2.293645144,5.987155115
34.99830417,-1.59693253,-5.269638062,-2.717418909,6.140329334
35.00330932,-1.687912226,-5.23851347,-3.409343243,6.474155729
35.00831401,-1.862688899,-5.15950489,-4.103661537,6.850557544
35.01331863,-1.975216389,-5.111620426,-4.819528103,7.297807499
35.01829332,-2.080561161,-5.078101635,-5.513846397,7.779354283
35.02329824,-2.11647439,-5.169081688,-6.337451935,8.447613057
35.02830294,-2.126051188,-5.410895824,-6.813898087,8.956957877
35.03330755,-2.178723574,-5.817910194,-6.998251438,9.357907813
35.03831524,-2.157175779,-6.308721542,-6.880935669,9.581265601
35.04331177,-2.025494576,-6.988674641,-6.476315498,9.740988859
35.04828708,-1.903390408,-7.58961916,-6.323086739,10.06015109
35.05329262,-1.644816518,-8.355764389,-6.39251852,10.64840424
35.05829577,-1.161187768,-9.311050415,-6.550535679,11.44349311
35.06330185,-0.9050082564,-10.68292809,-6.787561893,12.68916817
35.06785854,-1.074996591,-11.52568722,-6.809109688,13.42985697
35.0728327,-1.350329757,-12.81616211,-6.72291851,14.53530306
35.07828592,-1.616086125,-13.61821938,-6.856993675,15.33251433
35.08329077,-1.956062794,-14.63814926,-7.678205013,16.6450121
35.08829508,-2.118868589,-15.51203251,-8.858546257,17.98851296
35.09330031,-2.066195965,-16.41464615,-10.07001209,19.36788366
35.0983047,-1.953668594,-16.8910923,-10.87446404,20.18365151
35.10331016,-1.757344007,-16.5966053,-11.54484081,20.29332193
35.10831446,-1.359906554,-16.04115105,-11.77229023,19.94378826
35.11328954,-1.015141487,-15.26543045,-12.07395935,19.48959654
35.11829662,-0.7900865674,-14.34126854,-12.66772079,19.15117151
35.12329916,-0.5482721925,-12.74194145,-13.14416695,18.31466077
35.12830339,-0.3687070608,-11.0133276,-13.09867764,17.11737963
35.13330862,-0.1580173075,-9.054870605,-12.8353157,15.70862758
35.13831385,-0.1029506698,-6.756437302,-11.6765213,13.4907818
35.14328716,-0.4118026793,-5.482721806,-10.39801788,11.76216799
35.147845,-1.022324085,-4.953603268,-9.208099365,10.50582818
35.15285054,-1.877054095,-5.300762653,-8.243236542,9.978595365
35.15830285,-3.055001259,-6.622362137,-7.072471619,10.15916176
35.16286039,-3.722983599,-7.742848396,-5.57848978,10.24362516
35.16828185,-5.066130638,-9.727641106,-2.298433542,11.20604649
35.17328685,-6.24168396,-11.20486355,0.5195417404,12.83656922
35.17829231,-7.714118004,-12.8592577,4.273650169,15.59269736
35.1832967,-8.497021675,-14.08748245,7.189787865,17.95409671
35.188301,-8.793902397,-15.18881512,9.617507935,20.0132277
35.19330654,-8.944737434,-16.1153717,10.01494598,20.97647911
35.19786439,-8.858546257,-16.8025074,8.197746277,20.68818844
35.203285,-7.20654726,-17.27655983,5.013458252,19.37907652
35.20828993,-5.13556242,-17.3028965,2.300827742,18.19500033
35.21329546,-2.578555346,-16.96770668,-2.094926596,17.28990269
35.21829977,0.8714894056,-16.04115105,-9.337387085,18.58130292
35.2233047,3.507505417,-14.98052025,-10.68053341,18.72945208
35.22831023,4.570530891,-13.08910084,-6.461950302,15.29611438
35.23331454,3.75650239,-10.24718285,-1.127668977,10.97213306
35.23828931,2.051830769,-6.895300865,2.106897593,7.496279143
35.2432927,1.072602391,-5.056553841,1.738190413,5.453486824
35.24829877,0.3519476354,-3.732560396,0.4477157295,3.775754709
35.253304,-0.457292527,-2.86107111,-0.2705447972,2.909989491
35.25830862,-0.6512228847,-2.384624958,1.027112484,2.676842821
35.26286562,-0.9552865028,-2.537853718,3.009511471,4.050979275
35.26828831,-1.496376038,-2.882618904,5.27442646,6.194207575
35.27284531,-1.434126854,-3.581725836,6.739677906,7.765870078
35.27829908,-1.544260144,-4.862623692,7.95832634,9.453296075
35.28330254,-2.145204782,-6.167463779,8.748413086,10.91669568
35.28830808,-2.870647907,-7.656657219,8.633491516,11.89126549
35.29331239,-3.473986626,-9.488221169,6.833051682,12.19776698
35.29828654,-3.531447411,-10.62307262,5.475539207,12.46203524
35.30329139,-2.647987127,-11.6118784,4.098873138,12.59556734
35.30829631,-2.255337954,-12.37562847,2.226607561,12.77499552
35.31330154,-1.249773264,-13.12740803,-0.8140285611,13.21186653
35.31830646,-0.1101332754,-13.49132633,-2.923320293,13.80484759
35.32331108,1.034295082,-13.67568016,-4.623203278,14.47300946
35.32786777,1.774103403,-13.5080862,-5.997475147,14.88574969
35.33329016,2.078166962,-12.9239006,-6.440402508,14.58851498
35.338296,1.824381709,-12.26788998,-5.781997204,13.68433355
35.34330039,1.774103403,-11.72440529,-4.252102375,12.59720195
35.34830531,1.326387763,-11.10909557,-3.110068083,11.61222771
35.35286162,0.4285621047,-10.3501339,-2.190694571,10.58811031
35.35783823,-0.2657563984,-9.461885452,-0.7062895298,9.491930661
35.36284093,-0.6703764796,-8.896853447,-0.09097966552,8.922537934
35.36829393,-1.15161097,-8.398859978,0.5123591423,8.492912848
35.3728517,-1.628057122,-8.027758598,0.6296750307,8.215349582
35.3783037,-2.142810583,-7.716512203,0.5123591423,8.024880664
35.3833087,-2.559401512,-7.503427982,0.5363011956,7.946042195
35.3883127,-2.578555346,-7.453149796,0.4932055473,7.902002357
35.39328708,-2.63841033,-7.414842606,0.1316810995,7.871368359
35.398293,-2.82036972,-7.180211067,-0.2035071403,7.716950919
35.40329762,-2.913743496,-6.971915245,-0.5626373887,7.577206885
35.40830223,-3.002328873,-6.883329868,-1.070208192,7.58548313
35.413308,-2.983175278,-6.919242859,-1.364694953,7.657522366
35.41831239,-2.794033289,-7.062894821,-1.455674648,7.733698595
35.42328708,-2.501940727,-7.266402245,-1.381454349,7.808247249
35.42829085,-1.97042799,-7.608773232,-1.197100878,7.950413012
35.4332967,-1.549048543,-7.91762495,-1.031900883,8.133459023
35.43830408,-1.132457376,-8.157045364,-0.8834604025,8.28253289
35.44330716,-0.8906430602,-8.367734909,-0.7445967197,8.447878837
35.447864,-0.7350199223,-8.58081913,-0.7110779285,8.641547491
35.45328562,-0.6799532771,-8.913613319,-0.6153098345,8.960660972
35.45829085,-0.6895300746,-9.179368973,-0.5985504389,9.224669592
35.4632957,-0.7302315235,-9.375694275,-0.4836287498,9.416516234
35.4683007,-0.7565677166,-9.52173996,-0.3208230138,9.557136285
35.473305,-0.7733271718,-9.476250648,-0.1388636976,9.508766713
35.47830954,-0.85473001,-9.399636269,-0.0191536136,9.438436959
35.48331516,-1.012747288,-9.313444138,-0.02154781483,9.368370354
35.48828893,-1.125274777,-9.208099365,-0.06703764945,9.276843822
35.49329362,-1.206677675,-9.109937668,-0.1125274822,9.190195741
35.49829877,-1.185129881,-9.038111687,-0.2202665508,9.118141974
35.50330316,-1.206677675,-8.944737434,-0.3016694188,9.030803022
35.508309,-1.170764685,-8.659827232,-0.2873041928,8.74333125
35.51331323,-1.108515382,-8.451532364,-0.3854664862,8.532630899
35.51784185,-1.017535686,-8.219294548,-0.739808321,8.315016422
35.52284531,-0.895431459,-8.058882713,-1.082179189,8.180372845
35.52829816,-0.7733271718,-7.972691536,-1.086967587,8.083522981
35.53330254,-0.6488286853,-8.063671112,-1.010353088,8.152581421
35.53830677,-0.5602431893,-8.197746277,-0.9265560508,8.268943256
35.5433117,-0.5027823448,-8.51617527,-1.015141487,8.59118988
35.54828677,-0.5003881454,-8.757989883,-1.252167463,8.861190577
35.55329054,-0.4477157295,-9.071630478,-1.580173135,9.219103863
35.5582957,-0.4548983276,-9.437943459,-1.790862918,9.617114911
35.563301,-0.4070142806,-9.962273598,-1.807622313,10.13311671
35.56830646,-0.3711012602,-10.30703831,-1.649604917,10.44480499
35.5728637,-0.3591302633,-10.58237171,-1.491587639,10.69300703
35.57828523,-0.282515794,-10.84333992,-1.453280449,10.9439417
35.58284339,-0.1915361285,-11.0037508,-1.493981838,11.10635852
35.58784808,-0.1125274822,-11.07318306,-1.67115283,11.1991427
35.59285262,-0.06464344263,-10.93671322,-1.975216389,11.11383618
35.59830708,-0.0359130241,-10.7092638,-2.30801034,10.95520573
35.60330923,-0.03351882473,-10.36210537,-2.53067112,10.66670744
35.6083157,0.09576806426,-10.12268448,-2.664746523,10.46798866
35.61328923,0.3184288144,-9.928754807,-2.865859509,10.33899026
35.61784747,0.4740519226,-9.765948296,-3.035847664,10.23791201
35.6228517,0.6009446383,-9.718064308,-3.236960649,10.26059563
35.62785508,0.6943184733,-9.866505623,-3.7181952,10.56669233
35.63283108,0.7924807668,-10.11550236,-4.278438568,11.01165066
35.63828316,1.060631394,-10.56561184,-4.812345505,11.65829155
35.64328746,1.453280449,-11.05402946,-4.86980629,12.16628969
35.64829208,1.980004787,-11.6956749,-4.412513733,12.65620432
35.65329793,2.746149302,-12.35408115,-3.490746021,13.12821256
35.65830247,3.694253206,-13.2423296,-2.26970315,13.93407163
35.66330708,4.323928356,-13.84806252,-1.424550056,14.57719228
35.66786523,4.730942726,-14.37957573,-0.921767652,15.16587198
35.67328677,4.912901878,-14.7889843,-0.6631938815,15.59777188
35.67829354,4.762067318,-15.18881512,-0.4740519226,15.9248898
35.683297,4.331110954,-15.38514042,-0.4357447028,15.98908819
35.68830124,3.706224203,-15.45936012,-0.6081272364,15.9090456
35.69330624,2.997540474,-15.43781281,-0.9313444495,15.75368895
35.69831024,2.092532396,-15.41387081,-1.625662923,15.63997715
35.70331662,1.41018486,-15.41147614,-2.298433542,15.64560688
35.70829024,0.4716577232,-15.39711094,-2.904166698,15.67570319
35.71329516,-0.8619126081,-15.37077522,-3.526659012,15.79369963
35.7183,-2.595314741,-15.15529633,-4.27125597,15.9581419
35.72330562,-3.888183594,-14.83447361,-4.582501888,16.00558973
35.72830962,-4.711789131,-14.4801321,-4.582501888,15.90202836
35.73331508,-4.75249052,-14.20719242,-4.027047157,15.51282023
35.73784224,-4.388571739,-14.01805115,-3.351882458,15.06653364
35.74329393,-3.639186621,-13.87679291,-2.145204782,14.50554943
35.74829824,-2.990357876,-13.81215,-1.268926859,14.18900642
35.75330339,-2.26970315,-13.69004536,-0.2585737705,13.87932832
35.75830893,-1.812410712,-13.43626022,0.4429273009,13.56517991
35.76331446,-1.434126854,-13.03164005,0.7924807668,13.13424486
35.768288,-1.249773264,-12.58152962,0.5698199868,12.65628364
35.7732927,-1.44849205,-12.29901409,-0.1867477298,12.38542496
35.77829793,-1.673547029,-12.37323475,0.3615244627,12.49113276
35.78330285,-1.874659896,-12.8496809,1.503558636,13.07246486
35.78830647,-2.446874142,-13.38598156,2.624045134,13.85847424
35.793312,-3.763684988,-13.87200451,3.629609823,14.82470577
35.7978397,-4.572925091,-14.12578964,3.986345768,15.37337079
35.8028447,-5.147533417,-14.33169174,4.206612587,15.79842011
35.807849,-5.748478413,-14.29577827,4.082113743,15.93982224
35.81330124,-6.531382084,-14.03959846,3.464409828,15.8673064
35.81830562,-6.885724068,-13.93904209,2.533065319,15.75203194
35.82331108,-6.971915245,-14.07072353,1.352723956,15.76143157
35.828316,-6.797138691,-14.41548824,0.107739076,15.93797363
35.83329108,-6.505045891,-14.96376038,-1.017535686,16.34824533
35.83829793,-6.311115742,-15.36119843,-1.431732655,16.66872693
35.843301,-6.090848923,-15.63413715,-1.620874524,16.85680632
35.848304,-5.963956356,-15.69159794,-2.094926596,16.916966
35.85331047,-5.865794182,-15.39711094,-2.808398485,16.71423551
35.85831416,-6.076483727,-14.89672279,-3.517082214,16.46832936
35.86328924,-6.301538944,-14.10424232,-4.029441357,15.96481889
35.86829385,-5.743690014,-13.44344234,-3.746925592,15.09157276
35.87329854,-4.934449673,-12.61026001,-2.79163909,13.82608766
35.87830377,-3.878606796,-12.11226654,-0.7134721279,12.73811736
35.88330862,-3.105279684,-11.53286934,1.647210717,12.05666373
35.88831354,-1.132457376,-11.95185471,5.865794182,13.36176755
35.89328808,1.826775908,-12.53604031,6.232107162,14.11837726
35.89829177,3.145981073,-12.60547161,3.897760391,13.56420464
35.90329731,3.608062029,-12.44266605,1.994369984,13.10784352
35.9078557,3.708618402,-12.04283428,0.5267243981,12.6119446
35.91327724,3.818751812,-11.6023016,-0.4932055473,12.22454578
35.91831362,3.332728863,-11.11867237,-0.3711012602,11.61334031
35.923288,2.985569477,-10.56321812,0.04788403213,10.9771351
35.92829231,2.707842112,-10.07240677,0.5506663918,10.44456895
35.93329693,2.442085743,-9.567230225,1.233013868,9.950678376
35.93785447,1.946485996,-9.083600998,1.771709204,9.457249512
35.94282831,1.283292055,-8.499416351,2.286462545,8.894651639
35.94828131,0.3543418646,-7.58722496,2.501940727,7.996952429
35.95328531,-0.1604115069,-6.921637058,2.33913517,7.307964475
35.95829024,-0.4429273009,-6.246472359,2.281674147,6.664880977
35.96329454,-0.7493851185,-5.588066578,2.346317768,6.106821858
35.9683,-1.089361787,-4.771644115,2.461239338,5.47841179
35.97285731,-1.30005157,-4.242525578,2.41335535,5.051083192
35.97827854,-1.537077546,-3.873818398,2.128445387,4.679674788
35.98331477,-1.881842494,-3.711012602,1.733402014,4.507507986
35.98828931,-2.207453966,-3.713406801,1.417367458,4.546556235
35.99329477,-2.480392933,-3.749319792,1.067813993,4.620603286
35.99830062,-2.755726099,-3.799597979,0.8020575643,4.761750463
36.00330401,-3.27287364,-3.780444384,0.6655880809,5.044449335
36.00830862,-3.512293816,-3.677493811,0.5147533417,5.111275729
36.01331447,-3.610456228,-3.632004023,0.4955997467,5.145140086
36.01828777,-3.754108191,-3.56496644,0.6296750307,5.215247326
36.0232927,-3.833117008,-3.524264812,0.8236053586,5.271769556
36.02829754,-3.703830004,-3.473986626,1.017535686,5.179026805
36.03285577,-3.538630009,-3.402160645,1.11569798,5.034022385
36.03827631,-3.351882458,-3.277662039,1.26653266,4.856159947
36.04331147,-3.229778051,-3.088520288,1.414973259,4.687491137
36.04828716,-3.114856482,-2.940079689,1.489193439,4.534765328
36.0532917,-2.949656487,-2.851494312,1.572990537,4.393835731
36.05829631,-2.758120298,-2.770091295,1.606509328,4.226287447
36.06330162,-2.499546528,-2.707842112,1.551442742,3.998389217
36.06830685,-2.286462545,-2.647987127,1.414973259,3.77384368
36.0733117,-2.190694571,-2.602497339,1.185129881,3.602314247
36.07831847,-2.197877169,-2.53067112,0.9504981041,3.484021672
36.08329054,-2.296039343,-2.461239338,0.5147533417,3.405064867
36.08829516,-2.427720547,-2.427720547,0.05985504389,3.433837028
36.09330062,-2.578555346,-2.434903145,-0.5099649429,3.582982729
36.09830524,-2.719813108,-2.547430515,-1.118092179,3.890618935
36.10330985,-2.837129116,-2.829946518,-2.205059767,4.573859146
36.10831454,-2.930502892,-3.15795207,-3.155557871,5.340229766
36.11328924,-2.942473888,-3.459621429,-4.003105164,6.054088203
36.11829477,-2.583343744,-3.895366192,-5.219359875,7.006372826
36.12329854,-2.209848166,-4.335899353,-6.27999115,7.944919191
36.12830377,-1.917755604,-4.86741209,-7.319074631,8.996573818
36.13330839,-1.845929503,-5.535394192,-8.528146744,10.33331174
36.13831354,-1.589749932,-6.586448669,-10.24478912,12.28268355
36.14328831,-1.568202138,-7.718906403,-11.74355888,14.14043667
36.1478447,-1.508347034,-8.992621422,-12.2607069,15.27963627
36.15329762,-1.029506683,-10.15141487,-11.14022064,15.1068072
36.15830493,-0.3615244627,-11.32936287,-8.204929352,13.99307074
36.16330747,-0.7350199223,-12.58152962,-6.785167694,14.31340779
36.16831262,-1.666364431,-14.14733791,-6.780379295,15.77648516
36.17328654,-2.578555346,-15.86637497,-8.178592682,18.03552551
36.17784339,-3.258508444,-17.49443245,-10.74757099,20.78901937
36.18284954,-3.222595453,-19.38585091,-15.96214294,25.31770811
36.18785424,-3.222595453,-20.54224968,-20.83434296,29.43533573
36.19282747,-1.812410712,-20.96123505,-21.2605114,29.91099383
36.19828093,1.510741234,-19.81201935,-16.80490112,26.02312724
36.20328562,3.248931646,-17.1855793,-13.16810894,21.8928935
36.20784216,3.758896589,-13.67807388,-11.04684639,17.97920532
36.21329508,3.816357613,-9.955090523,-10.47942066,14.94947056
36.21785324,3.852270603,-6.665457726,-10.95347309,13.38831163
36.22285762,3.612850428,-3.830722809,-11.44907284,12.60192026
36.22783177,1.750161409,-2.080561161,-11.55202293,11.86764651
36.23283639,0.6584054828,-1.290474772,-9.679757118,9.787569708
36.23784224,1.927332401,-2.549824715,-7.259219646,7.931739162
36.24284647,0.6153098345,-4.340687752,-6.54574728,7.878260202
36.24785116,-1.233013868,-5.973533154,-5.980715752,8.542387397
36.25330408,-2.894589901,-8.449137688,-3.478775024,9.584803286
36.25830893,-4.134786129,-10.69489861,0.1053448766,11.46683958
36.26331331,-5.485116005,-13.18247414,3.931279182,14.80942531
36.2682887,-6.947973251,-15.64131927,6.438008308,18.28587302
36.27284524,-7.84340477,-18.12650108,6.957550049,20.94030904
36.27829785,-7.91762495,-21.49514198,5.406107426,23.536268
36.28330254,-7.378929615,-24.33706093,2.379836559,25.54221523
36.28830747,-6.58405447,-26.81745338,-0.4668693244,27.61781212
36.29286493,-4.79319191,-28.23960876,-2.686294317,28.76919132
36.29828654,-1.00317049,-27.10954666,-6.212953568,27.83046286
36.30329139,1.458068848,-23.5780983,-8.834604263,25.2210808
36.30784893,0.586579442,-17.99481964,-3.248931646,18.29516784
36.31285416,-1.757344007,-11.6908865,5.731719017,13.13840508
36.31827939,-4.333505154,-6.390124321,6.260837555,9.940374371
36.32331116,-6.349422932,-3.833117008,0.2346317619,7.420445379
36.32831639,-9.083600998,-1.309628367,-5.317522049,10.60674193
36.33328985,-10.39322948,0.8355764151,-7.13232708,12.63279449
36.33829454,-9.050082207,1.185129881,-2.794033289,9.545425229
36.34329908,-6.749254704,0.5363011956,2.260126352,7.137802824
36.348305,-4.067748547,-0.3375824392,5.166687489,6.58446655
36.35330954,-2.523488522,-1.699883223,5.75805521,6.512510813
36.35831508,-1.414973259,-2.987963676,7.378929615,8.085708288
36.36328839,-0.6631938815,-4.515464306,10.3261919,11.28979554
36.36784678,-0.895431459,-5.935225964,13.247118,14.54354977
36.37329878,-2.130839586,-7.508216381,15.48090839,17.33702152
36.37830431,-3.138798475,-8.908824921,15.46414852,18.12068174
36.383309,-3.921702385,-10.30703831,14.26225948,18.0285006
36.38831324,-4.168305397,-12.07156467,12.52885723,17.89049209
36.3932887,-3.960009575,-13.29260826,11.05642319,17.73751967
36.39829447,-3.301604033,-14.29338455,8.820239067,17.11718576
36.40329847,-1.960851192,-15.21754646,5.458779812,16.28548233
36.40830308,2.475604534,-17.20473289,-5.61919117,18.26764246
36.41330654,6.72291851,-18.57900429,-15.36119843,25.02685459
36.4183127,7.675810814,-19.02672005,-17.1664257,26.7510807
36.42328616,5.870582581,-18.39944077,-14.33169174,24.04995943
36.4278437,3.931279182,-16.86475754,-9.971850395,19.98281269
36.4332967,3.098097086,-14.53280449,-4.405331135,15.49863072
36.43830247,2.30561614,-13.15135002,-1.903390408,13.486911
36.44330585,1.527500629,-12.07635307,-1.666364431,12.28610321
36.44831054,0.4501099288,-10.9008007,-0.9672574997,10.95288282
36.45331701,-0.7613561153,-9.909601212,-0.6081272364,9.957393135
36.45829078,-1.903390408,-8.935160637,-0.248996973,9.139036609
36.4632957,-2.631227732,-8.044517517,-0.03351882473,8.463967449
36.46830001,-3.634398222,-6.971915245,-0.4046200812,7.872748569
36.4733047,-4.393360138,-6.179434776,0.1628057212,7.583767742
36.47786378,-4.898536682,-5.726930618,0.2202665508,7.539357618
36.48328524,-4.769249916,-5.600037575,0.1699883193,7.357653269
36.48828924,-4.256890774,-5.547365189,-0.07422025502,6.992845504
36.49329393,-4.163516521,-5.422866821,-0.6799532771,6.870566996
36.49829847,-3.928884983,-5.559336185,-1.168370485,6.907057668
36.5033037,-3.263296843,-6.059724331,-1.527500629,7.050008753
36.50835578,-2.647987127,-6.624756336,-1.577778935,7.306751584
36.51355816,-1.879448295,-7.24724865,-1.465251446,7.629017019
36.51828831,-1.173158884,-7.819462776,-1.122880578,7.98631083
36.5232927,-0.3711012602,-8.339004517,-0.8188169599,8.3873222
36.52785085,0.0143652102,-8.827422142,-0.6775590777,8.853399027
36.53330378,0.2992752194,-9.205705643,-0.5913678408,9.229534006
36.53830801,0.3064578176,-9.354146004,-0.7086837292,9.385957409
36.54331208,0.3615244627,-9.332598686,-0.8451532125,9.377759974
36.54828739,0.4261679053,-9.167398453,-1.027112484,9.234596555
36.55329231,0.2106897533,-8.999804497,-1.218648672,9.084380867
36.55829816,-0.1771709323,-8.829815865,-1.48679924,8.955870126
36.56285354,-0.4764461517,-8.664615631,-1.67115283,8.837155467
36.56830593,-0.6751648784,-8.564059258,-1.666364431,8.75075591
36.5733127,-0.8882488012,-8.511386871,-1.520318031,8.691608558
36.57828585,-1.18991828,-8.408436775,-1.142034173,8.568661305
36.58329047,-1.529894829,-8.219294548,-0.7134721279,8.390853564
36.58829516,-1.889025092,-8.06127739,-0.4309563041,8.290858356
36.59330162,-2.353500366,-7.857769966,-0.4165911078,8.21322476
36.59830493,-2.597708941,-7.821856976,-0.4477157295,8.254089148
36.60331024,-2.71502471,-7.793126583,-0.390254885,8.261747998
36.60786839,-2.71502471,-7.759607792,-0.2226607651,8.223895067
36.61329147,-2.657563925,-7.714118004,-0.02154781483,8.159088607
36.61829454,-2.473210335,-7.747636795,0.04788403213,8.132953839
36.62329854,-2.260126352,-7.783549786,0.07422025502,8.105388765
36.6283037,-2.133233786,-7.821856976,0.1364694983,8.10868404
36.63330993,-2.080561161,-7.888894558,0.1939303428,8.160943638
36.63831454,-2.106897593,-8.042123795,0.1651999205,8.31517069
36.64328801,-2.073378563,-8.190564156,0.0359130241,8.448995774
36.64784501,-1.948880196,-8.382100105,-0.181959331,8.607603929
36.65285085,-1.778891921,-8.652645111,-0.5698199868,8.851972588
36.6583037,-1.517923832,-9.105149269,-1.302445769,9.322242271
36.66330678,-1.18991828,-9.466673851,-1.934514999,9.735305213
36.66831239,-0.8667010069,-9.789890289,-2.561795712,10.15657028
36.6732887,-0.5889736414,-10.02452278,-3.05021286,10.49484375
36.67784493,-0.2657563984,-10.15859795,-3.397372246,10.71493709
36.68329693,0.1197100878,-10.27830791,-3.677493811,10.91704652
36.68830131,0.3950432837,-10.29506683,-3.696647406,10.94576002
36.69330716,0.6584054828,-10.28549004,-3.627215624,10.92618397
36.69831016,0.873883605,-10.24239445,-3.454833031,10.84463867
36.70286924,0.9768342972,-10.16338634,-3.074155092,10.66297598
36.70829024,1.067813993,-10.0460701,-2.56658411,10.42358408
36.71329608,1.18991828,-9.878476143,-2.296039343,10.21136588
36.71830154,1.328781962,-9.753977776,-2.499546528,10.15645001
36.72330462,1.407790542,-9.595960617,-2.983175278,10.14710151
36.72830985,1.465251446,-9.469067574,-3.775655985,10.29882424
36.73331547,1.48679924,-9.43315506,-4.206612587,10.43506473
36.73828962,1.508347034,-9.564835548,-4.412513733,10.64102755
36.74329362,1.685518026,-9.715670586,-4.225766182,10.72810914
36.74829908,2.126051188,-10.01015759,-3.579331636,10.84135432
36.75330501,2.458845139,-10.29746151,-2.844311714,10.96237849
36.7583087,2.8993783,-10.61828423,-2.104503393,11.206395
36.76331324,3.308786631,-10.9103775,-1.359906554,11.481888
36.76828831,3.627215624,-11.16655636,-0.653617084,11.75907689
36.77329416,3.928884983,-11.57117653,0.03351882473,12.22004038
36.77829754,4.005499363,-11.86566353,0.4022258818,12.52995538
36.78330278,3.971980572,-12.27267838,0.3974374831,12.90555
36.78830708,3.778050184,-12.76109505,0.06464344263,13.30877112
36.79331385,3.275267839,-13.42189503,-0.4141969085,13.82194648
36.79828808,2.588132143,-13.9151001,-0.6847416759,14.17029675
36.8032917,1.817199111,-14.39633465,-1.019929886,14.5463714
36.8082967,1.070208192,-14.82010841,-1.515529633,14.93578887
36.81330247,0.1723825186,-15.19839191,-2.135627985,15.34867224
36.81785854,-0.3758896589,-15.33725643,-2.439691544,15.53463301
36.82328093,-1.036689281,-15.38992882,-2.370259762,15.60585675
36.82828501,-1.223437071,-15.5455513,-2.260126352,15.75655846
36.83329147,-1.213860273,-15.69878101,-1.912967205,15.86141941
36.83829547,-1.221042871,-15.81370258,-1.651999116,15.94657443
36.8432997,-1.359906554,-15.80651951,-1.82198751,15.96919044
36.84830431,-1.314416766,-15.72272301,-1.764526606,15.8759335
36.85331078,-1.395819545,-15.52639771,-1.343147159,15.64676907
36.85831539,-2.370259762,-15.32289124,-0.538695395,15.51448742
36.86328985,-3.531447411,-15.38992882,0.1675941199,15.79079218
36.86829416,-4.295197964,-15.7658186,0.586579442,16.35095829
36.87285301,-5.063736439,-16.15367889,1.029506683,16.96003103
36.87785816,-6.205770969,-16.41464615,0.9959878922,17.5768084
36.88283024,-7.264008045,-16.69955635,1.079784989,18.24299676
36.88783578,-8.382100105,-16.99643707,1.692700624,19.02639511
36.89284093,-9.739612579,-17.14248466,2.873042107,19.92433699
36.89784531,-10.52251625,-17.00122643,3.574543238,20.31113999
36.90285024,-11.00135708,-16.81447792,3.878606796,20.46460642
36.90830278,-11.16895103,-16.5080204,3.711012602,20.27391968
36.91330924,-11.5879364,-16.14649582,3.335123062,20.15223668
36.9183127,-11.83693314,-15.88074017,2.932897091,20.02280649
36.92328678,-11.25993061,-15.65089607,2.482787132,19.43967122
36.92829139,-9.26556015,-15.18402672,1.958456993,17.89527385
36.93329724,-7.556100368,-14.69800377,1.048660398,16.55976015
36.93785424,-6.277596951,-14.14973164,-0.2322375625,15.48150713
36.9432757,-6.236895561,-13.36443424,-1.443703651,14.81861158
36.94831078,-6.890512466,-12.41393566,-4.000710964,14.75095417
36.95331701,-6.119579315,-11.72201157,-5.379771233,14.27573972
36.95829231,-4.747702122,-11.16655636,-5.652710438,13.38602972
36.9632957,-3.586514235,-10.81221485,-4.733336926,12.33578343
36.96830001,-2.817975283,-10.3261919,-3.450044632,11.2460674
36.97330593,0.0023942017,-11.0229044,2.140416384,11.22879376
36.97830954,3.330334663,-11.9757967,4.599261284,13.25383114
36.98331508,5.35343504,-12.2750721,3.270479441,13.78523476
36.98828924,6.536170483,-12.61504841,1.268926859,14.26433126
36.99329478,7.536946774,-13.01727486,-0.5530605912,15.05193965
36.99785201,7.637503624,-13.15613842,-1.132457376,15.25443868
37.0033037,6.251260757,-12.88559341,-1.058237195,14.36094164
37.0083087,5.075707436,-12.35408115,-0.6655880809,13.3727011
37.01331393,3.830722809,-11.45625496,0.02394201607,12.07976772
37.01784062,2.561795712,-10.40041256,0.7733271718,10.7391533
37.02329201,1.120486379,-9.047688484,1.460463047,9.233044403
37.02785024,0.3543418646,-8.094796181,1.869871497,8.315509773
37.03330462,-0.3878606856,-7.115567684,2.159569979,7.446172297
37.03830924,-1.027112484,-6.004657745,2.298433542,6.51104227
37.04331239,-1.570596337,-5.300762653,2.159569979,5.935368569
37.04828678,-2.039859772,-4.692635536,2.059013367,5.515559102
37.05329201,-2.346317768,-4.187458992,2.114080191,5.244936123
37.05829724,-2.580949545,-3.742137194,1.987187386,4.961230194
37.0633007,-2.765302896,-3.368641853,1.608903527,4.645774274
37.06830616,-2.870647907,-3.236960649,1.26413846,4.507391674
37.07331201,-3.043030262,-3.174711466,0.9648633003,4.502198047
37.0783167,-3.236960649,-3.205836058,0.6703764796,4.604856534
37.08329139,-3.368641853,-3.325546265,0.3136404157,4.743983158
37.08829485,-3.308786631,-3.466804028,0.06464344263,4.792804806
37.09330278,-3.244143248,-3.60566783,-0.08858546615,4.851098153
37.0983047,-3.222595453,-3.761290789,-0.2082955539,4.957400215
37.10286308,-3.191470861,-3.888183594,-0.2657563984,5.037269536
37.10828432,-3.057395458,-4.000710964,-0.2561795712,5.041724227
37.11284247,-2.97599268,-4.072536945,0.07661445439,5.044597048
37.11829485,-3.337517262,-4.173093796,0.1532289088,5.345765838
37.12329908,-3.586514235,-4.285621166,0.2274491638,5.592974723
37.12830401,-3.675099611,-4.367023945,0.4261679053,5.723536876
37.13331047,-3.612850428,-4.38617754,0.6320692301,5.717582805
37.13831385,-3.497928619,-4.390965939,0.8858546019,5.683381465
37.14328685,-3.464409828,-4.395754337,1.079784989,5.700063796
37.14829178,-3.440467834,-4.326322556,1.249773264,5.667082052
37.15284985,-3.327940464,-4.218583584,1.319205165,5.532805568
37.15830278,-3.134010077,-4.110844135,1.403002143,5.356255565
37.16330739,-2.925714493,-4.039018154,1.395819545,5.178975299
37.1678647,-2.722207308,-4.01507616,1.328781962,5.029603434
37.17328624,-2.477998734,-4.089296341,1.142034173,4.916000848
37.17784408,-2.360682964,-4.139574528,0.9385270476,4.85692643
37.18329578,-2.19308877,-4.280832767,0.5458779931,4.840779929
37.18830039,-2.066195965,-4.38617754,0.2011129409,4.852645216
37.19330655,-1.874659896,-4.5370121,-0.3064578176,4.918612093
37.1983127,-1.719036818,-4.695029736,-0.8786720037,5.076461
37.2033157,-1.659181833,-4.778826714,-1.577778935,5.299005141
37.20829085,-1.702277422,-4.853046894,-2.387019157,5.669891801
37.21284801,-1.668758631,-4.872200489,-3.339911461,6.138249061
37.21830093,-1.697489023,-4.917690277,-4.616020679,6.955055252
37.22285755,-1.74776721,-4.94642067,-5.334281445,7.481732833
37.22783201,-1.786074519,-5.008669853,-6.651092529,8.515507485
37.23328401,-1.944091797,-5.109226227,-7.659051418,9.409822218
37.23828862,-2.020706177,-5.284003258,-8.652645111,10.33790169
37.24329416,-2.090138197,-5.595249176,-9.11233139,10.89541529
37.24829824,-2.293645144,-6.143521786,-9.35654068,11.42578319
37.25330593,-2.446874142,-7.017405033,-9.641449928,12.17327906
37.25830839,-2.482787132,-8.202534676,-10.05325317,13.2103636
37.26331362,-1.78128612,-9.873687744,-10.04846478,14.1998005
37.26828678,-1.084573388,-11.32696819,-9.282320023,14.68461688
37.27329393,-0.5530605912,-12.80897903,-8.420407295,15.33880957
37.27829947,-0.4668693244,-14.41788292,-8.83699894,16.91702885
37.28330339,-0.7565677166,-16.9006691,-10.0604353,19.68292074
37.28830809,-0.806845963,-18.94052887,-11.62384892,22.23754703
37.29286532,-0.5554547906,-20.63801956,-13.54399872,24.69162374
37.29828801,-0.1244984865,-21.56936264,-15.12656593,26.34513051
37.3032917,0.3303998411,-21.38740349,-14.95657825,26.10037213
37.30829662,0.6464344859,-19.97243118,-13.30218506,24.00549962
37.31285485,0.739808321,-18.42338181,-12.04522896,22.02398361
37.31827601,0.7469909191,-14.99488544,-11.312603,18.79839279
37.32286247,0.6799532771,-11.70285797,-10.96304989,16.05016149
37.32828555,0.5841852427,-7.369352818,-11.21444035,13.4317648
37.33329209,0.4501099288,-4.355052948,-11.46822643,12.27555712
37.33829632,-0.04070143029,-2.11647439,-11.43231297,11.62664613
37.34330001,0.0287304204,-1.04147768,-10.58716011,10.63830157
37.34830493,-0.624886632,-0.7445967197,-9.390059471,9.440239639
37.35331024,-1.515529633,-1.45088625,-7.218518257,7.517240638
37.35831609,-1.771709204,-2.839523315,-5.255272865,6.230548856
37.3632887,-2.518700123,-4.307168961,-3.387795448,6.03097942
37.36829393,-3.574543238,-5.746084213,-1.07739079,6.852416658
37.37329939,-5.374982834,-7.742848396,2.37744236,9.720821669
37.37785609,-6.643909931,-9.129091263,3.857059002,11.93141863
37.38327855,-8.28633213,-11.69806957,5.743690014,15.44338392
37.38831301,-9.251194954,-13.79539013,6.947973251,18.00476962
37.39328962,-9.976638794,-15.96932507,6.866570473,20.04251618
37.39829262,-10.29267311,-18.79687691,4.307168961,21.85894338
37.40329755,-9.545681953,-21.29881859,-0.2705447972,23.34165615
37.40830193,-7.35977602,-23.95638275,-6.550535679,25.90336069
37.41330901,-3.689464808,-26.12074089,-10.75235939,28.48716356
37.41831293,1.328781962,-25.82864761,-11.95185471,28.49090258
37.42328678,2.906560898,-22.6850605,-10.40041256,25.12426412
37.42829262,1.956062794,-18.35634422,-9.002198219,20.53828444
37.43284932,0.5051765442,-13.69962215,-5.154716492,14.64602173
37.43830255,-1.541865945,-8.959102631,1.922544003,9.291880648
37.44330708,-3.394978046,-3.957615376,7.673416615,9.277387452
37.44831147,-4.735731125,-1.63523972,7.376535416,8.917086574
37.4533167,-6.090848923,-0.356736064,4.967968464,7.868062778
37.45829055,-7.196970463,0.3327940404,1.78128612,7.421597938
37.46329509,-7.544129372,0.6512228847,-1.297657371,7.682570785
37.46829947,-6.926425457,0.4165911078,-0.1915361285,6.941585111
37.47330585,-5.688623428,-0.3184288144,2.511517525,6.226520192
37.47830932,-4.340687752,-1.422155857,4.596867085,6.480376874
37.48331485,-2.736572504,-2.971204281,6.423643112,7.588153582
37.48828832,-1.424550056,-5.64313364,8.279149055,10.12020796
37.49329424,-1.098938584,-7.817068577,10.25675964,12.94277194
37.49829855,-1.759738207,-9.727641106,11.10909557,14.87063161
37.5033037,-2.08295536,-11.20246983,11.38921738,16.11050296
37.50830901,-0.895431459,-12.91911221,10.71644688,16.80914904
37.51331485,0.2873041928,-14.23352909,9.538499832,17.13647785
37.51828985,1.438915253,-15.64610767,7.357381821,17.34941583
37.52329362,2.631227732,-16.88630486,4.254496574,17.6116834
37.52829855,4.443638325,-17.92299461,-0.9074024558,18.48791596
37.53330409,5.750872612,-18.69632149,-5.398924828,20.29219954
37.53830778,5.609614372,-18.09058762,-8.408436775,20.72290864
37.54331232,4.211400986,-16.40267563,-9.162610054,19.25453425
37.54828685,2.60010314,-14.33169174,-7.95832634,16.59797827
37.55329232,0.9959878922,-12.04044056,-5.532999992,13.2882764
37.55829601,0.1508347094,-10.49618053,-4.01747036,11.23977869
37.56330124,-0.6368576288,-9.296685219,-3.394978046,9.917651921
37.56830716,-1.479616642,-8.614337921,-3.007117271,9.243313124
37.57331362,-2.264914751,-8.185775757,-2.157175779,8.763000109
37.57828532,-2.710236311,-7.884106159,-1.259350061,8.431516671
37.58329078,-3.34230566,-7.563282967,-0.6105214357,8.291380632
37.58829539,-4.175487995,-7.211335659,-0.6895300746,8.361430123
37.59330193,-4.817133904,-6.909666061,-0.2657563984,8.427270649
37.59830716,-5.35343504,-6.564900875,0.7086837292,8.500554267
37.60330962,-5.35104084,-6.624756336,0.9911994934,8.573418864
37.60831578,-5.568912983,-6.651092529,0.5099649429,8.689642564
37.61329024,-5.216965675,-6.734889507,-0.4357447028,8.530260311
37.61829455,-4.268861771,-6.971915245,-1.436521053,8.300263594
37.62329939,-3.488351822,-7.187393665,-1.618480325,8.151484815
37.62830408,-2.628833532,-7.546523571,-1.37427175,8.108600779
37.63331016,-1.769315004,-7.896077156,-0.9121908545,8.14313221
37.63831332,-0.9576807022,-8.269572258,-0.5650315881,8.343994149
37.6432877,-0.1221042871,-8.635885239,-0.4620809257,8.649100652
37.64829239,0.3663128614,-8.84896946,-0.5506663918,8.873650832
37.65329847,0.5267243981,-9.038111687,-0.8714894056,9.095295225
37.65830255,0.4716577232,-9.090784073,-1.259350061,9.189710477
37.66330716,0.4309563041,-9.102754593,-1.395819545,9.21922864
37.66831178,0.4405331016,-9.064447403,-1.484405041,9.195745454
37.67328832,0.3926490843,-8.997409821,-1.589749932,9.145209764
37.67829301,0.3854664862,-8.968679428,-1.750161409,9.145975074
37.68329639,0.1987187415,-8.920795441,-1.951274395,9.133868414
37.68830132,0.02154781483,-8.937555313,-2.102109194,9.181460796
37.69330801,-0.1651999205,-8.880094528,-2.140416384,9.135904561
37.69831178,-0.3519476354,-8.817844391,-2.087743998,9.068457523
37.70331539,-0.5698199868,-8.681375504,-1.991975784,8.925185879
37.70829024,-0.8667010069,-8.51617527,-1.788468719,8.745000413
37.71329693,-1.010353088,-8.370129585,-1.553836942,8.572881189
37.71829978,-1.132457376,-8.257601738,-1.182735682,8.418391168
37.7233047,-1.256955862,-8.149862289,-0.8164227605,8.286539658
37.72830986,-1.192312479,-8.113949776,-0.457292527,8.213824107
37.73331547,-1.158793569,-8.046912193,-0.03112462163,8.129979528
37.73828932,-1.134851575,-7.999027729,0.248996973,8.082965557
37.74329424,-1.165976286,-8.010998726,0.5099649429,8.111452738
37.74829909,-1.242590666,-8.042123795,0.7541735172,8.17242708
37.75330555,-1.30005157,-8.054094315,1.043871999,8.224854896
37.75831016,-1.371877551,-8.080430984,1.065419793,8.265018587
37.76331362,-1.400607944,-8.152256966,0.9720458984,8.328617501
37.76828809,-1.417367458,-8.305485725,0.7565677166,8.459457332
37.77329355,-1.465251446,-8.432378769,0.4046200812,8.568295683
37.77829701,-1.419761658,-8.578424454,-0.1029506698,8.695728153
37.78330224,-1.359906554,-8.702922821,-0.5913678408,8.828359269
37.78830686,-1.199495077,-8.841787338,-1.180341482,9.000510974
37.79286555,-1.046266198,-9.038111687,-1.836352706,9.281935524
37.79828709,-0.8092401624,-9.361329079,-2.504334927,9.724250366
37.8032917,-0.5746083856,-9.63666153,-2.961627483,10.09785411
37.80829639,-0.4022258818,-9.885659218,-3.289633036,10.4263958
37.81330224,-0.2992752194,-10.0412817,-3.524264812,10.64600142
37.81830586,-0.1723825186,-10.15141487,-3.699041605,10.8057322
37.82331086,-0.1292868853,-10.28070164,-3.598485231,10.89305454
37.82786862,-0.2226607651,-10.37407589,-3.392583847,10.91698922
37.83329086,-0.4453215301,-10.46745014,-3.153163671,10.94112722
37.83829824,-0.739808321,-10.53688145,-2.873042107,10.94657745
37.84330155,-1.058237195,-10.68532181,-2.657563925,11.0615828
37.84830555,-1.182735682,-10.82658005,-2.56897831,11.18987707
37.85286309,-1.197100878,-10.83376312,-2.612074137,11.20831857
37.85783662,-0.9672574997,-10.88404083,-2.619256735,11.236478
37.86284186,-0.3806780577,-10.9008007,-2.590526342,11.21085182
37.86784593,0.5817909837,-10.83615685,-2.664746523,11.17415097
37.87330032,1.951274395,-10.65419769,-2.726995707,11.16941833
37.8783037,2.719813108,-10.56321812,-2.609679937,11.21558691
37.88330832,3.517082214,-10.46266174,-2.176329374,11.25049188
37.8883127,4.247313976,-10.6446209,-1.26413846,11.53020711
37.89328932,4.525041103,-10.95826149,-0.5099649429,11.8667416
37.89829301,4.584896088,-11.40118885,0.0359130241,12.28859915
37.90329724,4.314351559,-11.84172153,0.1651999205,12.60425679
37.90830347,3.672705412,-12.40196514,-0.2537853718,12.93684318
37.91286132,3.143586874,-12.73475838,-0.7374141216,13.1377315
37.9182837,2.114080191,-13.32612705,-1.673547029,13.59616699
37.92283947,1.244984865,-13.80975533,-2.343923569,14.0624787
37.92784432,0.4165911078,-14.21676922,-2.79163909,14.49425141
37.93285016,-0.215478152,-14.52322769,-3.088520288,14.84956333
37.93830132,-1.247379065,-14.70279217,-3.430891037,15.14922656
37.94330678,-2.219424963,-14.69561005,-3.849876404,15.35279617
37.94786378,-2.904166698,-14.62138939,-4.201824188,15.4878836
37.95283816,-3.088520288,-14.63096619,-4.086902142,15.50183532
37.95784216,-2.681505919,-14.70518684,-3.404554844,15.33049209
37.96329539,-1.824381709,-15.01643276,-2.573766708,15.34424637
37.9678527,-0.9002198577,-15.42344761,-2.023100376,15.58159386
37.97285755,-0.04788403213,-15.80891418,-1.613691926,15.89113156
37.97828063,0.8451532125,-16.14170837,-1.417367458,16.22584246
37.98331455,1.297657371,-16.15128517,-1.434126854,16.2666729
37.98828932,1.122880578,-15.80173111,-1.731007814,15.93587007
37.99329486,0.3687070608,-15.37077522,-2.209848166,15.53319364
37.99830009,-0.8044517636,-15.1624794,-2.319981337,15.36002076
38.00330339,-1.56101954,-15.18881512,-1.584961534,15.35086283
38.0083087,-1.927332401,-15.42105293,-0.6751648784,15.55568486
38.01286655,-2.63601613,-15.71793461,0.2968810201,15.94020664
38.01828863,-3.440467834,-15.70835781,1.582567334,16.15839854
38.02329262,-4.553771496,-15.41387081,2.947262287,16.34045909
38.02829816,-5.111620426,-15.05473995,3.914519787,16.37367777
38.03330401,-5.386953831,-14.64772606,4.778826714,16.32214248
38.03830839,-5.489904404,-14.20240402,5.109226227,16.06086931
38.0433117,-5.729324818,-13.66610336,4.570530891,15.50733042
38.04828678,-6.148310184,-13.34288597,3.727771997,15.1568667
38.0530607,-6.636727333,-13.21120453,2.885013103,15.06337862
38.05829578,-6.636727333,-13.21120453,2.885013103,15.06337862
38.06330162,-6.816292286,-13.59427738,1.170764685,15.25243941
38.06830624,-5.918466568,-13.8313036,0.9481038451,15.07421993
38.07331078,-4.680664539,-14.03481007,1.036689281,14.83102285
38.07831639,-3.502717018,-14.08987713,1.237802267,14.57140413
38.08329109,-2.375048161,-13.97016716,1.146822572,14.21694856
38.08829609,-2.293645144,-13.59906578,-0.7613561153,13.81213457
38.0932997,-1.699883223,-13.35006905,-2.26970315,13.64791189
38.0983047,-1.630451322,-13.17050362,-2.887407303,13.58151899
38.10330962,-1.209071875,-12.77067184,-1.630451322,12.93098162
38.10831478,0.806845963,-12.92629528,0.2849099934,12.95458543
38.11284193,1.565807939,-12.78743172,0.2226607651,12.88486485
38.11784678,1.886630893,-12.38999367,-0.2250549644,12.53483023
38.12285139,2.554613113,-12.12663174,-0.174776718,12.39402244
38.1278567,3.263296843,-11.9614315,0.282515794,12.40180491
38.13283047,3.617638826,-11.92551899,0.7757213712,12.48627476
38.13828309,3.725377798,-11.82256794,0.9050082564,12.42861989
38.14328801,3.129221678,-11.40837097,0.8475474119,11.86007138
38.14829293,2.535459518,-10.93671322,0.8882488012,11.26184874
38.15329762,1.838746905,-10.36210537,1.22583127,10.59513474
38.1583047,0.988805294,-9.651026726,1.498770237,9.816637153
38.16330747,0.4285621047,-8.846575737,1.738190413,9.025900158
38.1683117,-0.1723825186,-8.109161377,2.032677174,8.361817414
38.17328686,-0.7182605267,-7.343016624,2.171540976,7.690993534
38.17829178,-1.280897856,-6.531382084,2.233790159,7.020645962
38.18329609,-1.616086125,-5.925649166,2.166752577,6.513053749
38.18830101,-1.843535304,-5.446808815,2.11647439,6.127463792
38.19330616,-2.003946781,-5.027823448,2.070984364,5.795152074
38.19831116,-2.334346771,-4.553771496,1.826775908,5.433518188
38.20331693,-2.511517525,-4.283226967,1.55862534,5.20413936
38.20828962,-2.609679937,-4.134786129,1.302445769,5.059965483
38.2132957,-2.652775526,-4.074931145,0.8882488012,4.942799587
38.21830032,-2.695871115,-4.144362926,0.2801215947,4.951962565
38.22330439,-2.683900118,-4.299986362,0.01197100803,5.068860411
38.22831016,-2.609679937,-4.503493309,-0.2106897533,5.209248653
38.23331509,-2.643198729,-4.728548527,-0.3543418646,5.428741
38.23829147,-2.571372509,-5.035006046,-0.3758896589,5.666086436
38.24329424,-2.588132143,-5.262455463,-0.3184288144,5.873096492
38.24829947,-2.633621931,-5.446808815,-0.2442085743,6.055025068
38.2528567,-2.688688517,-5.556941986,-0.08140286058,6.17375709
38.25827824,-2.913743496,-5.631162167,0.1149216816,6.341379621
38.26331301,-3.201047659,-5.638344765,0.282515794,6.489796066
38.2682877,-3.493140221,-5.68144083,0.3711012602,6.679709174
38.27284562,-3.75650239,-5.676652431,0.5147533417,6.826467903
38.27785116,-3.895366192,-5.590460777,0.6488286853,6.844567783
38.28285547,-3.904942989,-5.339069843,0.7086837292,6.652554334
38.28782993,-3.79241538,-5.133168221,0.6895300746,6.419289846
38.29328124,-3.584120035,-4.927267075,0.7182605267,6.135126359
38.29784009,-3.469198227,-4.762067318,0.6943184733,5.932512084
38.3028437,-3.294421434,-4.558559895,0.5746083856,5.653658612
38.3082967,-3.117250681,-4.455609322,0.4141969085,5.453555291
38.31285416,-3.021482468,-4.434061527,0.1532289088,5.367842865
38.31782901,-2.853888512,-4.481945515,-0.181959331,5.316542526
38.32328093,-2.49236393,-4.647145271,-0.6799532771,5.316970339
38.32828624,-2.255337954,-4.762067318,-1.252167463,5.415880148
38.33284247,-2.138022184,-4.800374508,-1.915361404,5.59315149
38.33829486,-2.207453966,-4.781220913,-2.86107111,5.99321736
38.34285324,-2.365471363,-4.733336926,-3.727771997,6.472728736
38.34830532,-2.578555346,-4.668693542,-4.601655483,7.044208987
38.35330986,-2.880224705,-4.642356873,-5.552153587,7.789324819
38.35831478,-3.162740469,-4.654327869,-6.050147533,8.262564999
38.36328901,-3.440467834,-4.75249052,-6.43082571,8.705084973
38.36829301,-3.651157618,-4.86980629,-6.811503887,9.134689401
38.37329816,-3.7181952,-5.15950489,-7.000645638,9.458039205
38.37830401,-3.507505417,-5.554547787,-6.739677906,9.411633952
38.38330893,-3.038241863,-6.145915985,-6.390124321,9.372133469
38.38831293,-2.264914751,-6.854599476,-6.074089527,9.434507745
38.39283947,-1.836352706,-7.603984833,-6.143521786,9.946639459
38.39829355,-1.161187768,-8.813055992,-7.261613846,11.47821191
38.40285016,-0.2777273953,-9.730035782,-8.386888504,12.84875977
38.40830193,-0.4381389022,-11.07078838,-7.477091789,13.36642146
38.41286009,-0.5003881454,-12.23437023,-5.810727596,13.55340394
38.41828163,-0.390254885,-13.13698483,-2.178723574,13.32214343
38.42328686,-1.130063176,-13.30697346,-1.252167463,13.41344507
38.42829201,-2.647987127,-13.09149456,-4.022258759,13.94910862
38.43284932,-2.853888512,-12.81137371,-6.818686485,14.79089116
38.43830163,-2.743755102,-11.73398209,-11.6717329,16.77628912
38.44330524,-2.286462545,-11.23838234,-13.56794071,17.7656456
38.44830993,-1.52510643,-11.30063248,-14.7985611,18.68228183
38.45331609,-0.5793967843,-11.40597725,-15.32049656,19.10888883
38.45829078,0.4932055473,-11.28147888,-15.53358078,19.20435235
38.46329578,1.805228114,-11.14979744,-15.63413715,19.28738126
38.46830063,2.264914751,-10.48899746,-14.31253815,17.88847827
38.47330532,2.375048161,-9.591172218,-12.33732128,15.80635741
38.47831016,2.607285738,-8.602366447,-10.74038887,14.00552036
38.48331547,2.882618904,-7.661445618,-9.263166428,12.36177548
38.48828924,2.916137695,-6.727706909,-7.802703381,10.70738434
38.49329455,2.370259762,-6.378153324,-7.06768322,9.810765376
38.4982994,1.388636947,-6.581660271,-6.663063526,9.467997679
38.50330378,0.1029506698,-7.793126583,-6.631938934,10.2335739
38.50830863,-1.719036818,-10.19690514,-6.746860504,12.34714901
38.51331263,-2.561795712,-12.35408115,-5.284003258,13.67869909
38.5182877,-3.270479441,-14.36760426,-2.571372509,14.95780881
38.5232917,-4.805162907,-16.04833412,1.817199111,16.85054395
38.52829786,-6.402095318,-17.55668068,4.27125597,19.16944153
38.53285486,-8.092401505,-18.41619873,4.958391666,20.71784221
38.53827663,-9.279925346,-19.29487228,4.113238335,21.8020146
38.54331232,-8.944737434,-20.48000145,1.048660398,22.37271722
38.54828747,-7.783549786,-21.1527729,-1.206677675,22.57165301
38.55284432,-6.265625954,-20.70745087,-1.508347034,21.68713215
38.55829886,-4.398148537,-18.69392776,-0.8140285611,19.22158392
38.56285393,-2.82036972,-16.1153717,-1.889025092,16.46900441
38.5678287,-2.068590164,-13.61343098,-3.734954596,14.2672511
38.57283332,-2.159569979,-10.18972206,-1.37427175,10.50632195
38.57783847,-2.461239338,-7.137115479,1.022324085,7.618481671
38.58329024,-3.004723072,-4.220977783,1.110909581,5.298974833
38.58829578,-3.82593441,-2.765302896,0.03351882473,4.720783593
38.5933007,-4.589684486,-2.025494576,-1.139639974,5.144571044
38.5983047,-4.750096321,-1.795651317,-1.503558636,5.29608037
38.60330993,-3.835511208,-2.22900176,0.323217243,4.447928108
38.60831416,-2.729389906,-3.114856482,2.657563925,4.920827794
38.61284224,-1.661576033,-4.268861771,4.400542736,6.352069907
38.61829447,-1.139639974,-5.64313364,5.15950489,7.730732647
38.62329917,-1.185129881,-7.376535416,6.428431511,9.85609148
38.6283034,-1.364694953,-8.755595207,8.092401505,12.0004084
38.63286193,-1.994369984,-9.931148529,9.715670586,14.03565024
38.63828309,-2.578555346,-11.08515358,10.67335129,15.60288452
38.64328932,-2.8969841,-12.25831223,10.31900978,16.28314154
38.64829201,-2.961627483,-12.96939087,9.217676163,16.18461895
38.65329732,-2.710236311,-13.58470058,7.544129372,15.77350179
38.65785547,-1.762132406,-14.26465416,4.967968464,15.2074383
38.66327701,0.6631938815,-15.08107662,-0.2657563984,15.09799075
38.66831201,3.284844637,-15.80891418,-6.215347767,17.30151785
38.67328678,4.872200489,-16.15128517,-9.854534149,19.53750735
38.6782917,4.639962673,-15.56231117,-10.40041256,19.28427764
38.68329663,3.775655985,-14.43464184,-8.805873871,17.32506501
38.68830186,2.980781078,-13.08910084,-6.466738701,14.90061495
38.69330586,1.991975784,-11.84890461,-4.414907932,12.80062186
38.6983117,1.019929886,-10.45069027,-2.932897091,10.90225066
38.7028684,0.6272808313,-9.610325813,-2.032677174,9.842947728
38.70828932,0.06943184882,-8.999804497,-1.33835876,9.099038737
38.7132954,-0.6679822803,-8.473079681,-0.8379706144,8.540578105
38.71830132,-1.41018486,-7.934384346,-0.3112462163,8.064734992
38.72330493,-1.850717902,-7.69017601,0.1125274822,7.910538936
38.72831055,-2.473210335,-7.412448406,0.4261679053,7.825776627
38.73331478,-3.12203908,-7.149086475,0.9026140571,7.853106238
38.7382887,-3.586514235,-6.80192709,0.5243301988,7.707413227
38.74284716,-3.653551817,-6.665457726,0.07422025502,7.601465399
38.74829793,-3.541024208,-6.629544735,-0.2896983922,7.52154512
38.75285663,-3.23456645,-6.7636199,-0.586579442,7.520176175
38.75827793,-2.619256735,-7.055712223,-0.6775590777,7.556630673
38.76286678,-2.099714994,-7.364564419,-0.5985504389,7.681397969
38.76784009,-1.628057122,-7.673416615,-0.5219359994,7.861571708
38.7732927,-1.074996591,-8.104372978,-0.4333505034,8.186835268
38.77829786,-0.6584054828,-8.408436775,-0.4453215301,8.445923161
38.78330216,-0.3399766386,-8.702922821,-0.5458779931,8.726650705
38.7883074,0.08379705995,-8.863334656,-0.7015010715,8.891446841
38.79331232,0.3758896589,-9.06205368,-0.9457096457,9.119017309
38.79828809,0.5315127969,-9.208099365,-1.165976286,9.296832819
38.80329178,0.4357447028,-9.275136948,-1.283292055,9.373626691
38.80829578,0.2968810201,-9.306262016,-1.326387763,9.404996308
38.81285355,0.1268926859,-9.229647636,-1.314416766,9.323636023
38.81782832,-0.2059013397,-9.109937668,-1.424550056,9.222944353
38.82328063,-0.6105214357,-8.853757858,-1.647210717,9.026354069
38.82831609,-1.070208192,-8.676587105,-1.874659896,8.941077065
38.83329086,-1.493981838,-8.552088737,-2.106897593,8.933600672
38.83829609,-1.632845521,-8.595184326,-2.214636564,9.024854193
38.8433007,-1.754949808,-8.623914719,-2.23139596,9.079145435
38.84785793,-1.845929503,-8.54251194,-2.097320795,8.987809549
38.85328001,-2.080561161,-8.434772491,-1.707065821,8.853710829
38.8578674,-2.166752577,-8.492233276,-1.319205165,8.863021213
38.86328955,-2.233790159,-8.499416351,-0.9337386489,8.837520277
38.86829355,-2.329558372,-8.547300339,-0.5339069963,8.875147434
38.87329909,-2.353500366,-8.65743351,-0.1699883193,8.973238823
38.87830617,-2.363077164,-8.781931877,0.0359130241,9.094380183
38.88330924,-2.288856745,-8.872911453,0.2178723514,9.165963736
38.88831363,-2.176329374,-8.937555313,0.423773706,9.208468313
38.89328863,-2.142810583,-8.923190117,0.5913678408,9.195905338
38.89784532,-2.068590164,-8.935160637,0.7469909191,9.201856134
38.90329732,-1.865083098,-8.927978516,0.7302315235,9.149894722
38.90830316,-1.769315004,-8.767566681,0.457292527,8.955993387
38.91285947,-1.704671621,-8.717288017,0.2657563984,8.886373961
38.91828216,-1.695094824,-8.671798706,-0.004788403399,8.835918865
38.9228404,-1.687912226,-8.616731644,-0.1963245422,8.78269066
38.92784401,-1.70946002,-8.571242332,-0.3758896589,8.748127898
38.93284986,-1.735796213,-8.525752068,-0.5410895944,8.717466075
38.93785455,-1.683123827,-8.51617527,-0.7374141216,8.712171178
38.94327547,-1.63523972,-8.559270859,-0.8906430602,8.759473251
38.94831055,-1.572990537,-8.635885239,-1.019929886,8.83702835
38.95286894,-1.489193439,-8.813055992,-1.120486379,9.007948864
38.95829386,-1.414973259,-9.042900085,-1.146822572,9.224499623
38.96284801,-1.364694953,-9.17697525,-1.15400517,9.349384739
38.9678527,-1.297657371,-9.299078941,-1.206677675,9.466406648
38.97285824,-1.209071875,-9.497797966,-1.295263171,9.66166278
38.97783232,-1.122880578,-9.662998199,-1.367089152,9.823610729
38.9828367,-1.007958889,-9.861717224,-1.517923832,10.02863602
38.98784216,-0.8499416113,-10.05804157,-1.685518026,10.23364901
38.99329394,-0.6967126727,-10.27591324,-1.850717902,10.46446168
38.9982994,-0.5674257874,-10.39801788,-1.980004787,10.60005504
39.00285609,-0.4285621047,-10.45547867,-2.147598982,10.68236308
39.00827855,-0.2466027737,-10.46745014,-2.408566952,10.74381311
39.01331301,-0.1268926859,-10.45787334,-2.669534922,10.79396282
39.01784063,0.0023942017,-10.43393135,-3.021482468,10.86260951
39.02329386,0.2059013397,-10.43871975,-3.64158082,11.0575936
39.02829732,0.3878606856,-10.45308495,-4.146757126,11.25224491
39.03330255,0.457292527,-10.53688145,-4.400542736,11.42802535
39.03831109,0.7948749661,-10.74038887,-4.556165695,11.69386271
39.04331294,1.350329757,-11.03008747,-4.283226967,11.90933471
39.04828678,1.843535304,-11.22880554,-3.646369219,11.94908803
39.05329232,2.293645144,-11.43949604,-2.758120298,11.98874911
39.05829609,2.671929121,-11.6669445,-1.817199111,12.10615595
39.06330194,2.968810081,-11.94946098,-0.7829039693,12.33760065
39.06830624,3.107673883,-12.14099693,-0.1963245422,12.53395336
39.07331109,3.114856482,-12.33253288,0.1987187415,12.72136735
39.07786809,2.904166698,-12.5743475,0.383072257,12.91104734
39.08284309,2.41574955,-12.88559341,0.248996973,13.11245069
39.08829478,1.673547029,-13.39316463,-0.3351882398,13.50148028
39.09329978,0.9816226959,-13.80975533,-0.8930372596,13.87337165
39.09830524,0.1771709323,-14.25268269,-1.340752959,14.31670255
39.10331047,-0.9241618514,-14.67885017,-1.623268723,14.79721997
39.10831455,-1.70946002,-14.93742466,-1.831564307,15.14607331
39.11284255,-2.379836559,-15.12896061,-2.331952572,15.49151619
39.11829517,-2.980781078,-15.20318127,-3.239354849,15.82767185
39.1233004,-3.129221678,-15.17923832,-3.7181952,15.9382019
39.1283037,-2.8993783,-14.95418358,-3.651157618,15.6641295
39.13330832,-2.23139596,-14.81532001,-3.481169224,15.38152705
39.13831324,-1.043871999,-14.70518684,-2.901772499,15.02506148
39.14328678,-0.174776718,-14.69561005,-2.391807556,14.89000487
39.14829417,0.6799532771,-14.71955204,-2.051830769,14.87741773
39.15285078,1.359906554,-14.65490818,-1.704671621,14.81626083
39.15830317,1.438915253,-14.11860752,-1.192312479,14.24174022
39.1633077,0.7517793179,-13.59427738,-1.120486379,13.66107753
39.16786524,0.06703764945,-13.27105999,-1.170764685,13.32277063
39.17283947,-0.5339069963,-13.223176,-1.144428372,13.28334132
39.1778444,-0.8499416113,-13.5128746,-1.000776291,13.57651406
39.18284901,-1.790862918,-13.71877575,-0.7493851185,13.85545294
39.18830217,-2.549824715,-13.85763931,-0.4070142806,14.09614962
39.19330594,-3.260902643,-13.93185997,0.06943184882,14.30856488
39.19831294,-4.244919777,-14.04917526,0.8403648138,14.7005062
39.20328532,-4.845864296,-14.12818432,1.771709204,15.04084261
39.20829055,-5.231330872,-14.14733791,2.578555346,15.30238349
39.21329601,-5.31512785,-14.06354046,3.186682463,15.36843191
39.21830009,-5.260061264,-13.92946529,4.029441357,15.42513032
39.22330463,-5.114014626,-13.94383049,4.584896088,15.54364264
39.22830986,-4.924872875,-14.05156994,5.008669853,15.70948008
39.23331455,-4.922478676,-14.25028896,5.13556242,15.92719477
39.23828894,-4.850652695,-14.42267132,4.668693542,15.91662586
39.24329355,-4.481945515,-14.5735054,3.883395195,15.73390141
39.24829817,-4.09169054,-14.59505367,2.918531895,15.43617024
39.25330432,-3.390189648,-14.48252583,1.462857246,14.94579845
39.25830863,-3.265691042,-14.01326275,-0.5650315881,14.39984484
39.26331324,-2.79163909,-13.54399872,-2.346317768,14.02634511
39.26828863,-1.443703651,-13.26866627,-2.595314741,13.59696449
39.27329332,-0.6584054828,-12.93108368,-1.113303781,12.99560957
39.2782994,0.1268926859,-12.96699619,0.8714894056,12.99686831
39.28330194,1.695094824,-13.29500198,0.8164227605,13.42747073
39.28830801,2.274491549,-13.32133865,0.5410895944,13.52494559
39.29331201,2.952050686,-13.26866627,-0.3926490843,13.59876028
39.29828647,2.889801502,-13.19683933,-0.7709329724,13.53151354
39.30329201,3.399766445,-13.23035812,-1.158793569,13.709252
39.30829663,3.318363667,-13.09149456,-0.8978256583,13.53531892
39.31330217,3.23456645,-12.90953541,-0.6943184733,13.32668761
39.31785855,3.117250681,-12.53604031,-0.3615244627,12.92285798
39.32283355,2.729389906,-12.03325748,0.1292868853,12.33959359
39.32828563,2.051830769,-11.29105568,0.5674257874,11.48999216
39.33328986,0.9983820915,-10.36210537,0.8571242094,10.44531744
39.33829478,0.06943184882,-9.557653427,0.9816226959,9.608181042
39.34329978,-0.7254431248,-8.683769226,1.067813993,8.779199418
39.34830463,-1.589749932,-7.874529362,1.180341482,8.119650456
39.35330963,-2.08295536,-7.012616634,1.379060149,7.444279817
39.35831632,-2.293645144,-6.505045891,1.661576033,7.094875968
39.36328955,-2.262520552,-6.177040577,1.800439715,6.82029418
39.36829363,-2.940079689,-5.372588634,1.623268723,6.335911818
39.37329947,-3.521870613,-4.709394932,1.319205165,6.026796455
39.37830463,-3.404554844,-4.481945515,1.122880578,5.739310941
39.3833084,-3.12203908,-4.359841347,0.9241618514,5.441453823
39.38831363,-2.873042107,-4.34787035,0.7254431248,5.261617171
39.39328747,-2.755726099,-4.390965939,0.4884171486,5.207029817
39.39784524,-2.67432332,-4.42448473,0.3471592367,5.181562494
39.40285017,-2.358288765,-4.465186119,0.4405331016,5.068873878
39.40830286,-2.118868589,-4.429273129,0.5841852427,4.944627078
39.41330678,-2.068590164,-4.42209053,0.7134721279,4.933861814
39.41831263,-2.121262789,-4.431667328,0.8427590132,4.984944722
39.42328747,-2.145204782,-4.438849926,0.940921247,5.019026302
39.4282914,-2.233790159,-4.467580318,1.118092179,5.118517608
39.43329663,-2.375048161,-4.517858505,1.18991828,5.240973645
39.43830317,-2.683900118,-4.508281708,1.285686255,5.401936037
39.44285971,-3.071760893,-4.544194698,1.223437071,5.619805931
39.44783324,-3.356670856,-4.541800499,1.213860273,5.776560203
39.45328463,-3.866635799,-4.505887508,1.309628367,6.080215548
39.45829047,-3.682282209,-4.268861771,1.110909581,5.745998885
39.46329578,-3.751713991,-4.041412354,1.082179189,5.61956257
