Time (s),Acceleration x (m/s^2),Acceleration y (m/s^2),Acceleration z (m/s^2),Absolute acceleration (m/s^2)
20.00017248,0.9648633003,-10.58237171,-0.9696516991,10.67041595
20.00517579,0.6440402865,-10.40280628,-0.8667010069,10.45869672
20.00970286,0.1915361285,-10.12029076,-0.7182605267,10.14755484
20.01470755,-0.2609679997,-9.780313492,-0.5075707436,9.796951789
20.02015986,-0.9193734527,-9.409213066,-0.2944868207,9.458607749
20.02516532,-1.26413846,-9.129091263,-0.2466027737,9.219499241
20.0301694,-1.723825216,-8.7843256,-0.3040636182,8.957030998
20.03517548,-2.056619167,-8.384494781,-0.605733037,8.654267598
20.04017948,-2.188300371,-8.068459511,-0.9935936928,8.418784106
20.04515463,-2.195482969,-7.829039574,-1.37427175,8.246370654
20.05015802,-2.159569979,-7.69017601,-1.563413739,8.139214463
20.05516294,-1.934514999,-7.644686222,-1.592144132,8.044780833
20.06016809,-1.697489023,-7.685387611,-1.474828243,8.007607013
20.06517371,-1.414973259,-7.864952564,-1.477222443,8.12661149
20.06973025,-1.139639974,-8.097189903,-1.419761658,8.299336526
20.07515278,-0.7565677166,-8.549694061,-1.398213744,8.6962443
20.08015917,-0.4692635238,-9.06205368,-1.424550056,9.185334399
20.08471517,-0.1867477298,-9.593565941,-1.422155857,9.700201516
20.09016748,0.03112462163,-10.10592556,-1.391031146,10.20125815
20.09517156,0.1101332754,-10.6350441,-1.302445769,10.71506684
20.10017825,0.07661445439,-10.9343195,-1.479616642,11.03424116
20.10515156,0.0191536136,-11.12585545,-1.649604917,11.24749851
20.11015586,-0.01675941236,-11.16416264,-1.764526606,11.30275906
20.11516102,-0.1029506698,-11.05881786,-2.118868589,11.2604465
20.12016571,-0.174776718,-10.89840603,-2.458845139,11.17370665
20.12517056,-0.2035071403,-10.66616821,-2.7509377,11.01708753
20.13017609,-0.1436520964,-10.44829655,-2.940079689,10.85502673
20.13514971,0.04309562966,-10.27830791,-2.930502892,10.68799878
20.14015548,0.2322375625,-10.09395409,-2.78924489,10.4748141
20.14516017,0.4189853072,-10.02452278,-2.738966703,10.40041077
20.1501644,0.7613561153,-10.15620327,-2.758120298,10.55155702
20.15516909,1.168370485,-10.41238308,-2.640804529,10.80539956
20.16017586,1.692700624,-10.69729328,-2.190694571,11.04972677
20.16517917,2.291250944,-11.03248119,-1.570596337,11.3768293
20.16970602,2.930502892,-11.23120022,-0.8140285611,11.63573582
20.17515894,3.706224203,-11.36048698,-0.01197100803,11.94976593
20.18016317,4.168305397,-11.27668953,0.5339069963,12.0342658
20.1851684,4.402936935,-11.12106705,0.7900865674,11.98700224
20.1901734,4.333505154,-11.09233665,0.6272808313,11.92529583
20.19517832,4.039018154,-11.26232433,0.2442085743,11.96717406
20.20015156,3.600879431,-11.46583176,-0.4357447028,12.02586812
20.20515732,2.887407303,-11.66933918,-1.209071875,12.081906
20.21016194,1.642422318,-11.86566353,-2.224213362,12.18354001
20.21516725,0.5458779931,-12.01889229,-2.944868088,12.38644431
20.22017217,-0.6584054828,-12.17212105,-3.509899616,12.68516551
20.22517802,-1.867477298,-12.35408115,-3.895366192,13.08757695
20.23015063,-3.260902643,-12.54801083,-4.30956316,13.66229836
20.23515579,-4.254496574,-12.65096188,-4.57531929,14.10961105
20.24016232,-4.979939461,-12.64138508,-4.618414879,14.3504066
20.24471832,-5.386953831,-12.54801083,-4.560954094,14.39701877
20.24969217,-5.334281445,-12.40196514,-4.405331135,14.20106476
20.25514479,-4.683058739,-12.33971596,-4.079719543,13.81462054
20.26015056,-3.888183594,-12.38520527,-3.813963413,13.52987798
20.26515517,-3.040636063,-12.49533844,-3.476380825,13.321568
20.27015925,-1.812410712,-12.69405746,-2.908955097,13.14861009
20.2751644,-0.7038952708,-12.99333286,-2.545036316,13.25893575
20.2801694,0.3782838583,-13.32612705,-1.975216389,13.4770264
20.28517494,1.343147159,-13.6110363,-1.393425345,13.74794485
20.28973179,1.752555609,-13.8025732,-1.271321058,13.9713541
20.29515425,2.04704237,-13.8073616,-1.177947283,14.00789694
20.30015832,1.97042799,-13.72116947,-1.254561663,13.91858481
20.30471609,1.845929503,-13.53921032,-1.22583127,13.71934161
20.31016902,1.618480325,-13.46499062,-0.5770025849,13.57418074
20.31472625,0.7565677166,-14.01326275,-0.01197100803,14.03367631
20.32014963,-0.5793967843,-14.43943024,0.9361328483,14.4813394
20.32515302,-2.209848166,-15.21275806,1.036689281,15.40734116
20.32970971,-3.299209833,-15.63174248,1.323993564,16.03088012
20.33516263,-4.855441093,-16.14888954,2.020706177,16.98367437
20.33971979,-5.473145008,-16.33563805,2.78924489,17.45245753
20.34514171,-6.030993938,-16.15607262,3.744531393,17.64690017
20.35017679,-6.416460514,-15.80891418,4.175487995,17.564949
20.35515156,-7.031770229,-15.48330212,4.048594952,17.48054799
20.36015556,-7.831433773,-15.27500725,3.354276657,17.49023651
20.36516171,-9.0740242,-15.25106525,1.788468719,17.83624195
20.3701654,-9.514557838,-15.42823601,0.316034615,18.12890386
20.37517063,-9.325415611,-15.5647049,-0.8714894056,18.16543169
20.38017525,-8.583212852,-15.48569679,-1.723825216,17.78903936
20.38515002,-7.55131197,-15.01403904,-2.039859772,16.92940367
20.39015548,-6.691793919,-14.41788292,-2.140416384,16.03860455
20.3951604,-5.863399982,-13.79060173,-2.336740971,15.16642719
20.40016779,-4.951209068,-13.31655025,-2.817975283,14.48399001
20.40517086,-3.763684988,-12.76588345,-3.684676409,13.80977716
20.41017494,-3.102885485,-12.28943729,-4.299986362,13.38461991
20.41517894,-2.353500366,-11.8728466,-4.103661537,12.7805903
20.42015394,-1.170764685,-11.67891598,-3.201047659,12.16611994
20.42515886,0.6368576288,-11.73877048,-1.546654344,11.8573378
20.43016348,1.237802267,-11.69806957,-0.06224924326,11.76353948
20.43516902,1.769315004,-11.70285797,0.5243301988,11.8474589
20.44017279,2.403778553,-11.65736771,0.8858546019,11.93553985
20.44473094,3.150769472,-11.42991924,0.720654726,11.87812045
20.45015248,3.588908434,-11.37006378,1.491587639,12.01596637
20.45515733,3.323152065,-11.21204662,2.217030764,11.90246002
20.46016225,3.136404276,-11.0037508,2.525882721,11.7174932
20.46471925,2.56897831,-10.86967564,2.477998734,11.4407157
20.47014109,1.695094824,-10.52969933,1.843535304,10.82342537
20.47517648,0.9816226959,-10.04846478,1.304839969,10.18026693
20.4801524,0.004788403399,-9.418789864,1.283292055,9.505812113
20.48515702,-0.6943184733,-8.59278965,1.563413739,8.761413963
20.49016194,-1.314416766,-7.999027729,1.659181833,8.274359214
20.49516594,-1.800439715,-7.429207802,1.592144132,7.808305493
20.50017056,-2.293645144,-6.730101109,1.443703651,7.25529801
20.50517517,-2.743755102,-6.138733387,1.367089152,6.861572153
20.51015002,-3.086126089,-5.68144083,1.292868972,6.593516082
20.51470717,-3.193865061,-5.221754074,1.182735682,6.234288518
20.52015925,-3.162740469,-4.697423935,1.017535686,5.753616061
20.52516448,-3.208230257,-4.30956316,0.8283938169,5.436111876
20.5301694,-3.275267839,-4.043806553,0.5961562395,5.237857684
20.53517402,-3.34230566,-3.852270603,0.4477157295,5.119711447
20.54017886,-3.411737442,-3.624821424,0.3351882398,4.98915162
20.54515394,-3.34230566,-3.521870613,0.2849099934,4.863718068
20.55015863,-3.150769472,-3.490746021,0.1915361285,4.70630876
20.55516356,-2.904166698,-3.435679436,0.117315881,4.500204486
20.55972317,-2.722207308,-3.414131641,0.1340752989,4.368602028
20.56514409,-2.738966703,-3.442862034,0.2394201756,4.405968634
20.57017886,-2.729389906,-3.450044632,0.3591302633,4.413768432
20.57515248,-2.844311714,-3.459621429,0.5099649429,4.507677207
20.5801564,-2.968810081,-3.42131424,0.6631938815,4.578105563
20.58471486,-3.071760893,-3.375824451,0.7829039693,4.63085784
20.59016717,-3.210624456,-3.287238836,0.9313444495,4.688438018
20.59517248,-3.227383852,-3.215412855,1.010353088,4.666444012
20.60017679,-3.217807055,-3.134010077,1.065419793,4.616429436
20.60515094,-3.148375273,-3.105279684,1.060631394,4.547523252
20.61015579,-3.009511471,-3.143586874,0.9911994934,4.463381472
20.61471402,-2.796427488,-3.191470861,0.8403648138,4.325702946
20.61971886,-2.597708941,-3.246537447,0.6488286853,4.208215275
20.62469248,-2.41335535,-3.34469986,0.4118026793,4.144982828
20.62969794,-2.284068346,-3.445256233,0.1867477298,4.137829556
20.63515025,-2.164358377,-3.538630009,-0.1029506698,4.149331074
20.64015732,-2.094926596,-3.653551817,-0.6392518282,4.25978887
20.64516009,-2.085349798,-3.754108191,-1.108515382,4.43517964
20.65016471,-2.138022184,-3.821146011,-1.668758631,4.685835152
20.65517056,-2.255337954,-3.890577793,-2.343923569,5.071205236
20.66017456,-2.286462545,-4.065354347,-3.308786631,5.718661199
20.66518009,-2.176329374,-4.27125597,-4.189853191,6.366702983
20.67015371,-2.035071373,-4.505887508,-5.23851347,7.203232684
20.67515894,-2.279279947,-4.618414879,-6.670246124,8.427161825
20.68016386,-2.097320795,-4.910507679,-7.855375767,9.498356101
20.68516848,-1.812410712,-5.408501625,-8.693346024,10.39764336
20.69017432,-1.900996208,-6.10042572,-9.543288231,11.48491754
20.69517794,-2.511517525,-7.02937603,-10.68771648,13.03637723
20.70015302,-2.585737944,-8.094796181,-11.23359394,14.08564513
20.70515771,-2.647987127,-9.557653427,-11.14740276,14.92062878
20.71016171,-3.210624456,-11.10670185,-9.962273598,15.26151469
20.71516725,-4.149151325,-13.01009178,-7.833827972,15.74315107
20.72017248,-4.458003521,-14.57590008,-6.275202751,16.48359269
20.72517802,-4.319139957,-16.24705315,-5.805939198,17.78568626
20.73015094,-3.967192173,-18.11453056,-7.304709435,19.93072029
20.73515525,-3.557783842,-20.55661583,-11.31978607,23.73541314
20.7401611,-3.11964488,-21.96440697,-14.94460678,26.74899305
20.74516563,-2.123656988,-22.31874847,-16.68279839,27.94552226
20.75017063,-0.4405331016,-22.05299187,-16.04354477,27.27496743
20.75517586,1.426944256,-20.45845413,-13.87918758,24.76320584
20.76018071,2.640804529,-18.12650108,-12.63180828,22.25098808
20.76470717,3.325546265,-14.81292629,-12.48576164,19.65645663
20.7701604,3.957615376,-10.93192482,-12.80897903,17.29854455
20.77516471,4.5370121,-6.287173748,-12.72996998,14.90520608
20.78016871,4.120420933,-3.241749048,-12.20324612,13.28179285
20.78517494,3.177105665,-1.185129881,-11.06121159,11.56931005
20.79018017,1.78368032,-0.349553436,-9.909601212,10.07491435
20.7951534,-0.1436520964,-1.098938584,-8.47786808,8.550002873
20.80016048,-1.539471745,-2.56897831,-7.091625214,7.698101778
20.80516417,-2.422932148,-4.407725334,-4.910507679,7.029347657
20.81016817,-3.356670856,-6.335057735,-1.97042799,7.435239217
20.81517363,-4.529829502,-8.690952301,2.576161146,10.13353904
20.82017886,-5.293580055,-10.30943298,5.650316238,12.89311723
20.82470471,-5.480327606,-11.88481712,7.156269073,14.91626816
20.8301574,-5.516240597,-13.31655025,7.082048416,16.05972698
20.83516256,-6.040570736,-15.20078659,5.729324818,17.33140417
20.84016725,-6.253654957,-16.66364288,4.405331135,18.33554299
20.8447254,-5.762843609,-18.01397324,3.713406801,19.27441279
20.85014633,-4.364629745,-19.1009407,3.043030262,19.82816083
20.85515125,-3.778050184,-20.08974648,0.09816227108,20.44214305
20.86015671,-3.150769472,-20.65477753,-5.195417881,21.52996865
20.86516102,-2.480392933,-20.08974648,-8.913613319,22.11792859
20.87016594,-4.062960148,-17.54710388,-5.257667065,18.76303714
20.8747241,-5.293580055,-14.17127991,-2.023100376,15.26237528
20.88014748,-6.816292286,-10.77151299,-0.9648633003,12.78351648
20.88515033,-8.271966934,-8.233659744,-3.596091032,12.21271716
20.89015517,-9.576807022,-5.487510204,-5.714959621,12.42935093
20.89515986,-9.478644371,-3.924096584,-4.216189384,11.09141497
20.90016479,-8.530540466,-3.105279684,-0.8092401624,9.114151206
20.90517002,-6.813898087,-2.978386879,2.583343744,7.872335132
20.91017371,-4.778826714,-3.203441858,5.609614372,8.035359227
20.91517956,-3.378218651,-3.584120035,7.498639584,8.971503402
20.9201534,-1.939303398,-4.084507942,9.346963882,10.38315157
20.92515863,-1.510741234,-4.623203278,11.35330486,12.35127034
20.92971617,-1.537077546,-5.506663799,13.54399872,14.7012195
20.9351684,-1.939303398,-6.742072105,14.7985611,16.37723556
20.9401734,-2.334346771,-7.908048153,14.43703651,16.62571574
20.94517794,-3.258508444,-9.181763649,13.03403378,16.27294372
20.95015279,-3.493140221,-10.75954247,10.67095661,15.55117673
20.95515733,-2.86107111,-11.85129833,8.829815865,15.05339325
20.96016263,-1.496376038,-13.00530338,6.600813866,14.66109822
20.96516786,0.739808321,-14.28859615,2.264914751,14.48589435
20.97017248,5.370194435,-15.90947056,-8.116343498,18.65007436
20.9751764,7.668628216,-16.69716263,-13.223176,22.63747959
20.9801521,7.335834026,-16.69716263,-13.5966711,22.74816841
20.98515671,5.547365189,-15.89271069,-11.10909557,20.16837916
20.99016048,3.253720045,-14.62138939,-6.734889507,16.42347279
20.99471886,2.147598982,-13.56075859,-4.30956316,14.39022896
21.0001401,1.807622313,-12.55279922,-2.887407303,13.00682082
21.00517525,1.134851575,-11.66933918,-1.522712231,11.82285996
21.00970294,-0.1795651317,-10.62786102,-0.06464344263,10.62957442
21.01515579,-2.027888775,-9.038111687,0.5123591423,9.27697729
21.02015956,-3.287238836,-7.999027729,-0.04070143029,8.648239149
21.0251651,-4.120420933,-7.117961884,-0.6631938815,8.251246946
21.03017002,-4.67827034,-6.301538944,-1.168370485,7.93477763
21.03517494,-5.027823448,-5.83466959,-1.474828243,7.842033932
21.04017925,-5.05894804,-5.573701382,-1.22583127,7.626386082
21.04515363,-4.807557106,-5.494692802,-0.6631938815,7.331035428
21.04971148,-4.606443882,-5.379771233,-0.5626373887,7.104774774
21.05471617,-4.252102375,-5.310339451,-1.00556469,6.876862659
21.05972071,-3.866635799,-5.413290024,-1.230619669,6.765279451
21.06514287,-2.966415882,-5.64313364,-1.321599364,6.510852889
21.07017802,-2.109291792,-6.189011574,-1.417367458,6.690433965
21.0751534,-1.110909581,-6.727706909,-1.513135433,6.98467889
21.08015794,-0.2561795712,-7.280767441,-1.482010841,7.434484423
21.08516256,0.3854664862,-7.977479935,-1.41257906,8.110742883
21.09016725,0.6440402865,-8.482656479,-1.323993564,8.609483596
21.09517186,0.8355764151,-8.992621422,-1.261744261,9.119069391
21.10017702,0.9097966552,-9.473855972,-1.237802267,9.597595084
21.10515094,1.015141487,-9.859322548,-1.170764685,9.980352864
21.11015617,1.019929886,-10.11550236,-1.108515382,10.22704509
21.11471363,0.9289502501,-10.19929886,-0.9983820915,10.29006378
21.12016779,0.758961916,-10.20887566,-0.9074024558,10.27718563
21.12517056,0.3782838583,-10.15620327,-0.9002198577,10.20303677
21.13017556,0.04548983276,-9.986215591,-0.6943184733,10.01042703
21.13515025,-0.4070142806,-9.768342972,-0.4548983276,9.78739585
21.14015517,-0.8188169599,-9.44512558,-0.4213795066,9.489911439
21.14516048,-1.273715258,-8.839392662,-0.5267243981,8.946208794
21.15016479,-1.48679924,-8.38928318,-0.5698199868,8.539047902
21.1551694,-1.601720929,-7.963114738,-0.6272808313,8.146790013
21.16017433,-1.640028119,-7.603984833,-0.6464344859,7.805648923
21.16642085,-1.623268723,-7.280767441,-0.6464344859,7.487486455
21.16927846,-1.608903527,-7.218518257,-0.6655880809,7.425535932
21.17473008,-1.546654344,-7.24485445,-0.538695395,7.427667763
21.17973531,-1.441309452,-7.352593422,-0.4189853072,7.504235581
21.18474116,-1.328781962,-7.556100368,-0.3519476354,7.680115977
21.18974393,-1.285686255,-7.893682957,-0.5291185975,8.01518473
21.19474885,-1.244984865,-8.255207062,-0.8403648138,8.390747521
21.19927808,-1.204283476,-8.70771122,-1.201889277,8.872376864
21.20428154,-1.110909581,-9.193734169,-1.592144132,9.396477585
21.20973416,-0.8667010069,-9.816226959,-2.020706177,10.05946002
21.21473816,-0.5339069963,-10.27351952,-2.506729126,10.58838755
21.21974331,-0.1963245422,-10.68053341,-2.8969841,11.06819109
21.22474862,0.1556231081,-10.9247427,-3.093308687,11.35529745
21.22972239,0.5243301988,-11.06599998,-3.12203908,11.5099264
21.234727,0.691924274,-11.018116,-3.071760893,11.45920391
21.23973262,0.7637503147,-10.82418633,-3.026270866,11.26519594
21.24473754,0.6823474765,-10.56561184,-2.980781078,10.99921849
21.24974208,0.55784899,-10.26154804,-2.865859509,10.66881973
21.25474639,0.5123591423,-10.02452278,-2.557007313,10.35817818
21.25972154,0.6129156351,-9.959878922,-2.26730895,10.2330613
21.264727,0.9026140571,-9.971850395,-1.953668594,10.20143781
21.26928308,1.106121182,-9.873687744,-1.659181833,10.07303818
21.27473592,1.414973259,-9.722852707,-1.522712231,9.942568412
21.27974308,1.745373011,-9.646238327,-1.59932673,9.932476368
21.28474677,2.142810583,-9.727641106,-1.460463047,10.06735273
21.28930308,2.497152328,-9.938331604,-1.139639974,10.31043084
21.29427662,2.705447912,-10.35492229,-0.9265560508,10.74254952
21.29972954,2.813186884,-11.13543224,-0.940921247,11.52376694
21.30473623,2.774879694,-11.80820274,-0.9289502501,12.16538359
21.30973908,2.53067112,-12.37562847,-0.9457096457,12.66707713
21.31474454,2.260126352,-12.91671848,-1.101332784,13.15913072
21.31974916,1.798045516,-13.40274143,-1.59693253,13.61677785
21.32427746,1.407790542,-13.64694977,-1.963245392,13.85912857
21.32972954,0.7062895298,-13.97974396,-2.588132143,14.23483453
21.33473408,0.08140286058,-14.32690334,-2.882618904,14.61424913
21.33973839,-0.5913678408,-14.64772606,-3.069366693,14.97753673
21.34474454,-1.422155857,-14.91587639,-3.306392431,15.34399318
21.34974862,-1.939303398,-15.01403904,-3.512293816,15.54086464
21.35472208,-2.097320795,-15.157691,-3.541024208,15.70647011
21.35972985,-1.795651317,-15.33965015,-3.263296843,15.78538364
21.36473231,-0.9457096457,-15.69638634,-2.537853718,15.92832735
21.36973662,-0.1388636976,-15.93101788,-1.958456993,16.0515472
21.37474216,0.5530605912,-16.07706451,-1.505952835,16.15691101
21.37974577,1.072602391,-16.15367889,-1.007958889,16.22059798
21.38475231,1.393425345,-15.99805546,-0.5339069963,16.06749729
21.38972708,1.48679924,-15.45936012,-0.3782838583,15.53529807
21.39473077,1.244984865,-14.90390587,-0.4357447028,14.9621613
21.39973592,0.5075707436,-14.53759289,-0.4692635238,14.55401811
21.40474185,-1.053448796,-14.31014347,-0.4716577232,14.35661595
21.40974546,-3.41892004,-13.9246769,0.2585737705,14.34058929
21.41475077,-4.826710701,-13.81454372,1.22822547,14.68493419
21.41972454,-5.537788391,-13.95340729,2.396595955,15.2022481
21.42473077,-6.370970726,-14.01326275,3.205836058,15.72380952
21.42973446,-7.536946774,-13.92228317,3.847482204,16.2922882
21.43473939,-8.865729332,-14.00847435,4.601655483,17.20504994
21.439747,-9.92636013,-14.16409683,4.8291049,17.95757552
21.44475039,-10.54645824,-14.29098988,4.290409565,18.27204935
21.44927623,-10.93192482,-14.35323906,3.021482468,18.29349087
21.45472854,-11.36767006,-14.38436413,1.15400517,18.3702363
21.45973354,-11.09951878,-14.60223579,-0.3998316824,18.34623865
21.46473939,-10.19451046,-14.88954067,-1.67115283,18.12234027
21.4697437,-9.490615845,-15.15050793,-2.511517525,18.05318254
21.47430031,-9.033323288,-15.43541813,-3.028665066,18.13907039
21.47927477,-8.729259491,-15.57428169,-3.145981073,18.12885596
21.48428085,-8.099584579,-15.24867058,-3.282450438,17.57554283
21.48973408,-7.560888767,-14.82489681,-3.502717018,17.0062821
21.49473654,-6.610390663,-14.47294903,-3.531447411,16.29830172
21.49974239,-5.293580055,-13.94622517,-3.373430252,15.29376402
21.50474792,-4.197035789,-13.44583702,-2.952050686,14.3916728
21.50972085,-3.483563423,-12.81855583,-3.009511471,13.62012287
21.51472616,-2.214636564,-12.29422569,-1.704671621,12.60787475
21.51973323,1.051054597,-12.75391293,2.063801765,12.96249545
21.52473723,4.75488472,-13.38119316,3.347094059,14.59000678
21.52974062,6.045359135,-13.62300777,1.824381709,15.01536135
21.53474585,6.574477673,-13.83848572,0.5985504389,15.33250489
21.53975046,6.43082571,-13.65652657,0.2059013397,15.09631188
21.54472554,6.440402508,-13.54399872,0.09097966552,14.99756524
21.54972946,5.72214222,-13.13698483,-0.14844051,14.32987496
21.55473385,4.036623955,-12.13381386,0.3591302633,12.79268331
21.5597397,2.315192938,-10.60870743,1.11569798,10.91556566
21.56474462,0.8714894056,-9.552865028,2.15478158,9.831571985
21.56974954,0.107739076,-8.566453934,2.169146776,8.837473533
21.57472362,-0.3375824392,-7.757213593,1.944091797,8.004237474
21.57972854,-0.8451532125,-6.842628479,1.97042799,7.170664887
21.58473346,-1.501164436,-6.009446144,2.075772762,6.532669453
21.58973746,-2.22900176,-5.16189909,1.980004787,5.961046051
21.594743,-2.595314741,-4.546588898,1.929726601,5.579513775
21.59975016,-2.82276392,-3.960009575,1.905784607,5.223187432
21.604723,-2.952050686,-3.361459255,1.826775908,4.832299845
21.60972731,-3.129221678,-2.93768549,1.78128612,4.647042564
21.61473162,-3.296815634,-2.554613113,1.78128612,4.535198091
21.61973685,-3.526659012,-2.341529369,1.719036818,4.568935451
21.62474423,-3.696647406,-2.245761156,1.529894829,4.587943265
21.62974739,-3.694253206,-2.236184359,1.355118155,4.525966466
21.63472216,-3.469198227,-2.212242365,1.063025594,4.249632458
21.63972585,-3.375824451,-2.217030764,0.9552865028,4.150179326
21.644732,-3.325546265,-2.099714994,0.9385270476,4.043376564
21.64973654,-3.210624456,-1.999158382,1.106121182,3.940589767
21.65429354,-3.294421434,-1.9321208,0.9840168953,3.943931113
21.65971531,-3.236960649,-1.968033791,0.9074024558,3.895439701
21.6647517,-3.069366693,-2.097320795,0.8355764151,3.810243347
21.66972454,-2.825158119,-2.296039343,0.8619126081,3.741150679
21.67472985,-2.719813108,-2.473210335,0.9696516991,3.801891256
21.67973662,-2.729389906,-2.624045134,1.211466074,3.975277622
21.68474031,-2.746149302,-2.657563925,1.417367458,4.075894075
21.68974462,-2.810792685,-2.7533319,1.55862534,4.232104089
21.69474862,-2.741360903,-2.815581083,1.661576033,4.266543255
21.6997237,-2.394201756,-2.8969841,1.656787634,4.107269676
21.70472916,-2.226607561,-3.038241863,1.628057122,4.103567331
21.70973439,-2.121262789,-3.155557871,1.503558636,4.088763856
21.71473839,-2.090138197,-3.260902643,1.297657371,4.084859653
21.71974331,-2.176329374,-3.330334663,1.029506683,4.109430925
21.72474985,-2.341529369,-3.426102638,0.6631938815,4.202471321
21.72972277,-2.461239338,-3.473986626,0.2705447972,4.266084462
21.73472793,-2.595314741,-3.526659012,-0.1268926859,4.380534687
21.73973131,-2.82036972,-3.636792421,-0.6368576288,4.646109353
21.74473908,-3.100491285,-3.799597979,-1.546654344,5.142191232
21.74974246,-3.315969467,-4.074931145,-2.458845139,5.800572106
21.7547467,-3.478775024,-4.441244125,-3.500322819,6.639185559
21.75975316,-3.438073635,-4.838681698,-4.587290287,7.501761331
21.76472731,-3.330334663,-5.307945251,-5.817910194,8.550642712
21.76973262,-3.217807055,-6.059724331,-7.563282967,10.21164974
21.77473623,-2.961627483,-6.849811077,-9.030928612,11.71532418
21.77974023,-2.468421936,-7.80509758,-10.67574501,13.45303633
21.784747,-2.090138197,-8.877699852,-11.8728466,14.97153028
21.78975039,-2.171540976,-10.31182671,-11.93030739,15.91796452
21.79472462,-1.82198751,-11.43949604,-11.66933918,16.44248111
21.79972862,-1.254561663,-12.78503704,-11.69806957,17.37457708
21.80473631,-1.063025594,-14.43703651,-11.56399441,18.52792523
21.80973908,-1.288080573,-16.46731949,-11.33415127,20.03234254
21.81474431,-1.568202138,-19.59654045,-12.96939087,23.55183125
21.81974862,-1.604115129,-22.62281227,-17.85835075,28.86668516
21.82472362,-0.9696516991,-25.64429474,-22.89575005,34.39164793
21.82972739,0.7517793179,-26.86294365,-21.85666656,34.63952637
21.83473316,2.93768549,-25.45515251,-15.70117474,30.05198285
21.83974023,2.786850691,-22.55098534,-11.26471901,25.36153329
21.844744,2.37744236,-18.59815788,-9.03571701,20.81316628
21.84974762,2.41574955,-13.76905441,-8.889671326,16.56650119
21.85472185,2.971204281,-8.990227699,-9.986215591,13.76142256
21.85972677,3.323152065,-4.151545525,-11.45146656,12.62595566
21.86473323,3.268085241,-1.350329757,-11.76989555,12.28959775
21.86973716,2.832340717,0.3711012602,-10.82179165,11.19245481
21.8747427,2.049436569,0.8331822157,-8.947132111,9.216591336
21.87974677,0.3327940404,-0.08140286058,-6.16506958,6.174581867
21.88472147,-1.493981838,-1.369483352,-3.481169224,4.028151629
21.88972677,-3.426102638,-2.928108692,-0.3878606856,4.523542385
21.8947307,-5.513846397,-4.702212334,2.760514498,7.754594974
21.89973539,-7.280767441,-6.727706909,5.884947777,11.52840948
21.90474177,-8.365341187,-9.801861763,9.059659004,15.75223313
21.90974585,-9.449913979,-12.51209831,10.93671322,19.11714347
21.91474977,-10.58476543,-15.4665432,11.67891598,22.08276016
21.919727,-11.47062016,-18.50957298,11.08754826,24.4358987
21.924731,-11.6860981,-22.55816841,8.43956089,26.77054424
21.92973439,-11.15697956,-25.9555397,4.000710964,28.53373306
21.93473877,-8.078036308,-28.96505165,-5.214571476,30.51918484
21.93974431,-1.616086125,-30.95223999,-17.39626884,35.54269355
21.94475008,2.863465309,-29.09912682,-18.93095207,34.83302401
21.949723,1.340752959,-21.23896408,-8.125920296,22.77985501
21.95472831,-1.927332401,-14.15212631,4.204218388,14.8886783
21.95928585,-4.352658749,-8.798690796,7.824251175,12.55314719
21.96473908,-5.133168221,-5.489904404,3.062183857,8.115752357
21.96974362,-7.13232708,-1.611297727,-2.645592928,7.775958583
21.974748,-8.36294651,0.7541735172,-5.35343504,9.958258821
21.97972247,-7.781155586,1.991975784,-3.670311213,8.830941863
21.98472762,-5.980715752,1.977610588,1.52510643,6.481192341
21.98973223,-4.005499363,1.37666595,6.603208065,7.84484487
21.99473716,-3.268085241,0.4165911078,9.057265282,9.637841235
21.999743,-2.521094322,-0.5554547906,10.67095661,10.97878689
22.00474731,-2.04464817,-2.054224968,12.54801083,12.87839284
22.00972031,-2.7509377,-4.144362926,14.22634697,15.07091074
22.01472608,-5.403713226,-6.624756336,14.63336086,16.94764772
22.01973077,-6.119579315,-8.420407295,14.46576691,17.82164196
22.02473723,-6.009446144,-10.22563553,13.42428875,17.91336354
22.02974062,-5.686229229,-12.05719948,11.99495029,17.93287748
22.03474554,-4.288015366,-14.47055531,9.62469101,17.90024368
22.03975039,-2.624045134,-16.27338982,7.20654726,17.99008484
22.04472585,-0.4429273009,-17.86792755,3.643975019,18.24109573
22.04928154,3.19625926,-19.52950287,-2.980781078,20.01256134
22.05428708,6.679822922,-20.19269753,-10.46984386,23.70617426
22.059292,7.534552574,-19.65879059,-13.71638107,25.12720915
22.06471439,5.219359875,-17.48485565,-11.79144382,21.72556195
22.06974916,3.552995205,-15.29416084,-8.65743351,17.93003864
22.07472308,2.722207308,-13.32133865,-6.052541733,14.88293444
22.07973016,2.683900118,-11.43231297,-3.7181952,12.31771388
22.08473439,2.693476915,-10.40280628,-2.140416384,10.95694203
22.08973808,1.685518026,-9.47146225,-1.505952835,9.737425846
22.09429539,0.3256114423,-8.659827232,-0.758961916,8.699117984
22.09971746,-0.9361328483,-7.771578789,0.03830722719,7.827850856
22.10427531,-1.905784607,-6.931213856,0.5075707436,7.206342244
22.1097267,-2.698265314,-6.215347767,0.7038952708,6.812242811
22.11473139,-3.557783842,-5.556941986,0.5003881454,6.617236462
22.11973693,-4.000710964,-5.19781208,0.2322375625,6.563297413
22.12429508,-4.338293552,-4.98233366,-0.2274491638,6.610308069
22.12971662,-4.357447147,-4.94642067,-0.4046200812,6.604403114
22.13472116,-3.768473387,-5.272032261,-0.2729389966,6.486155373
22.13972616,-2.920926094,-5.631162167,-0.2992752194,6.350697777
22.1447317,-1.982398987,-6.095637321,-0.5291185975,6.431692358
22.14973562,-0.9840168953,-6.785167694,-0.739808321,6.895948538
22.15474054,-0.3088520169,-7.307103634,-0.6584054828,7.3432044
22.15974731,0.1699883193,-7.800309181,-0.5722141862,7.823116286
22.1647517,0.4668693244,-8.276755333,-0.5339069963,8.307087485
22.16972431,0.653617084,-8.683769226,-0.5075707436,8.723112479
22.17428277,0.6823474765,-8.868123055,-0.4860229492,8.907604779
22.17928762,0.5913678408,-9.121908188,-0.4812345505,9.153715727
22.18429254,0.586579442,-9.141061783,-0.3806780577,9.167769726
22.18971354,0.3615244627,-9.143456459,-0.3663128614,9.157929955
22.19474885,-0.03112462163,-9.083600998,-0.3950432837,9.092240374
22.19972331,-0.4213795066,-9.10036087,-0.6009446383,9.129910356
22.20472885,-0.825999558,-8.971074104,-0.6105214357,9.029683399
22.20973347,-1.273715258,-8.741230011,-0.4405331016,8.844519324
22.214291,-1.70946002,-8.518569946,-0.2657563984,8.692463054
22.21971224,-2.255337954,-8.295908928,-0.2442085743,8.600482083
22.2242997,-2.631227732,-8.085219383,-0.3854664862,8.511328701
22.22927508,-2.877830505,-7.88171196,-0.605733037,8.412502859
22.23472793,-2.93529129,-7.745242596,-0.7015010715,8.312449794
22.23973408,-2.762908697,-7.58961916,-0.7493851185,8.111569609
22.24429016,-2.509123325,-7.469909191,-0.8571242094,7.926531719
22.24926424,-2.176329374,-7.431602001,-0.9361328483,7.800093753
22.25471693,-1.817199111,-7.438784599,-0.9457096457,7.715704482
22.25972085,-1.355118155,-7.630321026,-0.873883605,7.798834319
22.26472677,-0.9481038451,-7.857769966,-0.8906430602,7.964715613
22.269731,-0.5027823448,-8.200140953,-1.019929886,8.278608501
22.27473593,-0.007182605099,-8.607154846,-1.455674648,8.729384561
22.27974093,0.5458779931,-9.030928612,-2.003946781,9.266685334
22.28474708,0.988805294,-9.665391922,-2.511517525,10.0352009
22.28974985,1.33835876,-10.18972206,-2.626439333,10.60753616
22.29472454,1.640028119,-10.59913063,-2.748543501,11.07184509
22.29973008,1.838746905,-10.9247427,-2.7509377,11.41484347
22.304735,2.106897593,-11.24556541,-2.628833532,11.73935793
22.30973908,2.30801034,-11.41076565,-2.449268341,11.89669701
22.314744,2.470816135,-11.58075333,-2.327163935,12.06791084
22.319303,2.533065319,-11.71243477,-2.387019157,12.21865003
22.32472547,2.41574955,-11.71961689,-2.420537949,12.20836885
22.32972916,2.169146776,-11.54962921,-2.734178305,12.06544088
22.33473293,1.628057122,-11.39640045,-3.026270866,11.90322765
22.339739,1.168370485,-11.45864964,-3.502717018,12.03888564
22.3442957,0.8331822157,-11.48738003,-3.56496644,12.05666116
22.34971724,0.4716577232,-11.48019695,-3.186682463,11.92360383
22.3542757,0.323217243,-11.44188976,-2.779668093,11.77912838
22.35972708,0.2226607651,-11.42991924,-2.114080191,11.62591789
22.36473254,0.2609679997,-11.45625496,-1.429338455,11.54802539
22.36973662,0.4644751251,-11.51611042,-0.5889736414,11.54051239
22.37474208,0.7038952708,-11.63821411,-0.2202665508,11.66156137
22.379747,1.055842996,-11.82735634,-0.1915361285,11.87593569
22.38472208,1.388636947,-12.11466026,-0.4979939461,12.20415109
22.38972608,1.675941229,-12.42590714,-1.029506683,12.58061331
22.39473139,1.927332401,-12.8544693,-1.802833915,13.12258364
22.39928924,1.912967205,-13.16571522,-2.217030764,13.48742845
22.40426362,1.802833915,-13.77144814,-2.760514498,14.16062972
22.40971531,1.484405041,-14.31732655,-3.040636063,14.71172204
22.41474985,0.8188169599,-14.81532001,-3.210624456,15.18131344
22.41972454,0.2849099934,-15.08347034,-3.315969467,15.44629097
22.42472947,-0.2202665508,-15.15529633,-3.330334663,15.51846168
22.42973477,-0.5650315881,-15.03079796,-3.102885485,15.35812639
22.43429254,-0.7254431248,-14.89432907,-2.796427488,15.17192515
22.43926677,-0.6967126727,-14.93742466,-2.655169725,15.18756038
22.44427224,-0.5722141862,-15.13614273,-2.473210335,15.34754101
22.44927654,-0.4141969085,-15.31810284,-1.996764183,15.45324888
22.45472893,-0.3351882398,-15.34443855,-1.685518026,15.44037294
22.45928585,-0.4525041282,-15.10741234,-1.429338455,15.18162297
22.46473847,-1.130063176,-14.62378407,-1.388636947,14.73297036
22.4697427,-2.463633537,-14.2143755,-1.316810966,14.48626771
22.47474831,-4.216189384,-13.77863121,-1.000776291,14.44397743
22.47927601,-5.532999992,-13.73314095,-0.2920926213,14.8087328
22.48472985,-6.663063526,-13.94143677,0.9002198577,15.47806417
22.48973262,-7.515398979,-14.00129128,1.738190413,15.98557741
22.49473654,-8.075642586,-14.10184765,2.518700123,16.44451156
22.49974124,-8.511386871,-14.15691471,3.478775024,16.88087131
22.50474854,-8.77235508,-14.20240402,4.443638325,17.27450188
22.50972177,-8.83699894,-14.22395229,4.520252705,17.34491434
22.51472524,-9.105149269,-14.22874069,4.003105164,17.36046243
22.5197307,-9.641449928,-14.22395229,3.131615877,17.46669384
22.52473685,-9.983820915,-14.34845066,1.922544003,17.58553075
22.52974093,-9.186552048,-14.59984207,0.3303998411,17.25274735
22.53429816,-8.250418663,-14.86081028,-0.8236053586,17.0173857
22.5397197,-7.58961916,-15.05952835,-1.553836942,16.93535126
22.54472608,-7.038952827,-14.98770237,-1.891419291,16.6659997
22.54972985,-6.150704384,-14.62857246,-2.578555346,16.07716531
22.5547347,-5.489904404,-14.36999893,-3.248931646,15.72232414
22.55974054,-4.67827034,-13.97016716,-3.60566783,15.16748576
22.56474462,-3.916913986,-13.45062542,-3.356670856,14.40585918
22.56974954,-3.143586874,-12.97896767,-2.997540474,13.68652582
22.57472277,-2.813186884,-12.22958183,-3.141192675,12.93614253
22.57972793,-1.78368032,-12.05719948,-1.78368032,12.31824217
22.58473416,0.6943184733,-12.59589481,1.230619669,12.67489917
22.58973785,2.880224705,-13.11783123,2.197877169,13.60896229
22.59474308,3.428496838,-13.40034676,1.280897856,13.89116925
22.59930031,3.387795448,-13.47696114,0.3806780577,13.90145875
22.604723,2.616862535,-13.33570385,0.09576806426,13.59036932
22.609727,2.439691544,-13.04121685,0.624886632,13.2821653
22.61473224,2.614468336,-12.77067184,0.8451532125,13.06291652
22.61973631,2.408566952,-12.04762268,0.6296750307,12.30215012
22.62474277,1.685518026,-10.99178028,0.605733037,11.13674626
22.62974647,0.806845963,-10.29985619,0.8882488012,10.3695238
22.63427408,0.174776718,-9.423578262,1.197100878,9.500917044
22.63972824,-0.1556231081,-8.391676903,1.345541358,8.500290662
22.644732,-0.5051765442,-7.4363904,1.41257906,7.586203604
22.649736,-0.9768342972,-6.552929878,1.549048543,6.804016947
22.65474024,-1.357512355,-5.738901615,1.666364431,6.128180967
22.65974547,-1.699883223,-5.075707436,1.611297727,5.59005271
22.664752,-1.843535304,-4.357447147,1.623268723,5.002096501
22.66972462,-1.982398987,-3.890577793,1.675941229,4.6771017
22.67472977,-1.951274395,-3.485957623,1.726219416,4.351919781
22.67973377,-1.97042799,-3.124433279,1.82198751,4.118775093
22.68474093,-2.085349798,-2.849100113,1.74776721,3.939637731
22.68974454,-2.262520552,-2.762908697,1.41018486,3.839438117
22.69474893,-2.398990154,-2.770091295,1.199495077,3.855820015
22.69972331,-2.288856745,-2.774879694,1.051054597,3.747470918
22.70473008,-2.449268341,-2.82036972,0.8906430602,3.840136173
22.70973293,-2.578555346,-2.86107111,0.8092401624,3.935675953
22.71575201,-2.578555346,-2.86107111,0.8092401624,3.935675953
22.71974401,-2.655169725,-2.956839085,0.825999558,4.058952933
22.72474893,-2.803610086,-2.949656487,0.9265560508,4.173632593
22.72972208,-3.086126089,-2.892195702,0.9744400978,4.340334517
22.73472647,-3.236960649,-2.839523315,0.9864110947,4.417444256
22.73973285,-3.313575268,-2.79163909,1.101332784,4.47056638
22.74473693,-3.459621429,-2.784456491,1.18752408,4.596998132
22.74974124,-3.576937437,-2.71263051,1.312022567,4.67699144
22.75474608,-3.615244627,-2.688688517,1.345541358,4.702076265
22.75972124,-3.497928619,-2.695871115,1.398213744,4.632302599
22.76472554,-3.258508444,-2.664746523,1.335964561,4.416282669
22.76973078,-3.047818661,-2.671929121,1.201889277,4.227640199
22.77473562,-2.837129116,-2.700659513,1.058237195,4.057428914
22.77974031,-2.731784105,-2.755726099,0.9169792533,3.987169633
22.78474462,-2.705447912,-2.786850691,0.6272808313,3.934395306
22.78974978,-2.7509377,-2.810792685,0.2992752194,3.944335103
22.79472485,-2.817975283,-2.808398485,-0.1340752989,3.98071136
22.79973193,-2.829946518,-2.825158119,-0.6440402865,4.050296728
22.80473416,-2.705447912,-2.942473888,-1.393425345,4.233111761
22.8097387,-2.533065319,-3.136404276,-2.054224968,4.524742193
22.81474454,-2.33913517,-3.426102638,-2.767697096,4.986971009
22.81974947,-2.075772762,-3.799597979,-3.505111217,5.570599789
22.82472278,-1.628057122,-4.479551315,-4.685452938,6.683593286
22.82972854,-1.335964561,-5.243301868,-5.75805521,7.901405925
22.83428547,-1.180341482,-6.121973515,-6.926425457,9.319181044
22.83973785,-1.055842996,-7.084442616,-8.020575523,10.75331406
22.84474278,-1.024718285,-8.339004517,-9.416395187,12.61972829
22.84930154,-1.297657371,-9.179368973,-10.39083576,13.9253078
22.85472216,-1.44849205,-10.68292809,-11.74595356,15.94335306
22.85972701,-1.386242747,-12.12184334,-12.30859089,17.33095971
22.86473201,-1.436521053,-14.32929707,-12.50252151,19.07106162
22.86928985,-1.582567334,-15.92862415,-12.15057373,20.09631879
22.8747107,-1.922544003,-19.00517273,-12.20085144,22.66613204
22.87930093,-2.183511972,-21.78484154,-14.06593513,26.02302013
22.88472216,-2.389413357,-24.92842865,-22.02904892,33.35288365
22.88972678,-2.169146776,-26.32424736,-25.57725716,36.76774783
22.8947307,-1.824381709,-26.06806755,-22.36902618,34.39834076
22.89973508,-1.379060149,-24.01623726,-16.75222969,29.31413752
22.90474001,-0.6272808313,-19.72103882,-10.994174,22.58726888
22.90974516,0.4022258818,-15.24867058,-8.870517731,17.6456744
22.91475078,1.017535686,-9.816226959,-8.805873871,13.22637914
22.91972393,1.946485996,-4.924872875,-9.11233139,10.53934362
22.92472978,3.289633036,-1.007958889,-8.796297073,9.445237363
22.92973385,2.67432332,0.7422025204,-8.054094315,8.51887933
22.93473901,1.185129881,0.9911994934,-6.856993675,7.02889547
22.93974339,-0.9672574997,-0.2753331959,-6.169857979,6.251283302
22.94474893,-3.332728863,-2.815581083,-4.661510944,6.384689718
22.94972331,-4.898536682,-4.963180065,-2.703053713,7.478991734
22.95472739,-6.634333134,-7.249642849,-0.4429273009,9.837066746
22.95973562,-8.999804497,-9.610325813,2.430114746,13.38881253
22.96473839,-10.18493366,-12.64617348,6.64869833,17.54604704
22.96974339,-10.68532181,-14.887146,8.599972725,20.24259739
22.9747477,-10.35492229,-17.28134727,7.714118004,21.57259827
22.97972178,-8.748413086,-20.03228569,4.268861771,22.27218854
22.98472739,-6.68700552,-23.56373405,1.029506683,24.51582121
22.98973201,-4.513070107,-25.78315735,-3.608062029,26.42266293
22.99473654,-0.9121908545,-26.21890259,-8.892065048,27.70075389
22.99974178,2.995146275,-23.02503777,-11.15458584,25.75942644
23.00429931,3.117250681,-19.55583954,-7.603984833,21.21246561
23.00972124,0.4429273009,-12.30380249,3.098097086,12.69558765
23.01472608,-1.551442742,-7.323863029,7.216124058,10.39799936
23.01928278,-3.184288263,-4.338293552,4.771644115,7.19229242
23.02428801,-5.169081688,-2.367865562,0.5746083856,5.714575016
23.02929324,-7.007828236,-0.6081272364,-3.191470861,7.72430978
23.0347147,-6.976703644,-0.1005564705,-3.236960649,7.691711096
23.03975224,-5.528211594,-0.4094084799,0.4955997467,5.565461152
23.04472454,-3.900154591,-1.312022567,3.995922565,5.7358527
23.04928147,-2.592920542,-2.437297344,6.256049156,7.197347173
23.05473408,-1.331176162,-3.866635799,7.532158375,8.570665795
23.05974024,-1.285686255,-5.667075634,9.179368973,10.86414056
23.06474462,-1.982398987,-7.187393665,10.66377449,13.01171087
23.06974885,-3.114856482,-8.590395927,11.47301483,14.66721863
23.07472301,-4.42209053,-9.801861763,11.84890461,16.00087245
23.07972762,-3.962403774,-11.48259163,11.60469532,16.7993901
23.0842867,-3.215412855,-12.46660805,10.14902115,16.39383501
23.08973847,-2.138022184,-14.17367363,8.025363922,16.42773962
23.09474339,-0.6153098345,-15.60540676,5.293580055,16.49027945
23.09974762,1.654393315,-17.24304008,0.9337386489,17.34737203
23.10472239,3.478775024,-18.27015305,-3.811569214,18.98495267
23.1097267,4.491522312,-18.60534096,-8.06127739,20.76816501
23.11473231,4.067748547,-17.62132454,-9.900024414,20.6171807
23.11973908,2.418143749,-15.26543045,-9.13866806,17.95539028
23.12474178,1.142034173,-13.27824306,-7.038952827,15.07192217
23.12974708,0.8858546019,-11.62863731,-5.20020628,12.76918515
23.13472085,0.5123591423,-10.37886429,-3.447650433,10.94849895
23.13972493,-0.3734954596,-9.165003777,-1.594538331,9.310174304
23.14473108,-1.089361787,-8.42759037,-0.5003881454,8.512424851
23.1497347,-2.133233786,-7.87931776,0.1771709323,8.164908101
23.15474093,-3.19625926,-7.51061058,1.163581967,8.244954066
23.15974493,-4.252102375,-6.825869083,0.5482721925,8.060611996
23.16474985,-4.953603268,-6.442796707,-0.4022258818,8.136928192
23.16927747,-5.588066578,-6.222530365,-1.455674648,8.489131929
23.17472978,-5.896918774,-6.047753334,-2.056619167,8.693598439
23.17973408,-5.693411827,-5.923254967,-2.025494576,8.461826984
23.18429201,-5.35343504,-5.999869347,-1.630451322,8.204637129
23.18971354,-5.169081688,-6.047753334,-1.604115129,8.115904831
23.19474831,-4.453215122,-6.184223175,-1.422155857,7.752307301
23.19972608,-3.600879431,-6.4715271,-1.199495077,7.502385228
23.20428154,-2.67671752,-6.880935669,-0.9816226959,7.448199479
23.20973324,-1.958456993,-7.292738438,-0.8475474119,7.598547514
23.21473808,-1.103726983,-7.836222172,-0.6584054828,7.940912351
23.21974301,-0.5410895944,-8.154650688,-0.5770025849,8.192926082
23.22474793,-0.1580173075,-8.396465302,-0.4716577232,8.411186601
23.22927478,0.1292868853,-8.58081913,-0.4094084799,8.591553256
23.23472678,0.356736064,-8.7843256,-0.3447650373,8.798323692
23.23973201,0.3256114423,-8.875306129,-0.4165911078,8.891042113
23.24473724,0.4094084799,-8.951920509,-0.4812345505,8.974189813
23.24974247,0.5339069963,-9.018958092,-0.5626373887,9.052249586
23.25474639,0.4788403511,-9.06205368,-0.6607996821,9.098723054
23.25972085,0.3016694188,-9.124302864,-0.7445967197,9.159603238
23.26472585,0.09816227108,-9.153033257,-0.806845963,9.189050769
23.2692837,-0.1675941199,-9.129091263,-0.806845963,9.166209439
23.27473531,-0.5339069963,-8.961497307,-0.7230489254,9.006458261
23.27974247,-0.8236053586,-8.801085472,-0.6679822803,8.864740921
23.28474647,-1.134851575,-8.564059258,-0.5698199868,8.657695645
23.28975047,-1.474828243,-8.240841866,-0.4596867263,8.384384586
23.29472401,-1.853112102,-7.848193169,-0.3663128614,8.072319715
23.29973016,-2.001552582,-7.61356163,-0.3088520169,7.878319808
23.30473478,-2.018311977,-7.429207802,-0.1867477298,7.700752334
23.30929201,-1.944091797,-7.357381821,-0.01675941236,7.609917283
23.31426585,-1.807622313,-7.352593422,0.0191536136,7.571558315
23.31971785,-1.644816518,-7.402871609,-0.04070143029,7.583507502
23.32427631,-1.417367458,-7.527369976,-0.2130839527,7.662612742
23.32928178,-1.165976286,-7.704541206,-0.4501099288,7.805258154
23.33428578,-0.9169792533,-7.967903137,-0.7230489254,8.053019999
23.33929078,-0.5913678408,-8.394071579,-1.223437071,8.50334945
23.34426547,-0.3136404157,-8.786720276,-1.549048543,8.927730669
23.34971724,-0.01197100803,-9.203310966,-1.89620769,9.396631293
23.35472247,0.349553436,-9.677363396,-2.363077164,9.967832441
23.35973016,0.5985504389,-10.00536919,-2.655169725,10.36897302
23.36473231,0.739808321,-10.25197124,-2.887407303,10.67648592
23.36973755,0.7278373241,-10.40280628,-2.995146275,10.84983995
23.37474054,0.672770679,-10.50096893,-3.05021286,10.95567284
23.3797467,0.6224924326,-10.57279491,-2.983175278,11.0032188
23.38475224,0.5674257874,-10.59673691,-2.849100113,10.98772845
23.38972647,0.55784899,-10.66856289,-2.662352324,11.00988417
23.39473108,0.4884171486,-10.69011021,-2.571372509,11.00586044
23.39973508,0.4213795066,-10.68771648,-2.652775526,11.02007542
23.40474062,0.2753331959,-10.67335129,-2.928108692,11.07113619
23.40974516,0.3208230138,-10.65898609,-3.16034627,11.12226148
23.41474978,0.6177040339,-10.74278259,-3.313575268,11.25916148
23.41972493,0.9265560508,-10.82179165,-3.354276657,11.36753502
23.42428239,1.283292055,-10.81939793,-3.303998232,11.38519277
23.42928793,1.659181833,-10.86967564,-3.076549292,11.41787582
23.43429162,2.037465572,-10.97262669,-2.621650934,11.46398081
23.4392677,2.391807556,-11.28147888,-1.956062794,11.6969522
23.4442717,2.504334927,-11.68370438,-1.505952835,12.04360973
23.44927693,2.657563925,-11.94467258,-0.9983820915,12.27740266
23.45428116,2.667140722,-12.20085144,-0.624886632,12.50459511
23.45928608,2.559401512,-12.53843403,-0.4453215301,12.80473253
23.46473847,2.346317768,-12.8353157,-0.7254431248,13.06815993
23.46974301,1.879448295,-13.19683933,-1.347935557,13.39797837
23.4747477,1.323993564,-13.54639339,-1.984793186,13.75489502
23.47972155,0.6344634295,-13.9246769,-2.624045134,14.18396219
23.48427939,-0.06464344263,-14.22155857,-3.172317266,14.57122177
23.48973162,-0.9121908545,-14.46337223,-3.785232782,14.97829148
23.49428832,-1.515529633,-14.51604462,-4.019864559,15.13841777
23.49926424,-1.956062794,-14.40351772,-3.952826977,15.06360998
23.50471624,-2.087743998,-14.40591145,-3.909731388,15.07232428
23.50927324,-1.824381709,-14.47294903,-3.799597979,15.07420203
23.51472647,-1.340752959,-14.62378407,-3.292027235,15.04958877
23.51973285,-0.8379706144,-14.7841959,-2.892195702,15.08772478
23.52473601,-0.2729389966,-14.89432907,-2.52827692,15.10985501
23.52974062,0.2466027737,-14.78180122,-2.073378563,14.92854176
23.53474585,-0.0191536136,-14.48731422,-1.690306425,14.58560167
23.53974985,-0.7038952708,-14.12100124,-1.367089152,14.20447385
23.54472485,-1.553836942,-13.836092,-1.285686255,13.98230453
23.54972978,-2.784456491,-13.86961079,-1.371877551,14.21271787
23.55473439,-3.722983599,-14.35563374,-1.125274777,14.87316611
23.55973847,-4.604049683,-14.90869427,-0.6799532771,15.61821932
23.56474432,-5.549759388,-15.37077522,1.04147768,16.37514079
23.56974978,-5.978321552,-15.7562418,2.971204281,17.11220439
23.57472362,-6.191405773,-15.88313389,5.032611847,17.77455005
23.57972916,-6.296750546,-15.75384712,6.373364925,18.12325984
23.58473347,-6.751648903,-15.5551281,6.569689274,18.18536747
23.58929132,-7.407660007,-15.33965015,6.373364925,18.18785513
23.59471293,-8.549694061,-15.1720562,5.693411827,18.32221319
23.59974924,-9.543288231,-15.19120979,4.967968464,18.6152603
23.60472308,-10.30703831,-15.47851372,3.476380825,18.91836804
23.60972639,-9.923966408,-15.64610767,1.78128612,18.6134031
23.61473162,-8.846575737,-15.58864689,-0.03351882473,17.92397661
23.61973778,-7.65186882,-15.33486176,-1.788468719,17.23100989
23.62474216,-6.478709698,-14.75546551,-4.27125597,16.67156469
23.62974616,-5.494692802,-14.30535507,-5.844246387,16.40091609
23.63427324,-4.405331135,-13.85285091,-6.054935932,15.74708449
23.63972555,-4.180276394,-13.34049225,-5.760449409,15.12039092
23.64473139,-4.12999773,-12.63180828,-5.336675644,14.32129773
23.64928855,-3.945644379,-12.16493893,-5.173870087,13.79575226
23.65473939,-3.009511471,-11.44428444,-3.617638826,12.37400971
23.65974555,-1.230619669,-11.42513084,-1.055842996,11.53962062
23.66430185,1.139639974,-11.73877048,0.895431459,11.82790384
23.66972432,2.284068346,-11.84411621,1.604115129,12.16853493
23.67472924,3.655946016,-12.08832455,1.613691926,12.73175295
23.67928947,4.082113743,-12.09550667,0.8810662031,12.7961405
23.68473901,3.42131424,-11.85608673,0.624886632,12.35567347
23.68974424,2.82036972,-11.57596493,1.00317049,11.95674707
23.69474947,2.298433542,-11.28147888,1.295263171,11.58586506
23.6997237,1.900996208,-10.85291672,1.211466074,11.08454951
23.70472824,1.467645645,-10.16338634,0.8188169599,10.30140121
23.70973355,0.7493851185,-9.200917244,0.9768342972,9.282923108
23.71473816,0.004788403399,-8.894459724,1.22583127,8.978535461
23.71974247,-0.5315127969,-8.355764389,1.357512355,8.481989399
23.72474855,-1.218648672,-7.508216381,1.429338455,7.739601167
23.72972278,-1.78128612,-6.770802498,1.496376038,7.159321752
23.73472793,-1.987187386,-6.016628742,1.594538331,6.533857024
23.7397317,-2.166752577,-5.339069843,1.458068848,5.943605664
23.74473624,-2.260126352,-4.627991676,1.197100878,5.287677051
23.74974116,-2.384624958,-4.13239193,0.9648633003,4.867654511
23.75430024,-2.391807556,-3.677493811,0.8236053586,4.463522141
23.7597237,-2.461239338,-3.246537447,0.7661445141,4.145441097
23.76472701,-2.497152328,-2.853888512,0.7086837292,3.857807929
23.76928401,-2.408566952,-2.63601613,0.5817909837,3.617769555
23.77428862,-2.410961151,-2.504334927,0.5003881454,3.512095584
23.77971016,-2.387019157,-2.449268341,0.4525041282,3.449860265
23.78474524,-2.439691544,-2.351106167,0.538695395,3.430741576
23.78930239,-2.578555346,-2.360682964,0.7086837292,3.567072239
23.79472578,-2.729389906,-2.286462545,0.873883605,3.666217777
23.79973008,-2.904166698,-2.147598982,1.022324085,3.753866292
23.80428762,-2.968810081,-2.094926596,1.134851575,3.806630904
23.80974001,-3.260902643,-2.133233786,1.422155857,4.148095914
23.81474493,-3.596091032,-2.262520552,1.498770237,4.505239414
23.81974978,-3.730166197,-2.513911724,1.505952835,4.743604743
23.82427632,-3.75650239,-2.679111719,1.458068848,4.838896008
23.82972793,-3.749319792,-2.959233284,1.438915253,4.988480494
23.83473355,-3.629609823,-3.193865061,1.424550056,5.040256378
23.83974001,-3.330334663,-3.423708439,1.319205165,4.955119647
23.84429593,-3.134010077,-3.557783842,1.233013868,4.898996655
23.84971809,-2.983175278,-3.754108191,1.055842996,4.909935588
23.85472124,-2.817975283,-3.900154591,0.9074024558,4.896485448
23.85972732,-2.628833532,-4.019864559,0.6823474765,4.851358046
23.86473232,-2.501940727,-4.120420933,0.4141969085,4.838298786
23.86973747,-2.41574955,-4.209006786,0.08619125932,4.853762762
23.87474178,-2.41335535,-4.367023945,-0.3543418646,5.002073604
23.87929878,-2.434903145,-4.553771496,-1.019929886,5.263634213
23.88472116,-2.432508945,-4.833893299,-2.142810583,5.820245819
23.88972578,-2.394201756,-5.085284233,-3.131615877,6.434231561
23.89473193,-2.394201756,-5.293580055,-4.165910721,7.14905616
23.89928824,-2.410961151,-5.434837818,-5.406107426,8.035931388
23.90474062,-2.233790159,-5.61919117,-6.603208065,8.95362969
23.90974585,-1.922544003,-5.999869347,-7.603984833,9.874978124
23.91475016,-1.726219416,-6.612784863,-8.844181061,11.17713272
23.91972647,-1.498770237,-7.635109425,-10.40520096,12.99266774
23.92428216,-1.678335428,-8.621520042,-10.52251625,13.70659571
23.92973385,-1.833958507,-9.631873131,-10.04846478,14.03951666
23.93473878,-2.061407566,-10.699687,-9.720458984,14.60205554
23.93974308,-2.22900176,-12.43308926,-9.540893555,15.82968121
23.94474832,-2.597708941,-14.21676922,-10.11310768,17.63914867
23.94972301,-2.892195702,-16.25423622,-11.41555405,20.07186751
23.95472885,-2.786850691,-18.48802567,-14.53998661,23.68511854
23.95973324,-2.159569979,-21.64597702,-17.89905167,28.17069602
23.96473816,-1.218648672,-23.64034843,-19.28529549,30.53315904
23.96974332,-0.02154781483,-23.88934517,-18.83039665,30.41849955
23.97474801,1.771709204,-22.68745613,-15.37556362,27.46393227
23.97972185,2.45405674,-20.59731674,-12.44027233,24.18743945
23.98472616,2.67432332,-17.82483101,-10.25915432,20.73949983
23.98973193,2.726995707,-14.29338455,-9.337387085,17.28942293
23.99473632,3.148375273,-9.382876396,-9.634267807,13.81194239
23.99929601,3.428496838,-6.811503887,-9.928754807,12.51923911
24.00471724,3.713406801,-3.576937437,-10.25915432,11.48190397
24.00927324,3.598485231,-1.958456993,-10.10592556,10.90478708
24.01472586,3.040636063,-1.295263171,-8.662221909,9.271313971
24.01973101,2.463633537,-1.929726601,-7.216124058,7.865480365
24.02428824,1.137245774,-2.966415882,-5.736507416,6.557474245
24.02974024,-0.5506663918,-4.288015366,-4.027047157,5.90825
24.03429755,-2.346317768,-5.729324818,-1.996764183,6.505185404
24.03971993,-4.891354084,-7.520187378,0.672770679,8.996176041
24.04427716,-6.368576527,-8.973467827,2.592920542,11.30509304
24.04928186,-7.156269073,-10.52491093,4.23294878,13.41282194
24.05473416,-7.668628216,-12.49533844,4.967968464,15.47973036
24.05973901,-7.577648163,-14.4992857,4.086902142,16.86276391
24.06474401,-7.184999466,-16.69476891,2.561795712,18.35489917
24.06974862,-6.296750546,-18.82081985,0.7445967197,19.86018005
24.0747237,-4.46279192,-20.81997871,-0.7182605267,21.30502109
24.07972955,-3.75650239,-21.76808167,-2.45166254,22.225466
24.08428555,-2.159569979,-21.62203598,-5.401319027,22.39085594
24.08929101,-0.7948749661,-20.34592628,-8.494627953,22.06234907
24.09426462,-0.9576807022,-17.72427559,-8.832210541,19.82612016
24.09926978,-2.724601507,-12.97896767,-2.655169725,13.52505014
24.10427532,-4.311957359,-9.232041359,1.699883223,10.33020653
24.10972709,-5.626373768,-6.505045891,2.382230759,8.92450151
24.11473139,-7.618350029,-4.213795185,-0.5674257874,8.724522855
24.11973693,-9.040505409,-2.662352324,-3.318363667,9.99151617
24.12474186,-9.543288231,-1.544260144,-4.19464159,10.53822128
24.12929901,-9.124302864,-0.9840168953,-2.504334927,9.512774854
24.13472024,-7.864952564,-1.000776291,1.572990537,8.08290364
24.13972609,-6.787561893,-1.419761658,4.434061527,8.230894317
24.14473109,-5.726930618,-2.161964178,6.54574728,8.962066217
24.1497357,-3.904942989,-3.447650433,9.119514465,10.50240055
24.15473993,-2.810792685,-4.848258495,11.47780323,12.77286706
24.15974793,-2.729389906,-6.423643112,13.99171448,15.6358829
24.16475132,-2.406172752,-8.307879448,15.39471722,17.65808162
24.16972362,-2.394201756,-10.54406452,14.7937727,18.32389722
24.17472986,-2.276885748,-12.15296745,13.56075859,18.35137598
24.17973509,-1.874659896,-13.58470058,12.07156467,18.26967743
24.18473809,-1.089361787,-14.89911747,9.770736694,17.85042593
24.18974462,0.3016694188,-16.40746498,5.046977043,17.16880569
24.19474955,2.33913517,-17.43936539,-0.6943184733,17.60923328
24.19972339,5.228936672,-18.20072174,-7.32146883,20.30300363
24.20472832,7.287950039,-18.34916115,-11.15219116,22.67547791
24.20928578,7.625532627,-17.65723801,-11.47301483,22.39546542
24.21473878,5.204994678,-15.78976059,-8.829815865,18.82482821
24.21974278,3.394978046,-13.93425369,-6.028599739,15.55741999
24.22430001,2.157175779,-12.31337929,-4.031835556,13.13500722
24.2297227,1.094150186,-10.82658005,-3.45722723,11.41772395
24.23427939,0.2777273953,-10.24239445,-2.827552319,10.62914995
24.23973409,-0.9097966552,-9.425971985,-1.798045516,9.63896496
24.24428978,-2.104503393,-8.480262756,-0.7805097699,8.772285133
24.24971109,-3.622427225,-7.390900612,-0.248996973,8.234645733
24.25474732,-4.671087742,-6.694188118,-0.06224924326,8.163031926
24.25972062,-5.494692802,-6.220136166,-0.2226607651,8.302488827
24.26472609,-5.779603004,-5.868188381,-0.4022258818,8.246285917
24.26972955,-5.669469833,-5.638344765,-0.3184288144,8.002200746
24.27473539,-5.451597214,-5.623979568,-0.2059013397,7.835269857
24.27973993,-4.996698856,-5.858611584,-0.1221042871,7.700989456
24.28474578,-4.443638325,-6.157886982,-0.4046200812,7.604551996
24.28975009,-3.392583847,-6.526593685,-0.5291185975,7.374687572
24.29427716,-2.466027737,-6.744466305,-0.1364694983,7.182460752
24.29972986,-1.630451322,-7.127538681,0.0191536136,7.311671903
24.30473447,-0.8930372596,-7.546523571,-0.1843535304,7.601415643
24.30973909,-0.4596867263,-8.066065788,-0.3687070608,8.087562926
24.31474424,-0.09337386489,-8.535328865,-0.4141969085,8.54588302
24.31975078,0.2609679997,-8.935160637,-0.624886632,8.960785859
24.32472362,0.5147533417,-9.21528244,-0.8858546019,9.272062329
24.32972801,0.605733037,-9.428366661,-0.9481038451,9.495257306
24.33473293,0.4788403511,-9.52173996,-1.024718285,9.588684347
24.33973816,0.2035071403,-9.555258751,-1.074996591,9.617692167
24.34474455,-0.07900865376,-9.48343277,-1.130063176,9.550852436
24.34974793,-0.3471592367,-9.373299599,-1.233013868,9.460422195
24.35472339,-0.6967126727,-9.186552048,-1.426944256,9.32278483
24.35972678,-1.060631394,-8.980650902,-1.556231141,9.175995038
24.36473224,-1.544260144,-8.662221909,-1.608903527,8.944685481
24.36973632,-1.757344007,-8.470685959,-1.474828243,8.775870152
24.37474155,-1.879448295,-8.288725853,-1.063025594,8.565356126
24.3792987,-1.991975784,-8.142680168,-0.6631938815,8.408985312
24.38427355,-2.018311977,-7.991845131,-0.4094084799,8.252925974
24.3892787,-1.960851192,-7.963114738,-0.2298433632,8.204203905
24.39428362,-1.877054095,-7.910442352,-0.1364694983,8.131239402
24.39973809,-1.762132406,-7.908048153,-0.117315881,8.102845131
24.40429378,-1.644816518,-8.006210327,-0.1556231081,8.174903286
24.40971416,-1.532289028,-8.157045364,-0.1963245422,8.302038428
24.41430332,-1.393425345,-8.315062523,-0.1987187415,8.433349755
24.41972516,-1.252167463,-8.489839554,-0.3064578176,8.587154092
24.42472947,-1.063025594,-8.667010307,-0.5698199868,8.750530607
24.42973532,-0.9145850539,-8.786720276,-0.8571242094,8.875673548
24.43473901,-0.7637503147,-8.995016098,-1.15161097,9.100540477
24.43974432,-0.5339069963,-9.26556015,-1.395819545,9.38530627
24.44430147,-0.2274491638,-9.536105156,-1.630451322,9.677158993
24.44927632,0.1939303428,-9.91438961,-1.972822189,10.11062598
24.45428063,0.5817909837,-10.18972206,-2.255337954,10.45253394
24.45928639,0.9648633003,-10.45547867,-2.535459518,10.80169201
24.46473816,1.331176162,-10.69250488,-2.913743496,11.16206037
24.46974301,1.575384736,-10.84333992,-3.126827478,11.39459994
24.4747477,1.584961534,-10.92234802,-3.38061285,11.542891
24.4797237,1.458068848,-10.93910789,-3.598485231,11.60771908
24.48472701,1.273715258,-10.83136845,-3.799597979,11.54893232
24.48973193,1.072602391,-10.68053341,-3.770867586,11.37733326
24.49473686,0.8906430602,-10.53927612,-3.483563423,11.13574427
24.49974155,0.7541735172,-10.44111347,-2.961627483,10.87919416
24.50474639,0.8236053586,-10.58955383,-2.631227732,10.94259272
24.50930424,1.158793569,-10.65180302,-2.264914751,10.95141766
24.51472616,1.575384736,-10.6206789,-1.948880196,10.91232292
24.51973101,2.205059767,-10.63743782,-1.750161409,11.00365562
24.52473539,2.825158119,-10.62786102,-1.656787634,11.12105632
24.52974116,3.426102638,-10.74278259,-1.417367458,11.3646156
24.53474486,3.904942989,-10.97262669,-1.046266198,11.69366449
24.53975039,4.115632534,-11.43470764,-0.6177040339,12.16850559
24.54472493,4.05577755,-11.84890461,-0.4333505034,12.53130738
24.54928209,3.782838583,-12.28943729,-0.5147533417,12.86876481
24.55473439,3.34230566,-12.74912453,-0.8810662031,13.2093702
24.55974086,2.703053713,-13.25669479,-1.539471745,13.61677016
24.56474393,2.094926596,-13.59427738,-1.977610588,13.89618792
24.56974855,1.309628367,-13.90791798,-2.26970315,14.15262736
24.57472301,0.4716577232,-14.21676922,-2.482787132,14.43964058
24.57928147,-0.3758896589,-14.47294903,-2.796427488,14.74542483
24.58428547,-1.44849205,-14.66209126,-3.423708439,15.12603149
24.58929078,-2.346317768,-14.73870564,-3.876212597,15.41945767
24.59471232,-2.906560898,-14.75785923,-4.098873138,15.58984497
24.59974732,-3.153163671,-14.73870564,-3.780444384,15.53910051
24.60472239,-2.954444885,-14.7794075,-3.169923067,15.40155976
24.60972739,-2.427720547,-14.89193439,-2.736572504,15.33467855
24.61473101,-1.814804912,-15.07389355,-2.616862535,15.40661394
24.61973693,-1.098938584,-15.16966152,-2.547430515,15.42127423
24.62429478,-0.586579442,-15.08586502,-2.360682964,15.28071408
24.6297157,-0.3016694188,-14.89193439,-2.138022184,15.04765275
24.63472086,-0.4429273009,-14.59984207,-1.89620769,14.72912681
24.63972701,-1.175553083,-14.21198082,-1.611297727,14.35125793
24.64473039,-2.343923569,-13.82890892,-1.046266198,14.06511189
24.64973593,-3.60566783,-13.42428875,-0.1987187415,13.9015056
24.65429286,-4.728548527,-13.28063679,0.5770025849,14.1091253
24.65971409,-6.02381134,-13.44583702,1.63763392,14.82425988
24.66474947,-6.641515732,-13.72116947,2.207453966,15.40302165
24.66927778,-7.240066051,-13.88158131,2.583343744,15.86790852
24.67472893,-7.908048153,-13.93664837,3.088520288,16.31889552
24.67973378,-8.403648376,-13.92228317,3.41892004,16.61746939
24.6847387,-8.762778282,-13.89834118,3.454833031,16.78946223
24.68974424,-9.081207275,-13.9246769,3.05021286,16.9017381
24.69474947,-9.722852707,-13.97734928,1.81959331,17.1234073
24.69972401,-9.662998199,-14.24550056,0.4477157295,17.21941549
24.70472832,-9.095572472,-14.5639286,-0.9289502501,17.19594148
24.70928547,-8.429984093,-14.91348267,-2.099714994,17.25935689
24.71429016,-7.903259754,-15.13135433,-2.78924489,17.297378
24.71926616,-7.429207802,-15.07628822,-3.071760893,17.08576338
24.72471716,-6.605602264,-14.69082165,-3.703830004,16.52793328
24.72927563,-5.753266811,-14.42267132,-4.170699596,16.07819213
24.73472701,-4.910507679,-13.8217268,-4.290409565,15.28269713
24.73973232,-3.998316765,-13.39795303,-4.182670593,14.59405412
24.74473755,-3.351882458,-12.90714169,-4.187458992,13.97727568
24.74974209,-2.104503393,-12.5408287,-2.801215887,13.02106484
24.7547467,1.070208192,-12.77546024,0.2322375625,12.82231119
24.7597514,2.82276392,-12.91193008,1.419761658,13.29291758
24.76472616,3.682282209,-12.96460247,2.068590164,13.63521854
24.7697307,4.376600742,-13.06037045,0.8762778044,13.80202061
24.7747354,4.608838081,-12.84249783,-0.2513911724,13.64677018
24.77974032,3.97916317,-12.2798605,-0.4836287498,12.91753112
24.78474578,3.090914488,-11.63342571,-0.215478152,12.0389691
24.78975009,2.537853718,-11.04445267,0.2920926213,11.33604668
24.79427755,2.138022184,-10.24957752,0.6368576288,10.48954555
24.79973078,1.52510643,-9.579200745,1.201889277,9.774025494
24.80473416,1.029506683,-9.064447403,1.630451322,9.267279118
24.80973932,0.5434837937,-8.394071579,1.927332401,8.629624702
24.81474401,-0.2082955539,-7.69017601,2.145204782,7.986494704
24.81974955,-0.9385270476,-6.895300865,2.178723574,7.291971164
24.82448701,-1.642422318,-6.244078159,2.178723574,6.814169028
24.82972886,-2.286462545,-5.635950565,2.094926596,6.4327729
24.83473255,-2.691082716,-4.855441093,2.035071373,5.912592485
24.83973816,-2.803610086,-4.230554581,2.056619167,5.476084731
24.84474309,-2.86107111,-3.660734415,2.092532396,5.0956252
24.84974701,-3.066972494,-3.193865061,1.874659896,4.808476269
24.85472209,-3.27287364,-2.798821688,1.568202138,4.583051674
24.85972678,-3.521870613,-2.597708941,1.271321058,4.557183515
24.8642837,-3.813963413,-2.501940727,0.9720458984,4.663785753
24.86973716,-3.761290789,-2.444479942,0.6009446383,4.525917039
24.87429447,-3.512293816,-2.509123325,0.3878606856,4.333860129
24.87971724,-3.201047659,-2.726995707,0.1101332754,4.20658306
24.88427324,-3.038241863,-2.932897091,-0.05506663769,4.223248903
24.88972616,-2.801215887,-3.11964488,-0.08858546615,4.193666893
24.8942837,-2.683900118,-3.179499865,0.05506663769,4.161198333
24.89973563,-2.664746523,-3.095702887,0.3351882398,4.098365717
24.90474055,-2.664746523,-3.023876667,0.4644751251,4.057146937
24.90974578,-2.693476915,-3.004723072,0.5937620401,4.078692437
24.9143027,-2.736572504,-3.021482468,0.6512228847,4.128229235
24.91972455,-2.815581083,-3.033453465,0.8571242094,4.226582386
24.92472893,-2.786850691,-2.990357876,1.000776291,4.208364312
24.92973409,-2.82036972,-2.966415882,1.108515382,4.24062671
24.93473932,-2.786850691,-2.987963676,1.130063176,4.239281364
24.93974393,-2.681505919,-3.052607059,1.048660398,4.196256961
24.94474893,-2.669534922,-3.12203908,0.8643068075,4.197686383
24.94972393,-2.825158119,-3.055001259,0.5650315881,4.199263243
24.9547274,-2.221819162,-3.325546265,0.6560112834,4.052911195
24.95973447,-1.960851192,-3.56496644,0.5099649429,4.100486235
24.96473786,-1.991975784,-3.629609823,0.141257897,4.142703077
24.96929655,-2.04464817,-3.663128614,-0.3543418646,4.210065979
24.97426986,-2.04704237,-3.687070608,-1.012747288,4.337110697
24.97972155,-2.00873518,-3.773261786,-1.623268723,4.57247448
24.9847267,-1.963245392,-3.921702385,-2.370259762,4.985199435
24.9897314,-1.900996208,-4.199429989,-3.598485231,5.847913711
24.99473716,-1.742978811,-4.446032524,-4.618414879,6.643413004
24.99974155,-1.513135433,-4.783615112,-5.532999992,7.469045541
25.00474678,-1.15161097,-5.202600479,-6.4715271,8.382954287
25.00927355,-1.070208192,-5.710171223,-7.625532627,9.586456531
25.01427809,-1.130063176,-6.658275127,-9.277531624,11.47528925
25.0197314,-1.319205165,-7.563282967,-10.86967564,13.30764442
25.02428855,-1.838746905,-8.640673637,-12.33492756,15.17210167
25.02971009,-2.585737944,-10.18972206,-13.29500198,16.94914612
25.03474516,-2.870647907,-11.71004009,-12.96699619,17.70617544
25.03975263,-2.942473888,-13.55118179,-12.33732128,18.56076984
25.04472455,-3.01190567,-16.67561531,-11.12824917,20.27278105
25.04928301,-3.093308687,-18.85912704,-11.31978607,22.21199649
25.05473409,-2.995146275,-22.77364731,-15.00206757,27.43486731
25.05973878,-2.26730895,-25.75921631,-20.30043602,32.87530406
25.06474432,-0.1244984865,-27.14785385,-21.06897545,34.36456307
25.06974955,0.9864110947,-26.14707756,-18.38268089,31.97758009
25.07472332,1.326387763,-23.67625999,-14.73391724,27.91796749
25.07972893,1.345541358,-20.01552582,-11.64539719,23.19584081
25.0842864,1.582567334,-15.43302441,-9.971850395,18.44235782
25.08929009,2.013523579,-10.41956615,-9.744400978,14.40746287
25.09471263,2.521094322,-4.900930882,-10.45547867,11.81914017
25.0997474,2.353500366,-1.520318031,-10.7332058,11.09288229
25.1047227,1.482010841,1.15161097,-9.739612579,9.918801196
25.10972701,0.2849099934,1.651999116,-7.91762495,8.093148932
25.11473255,-1.659181833,0.758961916,-6.284779549,6.544261725
25.1197394,-3.596091032,-0.921767652,-4.331110954,5.704388522
25.12474247,-5.61679697,-3.490746021,-1.340752959,6.747691049
25.12974709,-7.165845871,-5.813121796,1.517923832,9.351247233
25.13472124,-8.920795441,-8.135497093,4.515464306,12.89016377
25.13972617,-10.39083576,-10.58716011,6.856993675,16.34245359
25.14473017,-11.71722317,-13.57512379,7.812280178,19.56039433
25.14973593,-11.83453941,-16.05791092,6.821080685,21.0817449
25.15474093,-10.74278259,-18.59337044,3.97676897,21.83885284
25.15974524,-8.219294548,-21.22220421,-0.55784899,22.76510377
25.16474955,-5.051765442,-24.42803955,-5.358223438,25.51391794
25.16972463,-1.221042871,-26.11355782,-8.896853447,27.61454053
25.17472917,2.245761156,-25.4144516,-11.50413895,27.98719361
25.17928732,3.928884983,-22.54859161,-11.43710136,25.58676237
25.18473901,2.217030764,-16.82884407,-4.742913723,17.62442761
25.18974455,-0.02394201607,-11.49456215,3.775655985,12.09880615
25.19474801,-2.099714994,-7.120356083,7.745242596,10.72832963
25.19972463,-4.46039772,-4.060565948,5.23851347,7.989077983
25.20472801,-5.990292549,-2.463633537,1.714248419,6.700130049
25.20973355,-7.17063427,-1.18991828,-0.9696516991,7.333084328
25.21473847,-7.304709435,-0.5482721925,-1.063025594,7.401986607
25.21974278,-6.220136166,-0.739808321,1.862688899,6.535060842
25.22474793,-4.786009312,-1.391031146,4.486733913,6.706089322
25.22927417,-3.469198227,-2.37744236,6.35421133,7.619945547
25.2347264,-2.324769735,-3.643975019,7.862558365,8.972342632
25.23973132,-1.78128612,-5.422866821,10.01015759,11.52318184
25.24473601,-2.827552319,-6.921637058,10.9247427,13.2383577
25.24929417,-3.801992416,-8.291120529,11.78904915,14.90568703
25.25471624,-3.543418407,-9.720458984,12.04044056,15.8749912
25.25927347,-3.124433279,-11.14740276,11.44667816,16.28045186
25.2647264,-2.319981337,-12.78982544,9.931148529,16.35816797
25.26973017,-1.369483352,-14.07551193,7.95832634,16.22746064
25.27428793,0.009576806799,-15.26782417,4.783615112,15.9996725
25.27974116,2.45405674,-16.49365616,-0.7637503147,16.69270507
25.28474486,4.127603531,-17.01319695,-5.765237808,18.43160189
25.28974955,4.596867085,-16.86236191,-8.535328865,19.45050835
25.29427778,4.110844135,-16.01242065,-8.698134422,18.68031577
25.29928332,3.007117271,-14.71476364,-7.015010834,16.57641096
25.30473355,1.625662923,-13.04121685,-5.181052685,14.12655031
25.30973901,0.8978256583,-11.91594219,-4.05338335,12.61846606
25.31474432,-0.1699883193,-11.00614548,-2.870647907,11.37562102
25.31974894,-1.247379065,-10.21605873,-1.496376038,10.40014191
25.32472363,-1.891419291,-9.545681953,-0.2370259613,9.734150821
25.32972832,-2.741360903,-8.738836288,0.1915361285,9.160731705
25.33428547,-3.830722809,-7.991845131,0.1268926859,8.86341512
25.33973755,-5.111620426,-7.211335659,-0.5817909837,8.858357981
25.34474309,-5.437232018,-6.744466305,-0.8212111592,8.702051799
25.34974763,-5.793968201,-6.406883717,-0.7972691655,8.674898535
25.35472178,-6.313509941,-5.935225964,-1.44849205,8.785524699
25.35972824,-6.485892296,-5.54018259,-1.446097851,8.651683131
25.36473163,-6.095637321,-5.480327606,-1.168370485,8.2798475
25.36973655,-5.46596241,-5.573701382,-0.9289502501,7.86166908
25.37474186,-4.49870491,-5.899312973,-0.6799532771,7.450005093
25.37974732,-3.502717018,-6.287173748,-0.5650315881,7.219199467
25.38472063,-2.533065319,-6.720524311,-0.5722141862,7.204810615
25.38972555,-1.759738207,-7.134721279,-0.5123591423,7.366372118
25.39473047,-1.106121182,-7.529764175,-0.5674257874,7.631698673
25.3997354,-0.6895300746,-7.87931776,-0.7781155705,7.947613726
25.40474001,-0.390254885,-8.204929352,-0.8810662031,8.261322061
25.40974517,-0.06943184882,-8.506598473,-0.8355764151,8.547819974
25.41430309,0.1364694983,-8.798690796,-0.7900865674,8.835146882
25.41927747,0.3184288144,-9.076418877,-0.9026140571,9.126745788
25.42472886,0.4596867263,-9.361329079,-1.00317049,9.426141577
25.4297347,0.4261679053,-9.507374763,-0.9026140571,9.559628974
25.43473932,0.3998316824,-9.617507935,-0.8451532125,9.662846796
25.43974647,0.323217243,-9.552865028,-0.7134721279,9.584922645
25.44474924,0.2418143749,-9.334992409,-0.5530605912,9.354487345
25.44972332,0.08379705995,-9.097966194,-0.3758896589,9.106113543
25.45472886,-0.181959331,-8.82263279,-0.14844051,8.825757368
25.45973286,-0.3208230138,-8.564059258,0.09576806426,8.57060149
25.46473817,-0.4429273009,-8.283937454,0.2729389966,8.300259034
25.4697434,-0.7134721279,-7.934384346,0.3088520169,7.972382768
25.47474794,-1.048660398,-7.592013359,0.1436520964,7.66544137
25.4797224,-1.26653266,-7.441178799,0.05746084079,7.548413651
25.48472709,-1.398213744,-7.388506413,-0.04309562966,7.519766347
25.48973224,-1.37427175,-7.47469759,-0.2729389966,7.604881498
25.49473686,-1.278503656,-7.809885979,-0.7685387731,7.95107178
25.49974209,-1.18752408,-8.125920296,-1.15161097,8.292587167
25.50474732,-1.027112484,-8.47786808,-1.477222443,8.666682952
25.50972086,-0.8595184088,-8.815450668,-1.699883223,9.018899343
25.51472617,-0.5051765442,-9.3685112,-2.049436569,9.603353357
25.51928524,-0.05985504389,-9.885659218,-2.487575531,10.19401162
25.52428924,0.4692635238,-10.43153667,-2.928108692,10.8448599
25.52970955,1.089361787,-10.9151659,-3.471592426,11.50562948
25.53474547,1.539471745,-11.3078146,-4.060565948,12.11300293
25.53975017,1.924938202,-11.51611042,-4.316745758,12.44831234
25.54427717,2.272097349,-11.62145519,-4.395754337,12.63104522
25.54973017,2.52827692,-11.61906052,-3.842693806,12.49644138
25.5542874,2.602497339,-11.57117653,-3.268085241,12.30225588
25.55973909,2.49236393,-11.42273617,-2.190694571,11.89495365
25.56474401,2.126051188,-11.29105568,-1.55862534,11.59471194
25.56974886,1.604115129,-11.18810463,-1.467645645,11.39740559
25.57472332,1.335964561,-11.22880554,-1.953668594,11.47552597
25.57972886,1.304839969,-11.06599998,-2.616862535,11.44582599
25.58473355,1.572990537,-10.9989624,-3.193865061,11.56080651
25.58973817,1.939303398,-10.86728191,-3.576937437,11.60401634
25.59429478,2.145204782,-10.80982113,-3.584120035,11.58878996
25.59972024,2.576161146,-10.71644688,-3.05021286,11.43602371
25.6042747,2.923320293,-10.70208168,-2.303221941,11.33071865
25.60927909,3.071760893,-10.77869606,-1.343147159,11.2880489
25.61473194,3.189076662,-11.13543224,-0.248996973,11.58576975
25.61973686,3.138798475,-11.50174522,0.3208230138,11.92665613
25.62474155,2.892195702,-11.80820274,0.5626373887,12.17025098
25.62974617,2.518700123,-12.20085144,0.3663128614,12.46349916
25.63475132,2.15478158,-12.55279922,-0.2178723514,12.73826206
25.63972617,1.67115283,-12.92150688,-0.8020575643,13.05378827
25.6447307,1.108515382,-13.40274143,-1.446097851,13.52602984
25.64973501,0.2178723514,-14.00368595,-2.303221941,14.19350274
25.65474063,-0.6296750307,-14.48252583,-3.114856482,14.82708251
25.65974486,-1.647210717,-14.71955204,-3.828328609,15.29818994
25.6643027,-2.616862535,-14.74349403,-4.297592163,15.57844293
25.66972547,-3.411737442,-14.69082165,-4.290409565,15.68017243
25.67428178,-3.394978046,-14.7650423,-3.79480958,15.61835234
25.6792877,-3.062183857,-14.88475227,-2.8993783,15.47059193
25.68429294,-2.434903145,-15.11938381,-2.23139596,15.47590541
25.68971417,-1.419761658,-15.39950562,-1.606509328,15.54803424
25.69474886,-0.6488286853,-15.64850235,-1.249773264,15.71173248
25.69972401,0.04070143029,-15.77300072,-1.199495077,15.81859655
25.70472763,0.5626373887,-15.68441486,-1.482010841,15.76432005
25.70973324,0.4261679053,-15.1672678,-1.539471745,15.25115093
25.7147384,-0.1532289088,-14.80574322,-1.563413739,14.8888473
25.71974309,-1.278503656,-14.52801609,-1.223437071,14.63538935
25.72430117,-2.815581083,-14.26225948,-0.5482721925,14.54785705
25.72972209,-4.809951305,-13.85524559,0.6392518282,14.68033054
25.73472678,-5.882553577,-13.77863121,1.529894829,15.05973747
25.73973224,-6.605602264,-13.80975533,2.092532396,15.45063155
25.74473755,-7.558494568,-13.81933212,2.79163909,15.9968131
25.74974209,-8.274360657,-13.77623653,3.339911461,16.41355373
25.75474647,-8.544905663,-13.79539013,3.701435804,16.64418303
25.75930524,-8.578424454,-13.81933212,3.787626982,16.70058156
25.76427817,-8.971074104,-13.8073616,3.507505417,16.83526059
25.7697307,-9.600749016,-13.8073616,2.683900118,17.03000106
25.7747357,-9.526528358,-13.96298409,1.546654344,16.97385657
25.77974094,-8.863334656,-14.26225948,0.3471592367,16.79557282
25.78474517,-7.867346764,-14.55914021,-0.8403648138,16.57015153
25.78930278,-7.445967197,-14.60463047,-1.369483352,16.4503235
25.79427724,-6.904877663,-14.34366226,-1.814804912,16.02221893
25.79972955,-6.447585106,-13.96298409,-2.437297344,15.57166326
25.80473447,-5.908889771,-13.55597019,-3.069366693,15.10299037
25.80973909,-5.202600479,-13.2279644,-3.268085241,14.5851457
25.81474432,-3.94085598,-12.95981407,-3.052607059,13.88544333
25.81974863,-2.964021683,-12.53843403,-3.318363667,13.30448382
25.8247237,-1.690306425,-12.19606304,-2.731784105,12.61204717
25.82972832,0.8092401624,-12.73954678,-0.6081272364,12.77970033
25.83473317,2.619256735,-13.13219643,0.8140285611,13.41557793
25.83973932,3.548206806,-13.30218506,1.221042871,13.82131848
25.84474301,4.182670593,-13.40034676,-0.1244984865,14.03850157
25.84974771,4.374206543,-13.38119316,-0.8164227605,14.10165095
25.85472247,3.734954596,-13.01009178,-0.5291185975,13.54593446
25.85972709,3.028665066,-12.61983681,0.0718260482,12.97837633
25.86473194,2.487575531,-12.10508347,0.7374141216,12.38001847
25.86973601,2.073378563,-11.54005241,1.012747288,11.76849036
25.87474247,1.431732655,-10.79066753,1.276109457,10.95978191
25.87974771,0.4118026793,-9.727641106,1.656787634,9.876311467
25.88427355,-0.03830722719,-8.975862503,1.920149803,9.179027747
25.88972647,-0.6584054828,-8.204929352,1.82198751,8.430539836
25.8947314,-1.156399369,-7.457938194,1.766920805,7.751136094
25.8997354,-1.958456993,-6.610390663,1.862688899,7.141598452
25.90474086,-2.406172752,-5.971138954,1.877054095,6.705781073
25.9097464,-2.746149302,-5.27682066,1.802833915,6.215817113
25.91475017,-2.913743496,-4.683058739,1.683123827,5.766614789
25.91972586,-2.882618904,-4.079719543,1.673547029,5.268240974
25.9247304,-3.021482468,-3.742137194,1.534683347,5.048583965
25.92928678,-3.148375273,-3.524264812,1.235408068,4.884561641
25.93473847,-3.303998232,-3.416525841,0.988805294,4.854563734
25.93929601,-3.411737442,-3.38061285,0.6943184733,4.852893339
25.94471932,-3.332728863,-3.349488258,0.3591302633,4.738684186
25.94972301,-3.296815634,-3.414131641,0.181959331,4.749568126
25.95472948,-3.215412855,-3.469198227,0.02633621916,4.730212444
25.95973324,-3.031059265,-3.596091032,-0.08379705995,4.703850861
25.96473878,-2.925714493,-3.634398222,-0.1364694983,4.667684614
25.9697427,-2.810792685,-3.677493811,-0.1053448766,4.629861098
25.97474732,-2.801215887,-3.526659012,0.0023942017,4.503791732
25.97972217,-2.920926094,-3.426102638,0.2226607651,4.507722967
25.9847274,-3.088520288,-3.414131641,0.2657563984,4.611494216
25.98973255,-3.043030262,-3.387795448,0.3327940404,4.565954779
25.99428978,-2.97599268,-3.414131641,0.5027823448,4.556930697
25.99926617,-2.947262287,-3.426102638,0.6512228847,4.566029514
26.00426948,-2.85867691,-3.409343243,0.8571242094,4.531039278
26.00927386,-2.738966703,-3.375824451,1.029506683,4.467439237
26.01427817,-2.664746523,-3.351882458,1.091755986,4.419040753
26.01973201,-2.533065319,-3.292027235,1.031900883,4.280033021
26.02473563,-2.343923569,-3.315969467,0.9528923035,4.171047224
26.02974124,-2.114080191,-3.387795448,0.8212111592,4.07687145
26.03474555,-1.963245392,-3.507505417,0.6488286853,4.071597399
26.03975071,-1.922544003,-3.584120035,0.4118026793,4.087991355
26.04472424,-1.984793186,-3.627215624,0.1292868853,4.136763502
26.04928148,-2.128445387,-3.651157618,-0.2442085743,4.233304801
26.05473417,-2.190694571,-3.639186621,-0.8427590132,4.330480887
26.05973878,-2.183511972,-3.627215624,-1.407790542,4.461646773
26.06474371,-2.205059767,-3.64158082,-2.138022184,4.763878494
26.06930209,-2.181117773,-3.64158082,-2.956839085,5.173130868
26.07472278,-1.912967205,-3.720589399,-3.866635799,5.696762362
26.07973101,-1.628057122,-3.869029999,-4.661510944,6.272929731
26.08473386,-1.474828243,-4.156333923,-5.604825974,7.131921496
26.08973786,-1.41257906,-4.570530891,-6.691793919,8.225888285
26.09474278,-1.48679924,-5.370194435,-8.192957878,9.908285374
26.09930086,-1.570596337,-5.980715752,-9.064447403,10.97269067
26.10427409,-2.020706177,-7.187393665,-10.50575733,12.88847618
26.10972794,-2.497152328,-8.291120529,-11.47301483,14.37388322
26.11473232,-2.279279947,-9.861717224,-11.07557678,15.00389898
26.11973686,-1.812410712,-11.45386124,-10.27830791,15.49578599
26.12474186,-1.731007814,-13.51526833,-9.62469101,16.68213245
26.12974678,-2.001552582,-16.09621811,-8.73404789,18.42221601
26.13472094,-2.564189911,-19.80004883,-9.500192642,22.1104198
26.13972701,-2.705447912,-22.75928116,-13.29739666,26.49764301
26.14473101,-1.872265697,-25.14630127,-19.27092934,31.73658085
26.14973501,-0.5817909837,-26.10398102,-21.58851624,33.87949732
26.15474032,0.04788403213,-25.21573257,-19.30923653,31.75975563
26.15974701,0.2681505978,-22.89335632,-15.79694271,27.81584202
26.16474986,0.1532289088,-19.63245392,-12.5408287,23.29654718
26.16972517,0.3351882398,-15.49766731,-10.3214035,18.62314188
26.17472886,1.120486379,-9.679757118,-9.30386734,13.47275529
26.17973448,1.776497602,-5.544970989,-9.196128845,10.88445831
26.1847394,2.063801765,-2.190694571,-9.327810287,9.801350172
26.18974401,1.70946002,0.07900865376,-9.282320023,9.438747848
26.19474863,0.8858546019,1.312022567,-7.714118004,7.87488147
26.19972278,-0.08619125932,1.120486379,-5.992686749,6.09714795
26.20428178,-1.405396342,0.1005564705,-4.419696331,4.638853969
26.20973286,-3.138798475,-1.369483352,-2.810792685,4.430360712
26.21429163,-4.489128113,-3.138798475,-0.8355764151,5.540985023
26.21971294,-5.327098846,-6.002263546,1.81959331,8.228977434
26.22474824,-6.936002254,-8.336610794,3.725377798,11.46671908
26.22972271,-7.809885979,-10.87925243,5.928043365,14.64561882
26.23472709,-8.214506149,-14.21916389,7.438784599,18.02770783
26.23973286,-8.59278965,-16.88391113,6.009446144,19.87500772
26.24473694,-8.482656479,-19.68273163,2.185906172,21.54399153
26.24929509,-6.945579052,-22.67787933,-2.609679937,23.86079858
26.25471601,-3.339911461,-26.2500267,-6.895300865,27.34527536
26.25927378,-0.356736064,-27.53331947,-8.990227699,28.96610322
26.26472671,2.161964178,-25.98666573,-10.41717148,28.08021272
26.26928424,2.657563925,-22.23734474,-9.167398453,24.19924258
26.27428794,0.5674257874,-17.00122643,-3.378218651,17.34289576
26.27974025,-2.803610086,-9.981427193,5.063736439,11.53822105
26.28474555,-4.364629745,-5.966350555,6.330269337,9.732401638
26.28930248,-5.746084213,-3.758896589,2.853888512,7.435823222
26.29472486,-8.712499619,-1.395819545,-2.67671752,9.22067126
26.29972924,-9.933543205,-0.08140286058,-5.767632008,11.48683969
26.30473409,-9.528923035,0.349553436,-4.776432514,10.66474891
26.30973871,-7.414842606,-0.2537853718,0.5219359994,7.437520761
26.31474432,-5.810727596,-1.223437071,4.153939724,7.246831631
26.31975109,-4.089296341,-2.518700123,6.234501362,7.869892128
26.32472486,-2.346317768,-4.027047157,7.326257229,8.683107788
26.32972832,-0.7613561153,-6.155492783,9.414001465,11.27356102
26.33473378,-0.9672574997,-7.65186882,11.38203526,13.74908761
26.33973778,-1.407790542,-9.191340446,12.77546024,15.80110749
26.34474332,-1.934514999,-10.64222622,13.00051498,16.91191051
26.34974701,-1.628057122,-12.38520527,12.03325748,17.34483108
26.35472209,-0.8331822157,-13.77384281,10.24957752,17.18914709
26.35927932,0.2633621991,-15.10501862,7.603984833,16.91305804
26.36473225,1.690306425,-16.2231102,4.074931145,16.81224269
26.36973655,3.97916317,-17.22867584,-1.553836942,17.75036394
26.37474217,5.470750809,-17.49203682,-6.251260757,19.36436747
26.37974678,5.623979568,-17.01080322,-8.959102631,20.03152746
26.38475171,4.668693542,-15.8544035,-9.454702377,19.04075121
26.38972586,3.019088268,-14.01326275,-8.104372978,16.46715787
26.39473101,1.963245392,-12.6437788,-6.789956093,14.48526764
26.39973786,1.379060149,-11.52568722,-5.509057999,12.84885181
26.40474032,0.6775590777,-10.58716011,-4.280832767,11.43995519
26.40974578,-0.4788403511,-9.591172218,-2.829946518,10.01141698
26.41475009,-1.395819545,-8.983044624,-1.649604917,9.239296472
26.41972401,-2.588132143,-8.312667847,-0.6799532771,8.732766525
26.42472986,-3.356670856,-7.721300602,0.3639186621,8.427227244
26.4297344,-4.594472885,-6.959944248,0.3591302633,8.34739358
26.43474032,-5.291185856,-6.610390663,-0.390254885,8.476214447
26.43974394,-5.674258232,-6.368576527,-1.019929886,8.590473237
26.44474924,-5.633556366,-6.244078159,-1.118092179,8.48384344
26.44972309,-5.31273365,-6.289567947,-0.9050082564,8.282683366
26.45472855,-5.087678432,-6.459556103,-0.6296750307,8.24662522
26.45973325,-4.709394932,-6.631938934,-0.6200982332,8.157544758
26.46473809,-3.943250179,-6.813898087,-0.7230489254,7.90577187
26.46974301,-3.129221678,-7.235277653,-0.8667010069,7.9304755
26.47430055,-2.315192938,-7.58961916,-0.9576807022,7.99247081
26.47972371,-1.580173135,-7.884106159,-1.249773264,8.137444948
26.48472732,-0.988805294,-8.104372978,-1.489193439,8.299174319
26.48973194,-0.6440402865,-8.243236542,-1.553836942,8.413093713
26.49473725,-0.4070142806,-8.394071579,-1.551442742,8.54593897
26.49974148,-0.2466027737,-8.494627953,-1.628057122,8.652750255
26.50474648,-0.1508347094,-8.561665535,-1.733402014,8.736678453
26.50975109,-0.1723825186,-8.571242332,-1.774103403,8.754618995
26.51472524,-0.2944868207,-8.590395927,-1.740584612,8.769906469
26.51973109,-0.3758896589,-8.678980827,-1.704671621,8.852790892
26.52428832,-0.5506663918,-8.755595207,-1.623268723,8.92180936
26.52974094,-0.8355764151,-8.793902397,-1.414973259,8.946119641
26.53474494,-0.9816226959,-8.779537201,-1.233013868,8.919875547
26.53974986,-1.156399369,-8.791508675,-1.070208192,8.931586077
26.54472486,-1.326387763,-8.839392662,-0.9169792533,8.985266723
26.54972924,-1.587355733,-8.803479195,-0.787692368,8.98005587
26.55473448,-1.836352706,-8.705317497,-0.6991068721,8.924320389
26.55973994,-1.831564307,-8.635885239,-0.7015010715,8.855802923
26.56429655,-1.745373011,-8.621520042,-0.691924274,8.823587365
26.56927132,-1.482010841,-8.54251194,-0.6416460276,8.693824015
26.57472363,-1.276109457,-8.468291283,-0.2705447972,8.568174081
26.57972832,-1.039083481,-8.425195694,0.1364694983,8.490126082
26.58428617,-0.8140285611,-8.346187592,0.457292527,8.398250191
26.58973817,-0.6392518282,-8.262390137,0.7541735172,8.321328702
26.59474309,-0.5985504389,-8.157045364,0.7733271718,8.215454133
26.59974732,-0.5051765442,-8.075642586,0.6799532771,8.119947227
26.60427471,-0.517147541,-8.125920296,0.5363011956,8.160002525
26.60972678,-0.5841852427,-8.271966934,0.2202665508,8.295494362
26.61473263,-0.6224924326,-8.46589756,-0.1244984865,8.489665376
26.61973694,-0.6560112834,-8.74601841,-0.5099649429,8.785399995
26.62474155,-0.787692368,-9.095572472,-1.101332784,9.195805117
26.62974671,-0.8978256583,-9.366117477,-1.651999116,9.552975902
26.63472094,-0.9768342972,-9.617507935,-2.252943754,9.926047535
26.63972794,-0.8786720037,-9.873687744,-2.918531895,10.33342163
26.64428217,-0.7038952708,-10.10592556,-3.658340216,10.77073132
26.64973594,-0.4118026793,-10.23521233,-4.355052948,11.13084179
26.65429348,-0.1556231081,-10.42195988,-4.556165695,11.37541701
26.65971471,0.04309562966,-10.58955383,-4.436455727,11.4814044
26.66475071,0.05746084079,-10.80742645,-3.960009575,11.51023215
26.66927632,-0.05746084079,-11.03966427,-3.38300705,11.5465244
26.67472986,-0.1675941199,-11.12824917,-2.825158119,11.48248822
26.67973448,-0.2322375625,-11.15219116,-2.109291792,11.35228672
26.68473971,-0.1891419291,-11.21683502,-1.546654344,11.32454424
26.68974486,0.04070143029,-11.20486355,-0.9576807022,11.24578926
26.69474863,0.2777273953,-10.95107841,-0.4955997467,10.96580458
26.69972248,1.091755986,-10.76672459,-0.5937620401,10.83821216
26.70472771,1.891419291,-10.47223854,-0.9768342972,10.68641438
26.70973286,2.679111719,-10.16338634,-1.350329757,10.59695485
26.71473755,3.23456645,-10.04846478,-1.752555609,10.700725
26.71929848,3.53384161,-10.13465595,-1.9321208,10.90561225
26.72427017,3.730166197,-10.3501339,-1.790862918,11.14659596
26.72972186,3.574543238,-10.86009884,-1.319205165,11.50910111
26.73427932,3.277662039,-11.27908421,-0.9528923035,11.78426123
26.73973225,2.743755102,-11.76031876,-0.806845963,12.10306943
26.74428948,2.346317768,-12.02607536,-0.825999558,12.28063398
26.7497114,1.55862534,-12.46421432,-0.8164227605,12.58779162
26.75430002,0.9241618514,-12.86165142,-0.6967126727,12.9136192
26.75972117,0.2059013397,-13.36922264,-0.6655880809,13.38736408
26.76472617,-0.4453215301,-13.65892029,-0.9265560508,13.69755164
26.76928302,-1.058237195,-13.8265152,-1.541865945,13.95240979
26.77473563,-1.680729628,-13.84806252,-2.542642117,14.1795175
26.77974032,-2.255337954,-13.86003399,-3.737348795,14.53116883
26.78474486,-2.432508945,-13.85763931,-4.09408474,14.65308148
26.78975017,-2.23139596,-13.94383049,-3.866635799,14.64105218
26.79472463,-1.771709204,-14.21916389,-3.246537447,14.69229665
26.79973102,-0.9696516991,-14.7650423,-2.164358377,14.95430192
26.80473471,-0.2585737705,-15.16487312,-1.352723956,15.22728142
26.8097394,0.3088520169,-15.54794598,-0.8164227605,15.57242948
26.81474394,0.7278373241,-15.80891418,-0.4548983276,15.83219654
26.81974832,0.7493851185,-15.91665268,-0.3280056417,15.93765975
26.82472302,0.4094084799,-15.76821232,-0.5410895944,15.78280434
26.82972802,-0.2298433632,-15.42584133,-0.9074024558,15.45421586
26.83473378,-0.9385270476,-15.09304714,-1.201889277,15.16988605
26.83973778,-1.939303398,-14.7698307,-1.249773264,14.94893742
26.84429509,-3.27287364,-14.39154625,-1.079784989,14.798454
26.84971809,-4.580107689,-13.96059036,-0.8978256583,14.72010736
26.85472117,-5.664681435,-13.69722748,-0.9289502501,14.85145127
26.8597274,-6.574477673,-13.48653793,-1.120486379,15.04546283
26.86428432,-7.043741226,-13.33570385,-0.8283938169,15.10435447
26.86928886,-7.441178799,-13.19444561,0.1771709323,15.14912296
26.8747114,-7.970297337,-13.03642845,1.400607944,15.34391766
26.87930086,-8.640673637,-12.99093819,2.056619167,15.73707083
26.88472178,-8.817844391,-13.08910084,2.281674147,15.94631548
26.88927871,-8.77235508,-13.26387787,2.396595955,16.08192594
26.89473102,-8.834604263,-13.35964584,2.427720547,16.19951223
26.89973478,-8.853757858,-13.44344234,2.382230759,16.27237517
26.90474032,-8.523358345,-13.53921032,2.181117773,16.14667546
26.90929778,-7.869740963,-13.56315231,1.89860189,15.79546177
26.91472032,-6.593631268,-13.43386555,1.491587639,15.03893449
26.91972394,-5.363011837,-13.15613842,0.8355764151,14.23179757
26.92472978,-4.374206543,-13.07473564,0.2585737705,13.78946175
26.92973478,-3.258508444,-13.04600525,-0.3974374831,13.45266096
26.93473994,-2.106897593,-12.73954678,-1.125274777,12.96153204
26.93974455,-2.013523579,-12.22958183,-2.147598982,12.57891611
26.94475017,-1.67115283,-11.89439392,-2.918531895,12.36071143
26.94927632,-0.4333505034,-11.85848141,-2.786850691,12.1892539
26.95472855,0.962469101,-11.82496262,-2.631227732,12.15234327
26.95973409,1.877054095,-11.83453941,-1.474828243,12.07289417
26.96473786,2.128445387,-11.901577,-0.4716577232,12.09959817
26.96974271,2.576161146,-11.9805851,-0.04070143029,12.25449641
26.97474802,2.351106167,-11.82975101,-0.586579442,12.07537928
26.97972217,2.147598982,-11.65497398,-0.5937620401,11.86605045
26.98472586,1.695094824,-11.29584408,-0.03830722719,11.42238624
26.98928486,1.177947283,-10.79066753,0.349553436,10.86039839
26.99429017,0.8858546019,-10.37407589,0.5889736414,10.42847443
26.99926425,0.3303998411,-10.01494598,0.6799532771,10.04343784
27.00471717,-0.2849099934,-9.550470352,0.8523358107,9.592660423
27.00972055,-0.7302315235,-9.114726067,0.9528923035,9.193447291
27.01472617,-1.07739079,-8.468291283,1.319205165,8.637883446
27.01973071,-1.235408068,-7.987056732,1.553836942,8.23004967
27.02473594,-1.52510643,-7.699752808,1.424550056,7.977561393
27.02974025,-1.934514999,-7.338228226,1.204283476,7.683894876
27.03474579,-2.41574955,-6.821080685,1.110909581,7.321004555
27.03975232,-2.722207308,-6.440402508,0.8786720037,7.047074682
27.04472463,-2.849100113,-6.141127586,0.6320692301,6.799289007
27.04972925,-2.738966703,-5.736507416,0.4381389022,6.371924484
27.05473478,-2.633621931,-5.260061264,0.3064578176,5.890511469
27.05929263,-2.612074137,-4.991910458,0.0718260482,5.63447072
27.06471355,-2.525882721,-4.762067318,-0.06224924326,5.390848136
27.06930186,-2.56658411,-4.630385876,-0.1268926859,5.295651906
27.0747234,-2.468421936,-4.5370121,-0.1628057212,5.167600154
27.07972886,-2.348711967,-4.520252705,-0.06464344263,5.094439242
27.08428617,-2.248155355,-4.556165695,-0.07900865376,5.081248932
27.08973725,-2.219424963,-4.589684486,-0.1029506698,5.099181277
27.09474271,-2.262520552,-4.632780075,-0.1029506698,5.156767331
27.09974802,-2.372653961,-4.666299343,-0.007182605099,5.234872297
27.10427502,-2.432508945,-4.733336926,0.09576806426,5.322663783
27.10972648,-2.621650934,-4.783615112,0.3088520169,5.463645004
27.11473286,-2.832340717,-4.757278919,0.4668693244,5.556241861
27.11973848,-3.064578056,-4.728548527,0.5506663918,5.661629033
27.12474279,-3.263296843,-4.695029736,0.605733037,5.749723734
27.12974671,-3.445256233,-4.630385876,0.6129156351,5.803958084
27.13475078,-3.488351822,-4.532223701,0.6296750307,5.753793597
27.13972586,-3.49553442,-4.431667328,0.6512228847,5.681771505
27.14472955,-3.464409828,-4.350264549,0.6560112834,5.599757844
27.1497354,-3.301604033,-4.259284973,0.6153098345,5.424085532
27.15474125,-3.138798475,-4.256890774,0.5195417404,5.314423633
27.1597464,-2.942473888,-4.297592163,0.4118026793,5.224656202
27.1647504,-2.695871115,-4.34787035,0.2561795712,5.122238341
27.16972494,-2.343923569,-4.434061527,0.09576806426,5.01637826
27.17472925,-2.111685991,-4.503493309,-0.1005564705,4.97501571
27.17973386,-1.944091797,-4.582501888,-0.323217243,4.988314932
27.1847394,-1.886630893,-4.65193367,-0.6799532771,5.065787151
27.18974494,-1.865083098,-4.728548527,-1.276109457,5.240816871
27.19430209,-1.8602947,-4.75249052,-1.70946002,5.382296543
27.19972517,-1.956062794,-4.702212334,-2.511517525,5.678441931
27.20472917,-2.123656988,-4.620809078,-3.303998232,6.064503265
27.20973294,-2.233790159,-4.560954094,-4.446032524,6.749764879
27.21429102,-2.300827742,-4.529829502,-5.403713226,7.417093787
27.21971163,-2.343923569,-4.632780075,-6.294356346,8.159384213
27.22474763,-2.293645144,-4.872200489,-7.086836815,8.900696697
27.2297224,-2.214636564,-5.310339451,-7.936778545,9.802896198
27.23428025,-1.980004787,-5.72214222,-8.336610794,10.30351445
27.23928517,-1.759738207,-6.265625954,-8.513781548,10.71630642
27.24428986,-1.766920805,-7.180211067,-8.607154846,11.3472708
27.24926394,-1.941697598,-8.523358345,-9.200917244,12.691521
27.25426925,-2.219424963,-10.75954247,-9.543288231,14.55224902
27.25972186,-2.109291792,-12.5456171,-8.29830265,15.18892515
27.26472617,-1.735796213,-14.17367363,-6.347028732,15.62660508
27.26928302,-1.807622313,-15.84243298,-5.042188644,16.72345202
27.2742874,-2.7509377,-17.96608925,-6.066906929,19.16129904
27.27974248,-3.742137194,-19.27332306,-9.325415611,21.73540772
27.28474579,-3.945644379,-20.07538033,-13.15374374,24.32303392
27.28975079,-2.877830505,-20.40817451,-16.68758583,26.51888037
27.29472525,-2.355894566,-19.83596039,-17.66442108,26.66547085
27.29972956,-1.335964561,-18.83757973,-17.72906303,25.90287411
27.30428702,-0.1987187415,-17.1855793,-16.82884407,24.05397301
27.30929225,0.4668693244,-15.02840424,-15.26064205,21.42330732
27.31471409,0.5841852427,-11.65736771,-12.81616211,17.33463312
27.31974886,0.6584054828,-8.640673637,-10.93671322,13.95372476
27.32427602,0.9600749016,-5.844246387,-9.385271072,11.09775981
27.32928063,1.563413739,-3.49553442,-8.252813339,9.097909178
27.33473317,1.958456993,-1.640028119,-7.331045628,7.763341807
27.33973817,1.661576033,-1.103726983,-6.701370716,6.991953778
27.3447434,0.7445967197,-1.893813491,-5.676652431,6.030367869
27.34974802,-0.2346317619,-3.323152065,-4.721365929,5.778381083
27.35472217,-1.328781962,-5.245696068,-3.282450438,6.329097062
27.35972894,-3.047818661,-7.304709435,-2.331952572,8.251422987
27.36473171,-4.13239193,-10.35731697,0.09816227108,11.15169555
27.36973632,-4.776432514,-13.02206326,2.355894566,14.06906814
27.37474156,-5.777208805,-15.5311861,4.09408474,17.06913628
27.37929902,-6.239289761,-17.82962036,4.67827034,19.46048078
27.38472094,-6.014234543,-20.33874321,2.700659513,21.38057657
27.38972525,-5.078101635,-21.92609978,0.2322375625,22.50766318
27.39473079,-3.840299606,-22.39536285,-1.769315004,22.79102135
27.39973479,-2.286462545,-21.12643623,-3.031059265,21.46489085
27.40474063,-0.6105214357,-17.94214821,-3.08133769,18.21505039
27.40929809,-0.323217243,-15.64131927,-2.250549555,15.80570503
27.41427256,-1.211466074,-11.45625496,0.4501099288,11.52892131
27.41927717,-2.537853718,-8.171410561,2.894589901,9.032790418
27.42472979,-3.744531393,-5.188235283,2.71502471,6.950587017
27.42973471,-5.027823448,-3.754108191,0.4381389022,6.290016107
27.43473932,-6.947973251,-2.703053713,-2.71263051,7.933422714
27.43974579,-8.274360657,-2.011129379,-5.980715752,10.4057026
27.44474863,-8.317456245,-1.692700624,-5.348646641,10.03261355
27.44972371,-7.422025204,-2.123656988,-0.9504981041,7.778163265
27.45472771,-6.416460514,-3.100491285,3.371036053,7.883393673
27.45973286,-5.509057999,-4.367023945,5.944802761,9.206589924
27.4647384,-4.022258759,-6.234501362,6.835445881,10.08815608
27.4697434,-2.906560898,-7.903259754,7.529764175,11.29632505
27.47474763,-2.262520552,-9.545681953,8.597578049,13.0444391
27.47972209,-2.169146776,-10.86967564,9.701305389,14.7299142
27.48472679,-2.303221941,-12.13860226,10.23281765,16.04247653
27.48928432,-2.226607561,-12.76348972,9.667786598,16.16572141
27.49473725,-1.096544385,-13.44344234,8.456320763,15.91973343
27.49974125,0.2442085743,-14.27423096,6.414066315,15.65099211
27.50474556,1.589749932,-15.32289124,3.148375273,15.72356726
27.50975163,3.059789658,-16.00045013,0.624886632,16.30236794
27.51472556,4.319139957,-16.35958099,-2.037465572,17.04236269
27.51973171,4.697423935,-16.16804314,-5.336675644,17.66214929
27.52473571,3.766079187,-15.17923832,-6.739677906,17.02985281
27.52973963,2.351106167,-13.77144814,-6.943184853,15.60090702
27.53474556,1.094150186,-12.22958183,-6.794744492,14.03311758
27.53975109,0.1915361285,-10.59913063,-5.844246387,12.10510108
27.54472425,0.02394201607,-9.583989143,-4.311957359,10.5093481
27.54972894,-0.3184288144,-8.846575737,-2.545036316,9.210890784
27.55473479,-1.125274777,-8.329427719,-1.163581967,8.485253823
27.55973932,-2.090138197,-7.819462776,0.07422025502,8.094330388
27.56474402,-2.863465309,-7.61356163,0.4285621047,8.145515315
27.56974886,-3.452438831,-7.39808321,0.6416460276,8.189180587
27.57427502,-4.086902142,-7.218518257,0.2370259613,8.298551455
27.57972825,-4.491522312,-7.149086475,-0.7996633649,8.480723531
27.58473325,-4.630385876,-7.158663273,-1.233013868,8.614363378
27.58929102,-4.697423935,-7.211335659,-1.568202138,8.748051872
27.59471286,-4.750096321,-7.235277653,-1.89620769,8.860488778
27.59974917,-4.563348293,-7.287950039,-2.092532396,8.849692381
27.60472309,-4.046200752,-7.455543995,-1.941697598,8.702129989
27.60972671,-3.258508444,-7.762001991,-1.81959331,8.612634441
27.61473233,-2.439691544,-8.149862289,-1.745373011,8.684392731
27.61973686,-1.675941229,-8.585607529,-1.642422318,8.900504857
27.62429409,-1.15161097,-8.892065048,-1.659181833,9.118547746
27.62971571,-0.6560112834,-9.105149269,-1.651999116,9.277025121
27.63427409,-0.2896983922,-9.363722801,-1.766920805,9.533375005
27.63972579,0.1699883193,-9.593565941,-1.848323703,9.771473993
27.64473079,0.4118026793,-9.665391922,-1.900996208,9.859166752
27.6497354,0.5339069963,-9.655815125,-1.908178806,9.857026365
27.65474086,0.4525041282,-9.495404243,-1.900996208,9.694392622
27.65974517,0.1244984865,-9.220070839,-1.946485996,9.424118732
27.66430279,-0.09097966552,-9.045293808,-1.994369984,9.262997841
27.66972456,-0.3303998411,-8.880094528,-1.977610588,9.103635896
27.67472956,-0.4884171486,-8.774748802,-1.927332401,8.997187229
27.67973594,-0.7637503147,-8.693346024,-1.833958507,8.917453865
27.68473994,-0.9457096457,-8.602366447,-1.620874524,8.804675431
27.68974363,-1.18752408,-8.520963669,-1.441309452,8.72321089
27.69430063,-1.453280449,-8.413225174,-1.15161097,8.615137243
27.6997234,-1.678335428,-8.312667847,-0.7302315235,8.51178563
27.70472832,-1.862688899,-8.257601738,-0.4118026793,8.475091613
27.70928609,-2.025494576,-8.178592682,-0.1244984865,8.426595185
27.7142914,-2.126051188,-8.066065788,0.07422025502,8.341883456
27.71971202,-2.152387381,-7.977479935,0.181959331,8.264748438
27.72474886,-2.061407566,-7.855375767,0.2585737705,8.125465524
27.72972186,-1.960851192,-7.857769966,0.2681505978,8.103171662
27.73472671,-1.829170108,-7.821856976,0.2274491638,8.036108695
27.73973194,-1.630451322,-7.824251175,0.1508347094,7.993749375
27.74473663,-1.422155857,-7.884106159,0.08858546615,8.011835283
27.74974179,-1.26413846,-7.936778545,-0.04548983276,8.036950233
27.75429879,-1.046266198,-8.075642586,-0.181959331,8.145169447
27.7592754,-0.9193734527,-8.226476669,-0.3136404157,8.28363062
27.76472679,-0.7254431248,-8.451532364,-0.4548983276,8.49479838
27.76973048,-0.5698199868,-8.674192429,-0.5937620401,8.713143088
27.77473509,-0.383072257,-8.951920509,-0.8882488012,9.004033046
27.77974086,-0.2537853718,-9.267954826,-1.137245774,9.34091653
27.78474609,-0.2346317619,-9.533711433,-1.510741234,9.65551888
27.78975017,-0.1843535304,-9.775525093,-1.948880196,9.96960436
27.79469385,-0.2059013397,-9.971850395,-2.523488522,10.28825495
27.799384,-0.1915361285,-10.08437729,-2.889801502,10.49201144
27.80473139,-0.1268926859,-10.12507915,-3.129221678,10.59836582
27.80973354,-0.09576806426,-10.19211674,-3.263296843,10.7022204
27.81473946,-0.04548983276,-10.27351952,-3.447650433,10.83667689
27.81974469,-0.09576806426,-10.35492229,-3.430891037,10.90892298
27.82471816,-0.1364694983,-10.42195988,-3.375824451,10.95591449
27.82972254,-0.1771709323,-10.50575733,-3.296815634,11.01232582
27.83472769,-0.1891419291,-10.6302557,-3.318363667,11.13775778
27.83973454,-0.2035071403,-10.66856289,-3.509899616,11.23294461
27.84473754,-0.05027823523,-10.79306126,-3.648763418,11.39325123
27.84974285,0.1340752989,-10.9151659,-3.950432777,11.60882173
27.85471731,0.4022258818,-10.94629002,-4.05577755,11.68042732
27.85972192,0.9935936928,-10.94868469,-3.948038578,11.68109299
27.86472739,1.537077546,-10.85770512,-3.639186621,11.55404895
27.86973146,1.965639591,-10.87925243,-3.296815634,11.53650146
27.87473608,2.449268341,-10.77390766,-2.86107111,11.41322608
27.87974339,2.784456491,-10.64222622,-2.370259762,11.25292443
27.88471569,2.997540474,-10.57279491,-1.644816518,11.11191534
27.88972154,2.949656487,-10.60631371,-0.9361328483,11.04856138
27.89472562,2.67671752,-10.74038887,-0.316034615,11.07342077
27.89973177,2.23139596,-10.94389629,0.08140286058,11.16936079
27.90473569,1.589749932,-11.38203526,0.2082955539,11.49440814
27.90974,1.027112484,-11.82017422,0.1364694983,11.86550052
27.914745,0.4261679053,-12.22958183,0.007182605099,12.23700709
27.91972123,-0.141257897,-12.6629324,-0.2202665508,12.66563571
27.92472462,-0.6488286853,-13.08910084,-0.5410895944,13.1163378
27.92972931,-1.283292055,-13.42668343,-1.007958889,13.52548141
27.93473477,-1.651999116,-13.5320282,-1.345541358,13.69873607
27.93974,-1.824381709,-13.6014595,-1.55862534,13.81149457
27.94429546,-1.750161409,-13.66610336,-1.850717902,13.90146046
27.94927139,-1.498770237,-13.67328548,-2.329558372,13.95105338
27.95472377,-1.156399369,-13.89355278,-3.687070608,14.42090698
27.95928123,-1.642422318,-14.35802746,-5.044582844,15.30680632
27.96473331,-2.300827742,-14.96615505,-5.793968201,16.21263929
27.96973754,-2.56897831,-15.55273438,-5.808333397,16.79952181
27.97474254,-2.82276392,-16.27338982,-5.006275654,17.25844744
27.97971723,-3.01429987,-16.71631622,-4.426878929,17.55330421
27.98472277,-3.114856482,-17.03235054,-3.770867586,17.72068673
27.98972685,-3.086126089,-17.05389786,-2.971204281,17.58373286
27.99473085,-3.155557871,-16.9006691,-1.8579005,17.2928296
27.99973854,-3.134010077,-16.63012505,-0.7086837292,16.93768906
28.00474162,-3.239354849,-16.26381302,0.6751648784,16.59701423
28.00974623,-3.294421434,-16.17283249,1.774103403,16.60003513
28.01472039,-3.064578056,-16.01960373,2.669534922,16.52712192
28.01972677,-2.865859509,-15.65568447,3.904942989,16.38786706
28.02473169,-2.679111719,-15.33246803,4.876988888,16.31095448
28.02973485,-2.394201756,-14.88954067,5.966350555,16.21813684
28.03474062,-1.999158382,-14.44900703,6.845022678,16.11287603
28.03974716,-1.323993564,-13.95101357,7.639897823,15.96094537
28.04471969,-0.6081272364,-13.60385418,8.166622162,15.87855109
28.04972493,-0.03112462163,-13.37161636,8.264783859,15.7196611
28.05472893,0.2849099934,-13.06994724,7.721300602,15.18298975
28.05973423,-0.03351882473,-12.67490387,6.287173748,14.14859941
28.06473877,0.5339069963,-12.34689808,4.362235546,13.10572576
28.06974439,1.405396342,-12.19845772,2.729389906,12.57883456
28.07427077,2.049436569,-12.08353615,1.15161097,12.31008708
28.07972462,2.183511972,-12.04522896,0.1915361285,12.24303685
28.08428062,2.458845139,-12.09550667,-0.107739076,12.34337104
28.08973423,2.889801502,-12.33732128,-0.4285621047,12.67849023
28.09429023,2.82036972,-12.70602798,-0.6177040339,13.02993441
28.09971239,2.063801765,-12.94066048,-1.04147768,13.14551814
28.10471669,1.285686255,-13.05079365,-1.391031146,13.1875385
28.10972131,0.8379706144,-13.00051498,-1.477222443,13.11097902
28.11428008,0.8475474119,-12.88798809,-1.206677675,12.97207172
28.11928493,1.199495077,-12.78743172,-0.9121908545,12.87591902
28.12425946,1.197100878,-12.56237602,-0.6153098345,12.63427671
28.12926369,0.624886632,-12.27746677,-0.3974374831,12.29978172
28.13426862,0.0191536136,-11.83693314,-0.1891419291,11.83845968
28.13972246,-0.8212111592,-11.22162342,0.1508347094,11.25264285
28.14427877,-1.017535686,-10.7092638,0.3303998411,10.76256819
28.14973139,-1.108515382,-10.29985619,0.4477157295,10.36900637
28.15473508,-1.051054597,-9.739612579,0.6655880809,9.818746175
28.15974193,-1.242590666,-9.038111687,0.9433154464,9.171768557
28.16474562,-1.482010841,-8.425195694,1.194706678,8.637569257
28.16972,-1.553836942,-7.852981567,1.458068848,8.136933913
28.17472408,-1.678335428,-7.275979042,1.685518026,7.65491031
28.17972992,-1.74776721,-6.892906666,1.944091797,7.371997385
28.18428654,-1.771709204,-6.603208065,2.138022184,7.163270839
28.18970892,-1.833958507,-6.378153324,2.133233786,6.971006385
28.19474316,-1.771709204,-6.200982571,2.164358377,6.80261608
28.19972031,-1.70946002,-6.253654957,2.039859772,6.796431547
28.20472285,-1.553836942,-6.385335922,1.886630893,6.837126605
28.209728,-1.460463047,-6.572083473,1.776497602,6.962842611
28.21473331,-1.352723956,-6.794744492,1.632845521,7.117906947
28.21973916,-1.446097851,-7.053318024,1.462857246,7.34713859
28.22474285,-1.611297727,-7.196970463,1.37427175,7.502085513
28.22971631,-1.951274395,-7.354987621,1.15161097,7.696071888
28.23472185,-2.303221941,-7.424419403,0.8667010069,7.821637004
28.23972831,-2.832340717,-7.419631004,0.5530605912,7.961090013
28.24473208,-3.193865061,-7.331045628,0.3184288144,8.002899533
28.24973662,-3.481169224,-7.141903877,0.1029506698,7.945812041
28.25474154,-3.778050184,-6.931213856,-0.05267243832,7.894185398
28.25971754,-4.010287762,-6.746860504,-0.1699883193,7.850568809
28.26472039,-4.266467571,-6.548141479,-0.2202665508,7.818530535
28.26972585,-4.244919777,-6.459556103,-0.2274491638,7.732848251
28.27428254,-4.103661537,-6.411672115,-0.2633621991,7.617016278
28.27973608,-4.027047157,-6.378153324,-0.316034615,7.549690491
28.28473977,-4.082113743,-6.35660553,-0.3471592367,7.562447091
28.28929785,-4.106055737,-6.366182327,-0.4118026793,7.5866694
28.29471946,-4.209006786,-6.39491272,-0.5626373887,7.676405907
28.29972531,-4.314351559,-6.385335922,-0.7565677166,7.743289929
28.30428162,-4.474762917,-6.416460514,-0.9792284966,7.883740047
28.30973393,-4.510675907,-6.449979305,-1.26653266,7.971984393
28.31429177,-4.46039772,-6.483498096,-1.474828243,8.006623117
28.31971516,-4.34787035,-6.555324078,-1.656787634,8.03873097
28.32471916,-4.125209332,-6.641515732,-1.769315004,8.016081264
28.32972223,-3.885789394,-6.727706909,-1.855506301,7.98775958
28.33472777,-3.699041605,-6.775590897,-1.900996208,7.95017782
28.33973323,-3.500322819,-6.833051682,-1.905784607,7.910427933
28.34473816,-3.318363667,-6.866570473,-1.903390408,7.860294048
28.34974193,-3.265691042,-6.847416878,-1.972822189,7.838614882
28.35471639,-3.277662039,-6.773196697,-2.178723574,7.833651661
28.35972246,-3.339911461,-6.68461132,-2.396595955,7.847465148
28.36472677,-3.426102638,-6.607996464,-2.619256735,7.890773244
28.369732,-3.600879431,-6.502651691,-2.853888512,7.962128568
28.37473762,-3.768473387,-6.351817131,-3.213018656,8.0542201
28.37974223,-3.900154591,-6.236895561,-3.404554844,8.105619394
28.3842687,-4.01507616,-6.191405773,-3.615244627,8.217319255
28.38972131,-4.050989151,-6.196194172,-3.801992416,8.322168086
28.39472616,-3.97916317,-6.265625954,-4.077325344,8.46855301
28.39973323,-3.746925592,-6.31590414,-4.458003521,8.590919153
28.40473608,-3.452438831,-6.418854713,-4.812345505,8.733824991
28.40974031,-2.964021683,-6.596025467,-5.245696068,8.933661273
28.41474554,-2.286462545,-6.926425457,-5.726930618,9.273673215
28.41971916,-1.367089152,-7.563282967,-6.069301128,9.79329353
28.42427608,-0.7852981687,-8.037335396,-5.930437565,10.01925861
28.42972923,-0.06943184882,-8.798690796,-5.437232018,10.34336853
28.43473385,0.2801215947,-9.251194954,-5.078101635,10.55699732
28.43974008,0.1723825186,-9.667786598,-5.035006046,10.90170167
28.4442967,-0.05746084079,-10.20169353,-5.559336185,11.61826457
28.44927085,0.09816227108,-10.94868469,-7.61595583,13.33739538
28.4542757,0.8092401624,-11.32936287,-9.667786598,14.91561029
28.45928154,1.642422318,-11.74834728,-11.35569859,16.42172662
28.46473385,2.691082716,-12.5551939,-12.8592577,18.17237818
28.46929085,3.514688015,-13.06755257,-13.51526833,19.12528274
28.4742647,5.193023682,-13.60864258,-13.9055233,20.13768174
28.47972039,6.794744492,-13.73792934,-13.47935581,20.41059256
28.48472316,8.889671326,-13.58230591,-12.16972733,20.28811359
28.4897277,9.847352028,-13.12022495,-10.09156036,19.26006841
28.49473293,9.981427193,-12.45463753,-8.865729332,18.25782137
28.49973785,9.39484787,-11.47780323,-8.212111473,16.95411184
28.50429516,8.549694061,-10.39801788,-7.963114738,15.64056395
28.50971539,7.841010571,-9.196128845,-7.656657219,14.30645422
28.51427323,7.410054207,-8.530540466,-7.292738438,13.44853367
28.51972523,6.4715271,-7.673416615,-6.344634533,11.87503149
28.52473077,5.219359875,-7.338228226,-5.164293289,10.38081096
28.529736,2.923320293,-7.331045628,-3.361459255,8.578428752
28.53474008,0.5339069963,-7.781155586,-1.790862918,8.002413944
28.53974531,-1.900996208,-8.523358345,-0.4213795066,8.742939137
28.5447197,-4.077325344,-9.734824181,0.7278373241,10.57927838
28.549724,-6.047753334,-11.0085392,1.510741234,12.6509128
28.55472923,-8.080430984,-12.85686302,1.833958507,15.29561033
28.55973539,-9.160215378,-14.35323906,2.202665567,17.16906383
28.56429108,-10.65898609,-16.00763321,2.027888775,19.33832046
28.56971362,-11.95185471,-17.7649765,2.274491549,21.53170994
28.57471793,-11.9901619,-19.32839012,2.71263051,22.9065277
28.57972339,-10.82658005,-20.78167152,2.461239338,23.56162995
28.58472862,-8.403648376,-21.13601303,0.7110779285,22.75649324
28.58973231,-5.999869347,-20.10650635,-3.526659012,21.27692068
28.59473823,-2.794033289,-18.32282639,-10.58716011,21.34526992
28.59974339,0.1005564705,-15.79933739,-13.98213768,21.09808872
28.6047167,-0.7326257229,-12.60068321,-10.65898609,16.52053093
28.60972162,-2.334346771,-8.813055992,-5.525817394,10.66085309
28.61472739,-3.174711466,-5.537788391,-1.273715258,6.509089315
28.61973293,-4.118026733,-2.53067112,1.053448796,4.946937928
28.624289,-4.8291049,-1.15400517,1.22822547,5.114735563
28.62971108,-5.559336185,0.3687070608,0.6679822803,5.611449371
28.63471631,-5.322310448,0.9265560508,0.2442085743,5.407876889
28.63972308,-5.106832027,0.9983820915,1.359906554,5.378275374
28.64472616,-4.513070107,0.2202665508,5.341464043,6.996253087
28.64973046,-4.23294878,-1.048660398,8.293514252,9.370161292
28.65473516,-4.328716755,-2.45166254,9.677363396,10.88116723
28.65974093,-4.378994942,-4.27125597,9.998186111,11.7210473
28.664745,-4.414907932,-7.007828236,10.35971069,13.26365991
28.66971939,-4.618414879,-9.071630478,10.9103775,14.92181533
28.67427731,-4.747702122,-10.81221485,11.34851646,16.37783537
28.67928193,-4.778826714,-12.32056236,11.02051067,17.20712344
28.68473362,-4.359841347,-13.65892029,9.890447617,17.41824544
28.68973908,-3.241749048,-15.157691,7.51300478,17.22526558
28.69474377,-1.738190413,-16.23508263,4.431667328,16.91859596
28.69971877,0.390254885,-17.26458931,0.1604115069,17.26974449
28.70472339,3.016694069,-18.18396187,-4.814739704,19.05094829
28.70972746,6.045359135,-18.69392776,-9.495404243,21.82136577
28.71428616,6.414066315,-18.1384716,-10.12029076,21.73855294
28.71970931,4.57771349,-16.19677544,-9.088389397,19.12824658
28.72474339,2.808398485,-14.34366226,-7.503427982,16.42952162
28.72926954,1.771709204,-12.46660805,-5.631162167,13.79366728
28.73427447,1.000776291,-10.84333992,-3.983951569,11.59531991
28.7397277,0.1340752989,-9.562441826,-2.561795712,9.90055893
28.74473239,-0.5698199868,-8.899248123,-1.728613615,9.083469437
28.749737,-1.347935557,-8.36294651,-0.8714894056,8.515591488
28.75474131,-2.56658411,-7.541735172,0.4309563041,7.978148077
28.7592687,-3.452438831,-7.060500622,0.5291185975,7.877180295
28.76427323,-4.38617754,-6.610390663,0.624886632,7.957782444
28.76972593,-4.872200489,-6.4715271,0.624886632,8.124622078
28.77473054,-5.169081688,-6.50744009,0.6416460276,8.335339924
28.77973693,-5.082890034,-6.68461132,0.6584054828,8.423378027
28.78474008,-4.400542736,-6.955155849,0.6512228847,8.256092327
28.78974462,-3.677493811,-7.20894146,0.6464344859,8.118538984
28.79471939,-2.844311714,-7.51061058,0.6991068721,8.06152162
28.79972647,-1.848323703,-7.876923561,0.9145850539,8.14240082
28.80473077,-1.302445769,-8.128314972,1.024718285,8.295535958
28.80973454,-1.060631394,-8.305485725,0.988805294,8.431119024
28.81473877,-1.007958889,-8.432378769,0.7805097699,8.528199595
28.81974493,-0.9289502501,-8.628703117,0.4189853072,8.688671633
28.82471908,-0.8619126081,-8.923190117,-0.1388636976,8.965796023
28.82972316,-0.7182605267,-9.095572472,-0.356736064,9.130859619
28.83472862,-0.7182605267,-9.229647636,-0.5075707436,9.271457369
28.83973293,-0.720654726,-9.373299599,-0.5817909837,9.418947359
28.84473823,-0.7685387731,-9.457097054,-0.6200982332,9.508515044
28.84974254,-0.8595184088,-9.485827446,-0.7445967197,9.553748924
28.85471693,-1.039083481,-9.409213066,-0.8331822157,9.503008871
28.85972246,-1.213860273,-9.236829758,-0.8092401624,9.351328803
28.86472716,-1.479616642,-9.13866806,-0.720654726,9.285680511
28.8697317,-1.623268723,-8.930372238,-0.4644751251,9.088580021
28.87473639,-1.776497602,-8.774748802,-0.3471592367,8.959502208
28.87974277,-1.991975784,-8.621520042,-0.2274491638,8.851570962
28.88426954,-2.19308877,-8.456320763,0.007182605099,8.73607754
28.88972093,-2.60010314,-8.262390137,0.2011129409,8.664183373
28.89427724,-2.801215887,-8.116343498,0.2394201756,8.589479859
28.8997317,-3.004723072,-7.862558365,0.1987187415,8.419481808
28.90473477,-3.028665066,-7.666234016,0.1628057212,8.244420039
28.90974008,-2.961627483,-7.536946774,0.04309562966,8.098065278
28.91474431,-2.806004286,-7.412448406,-0.03112462163,7.925845076
28.91972039,-2.645592928,-7.369352818,-0.03112462163,7.829910065
28.9242767,-2.422932148,-7.443572998,0.1029506698,7.828663871
28.929729,-2.185906172,-7.520187378,0.2633621991,7.835863937
28.93473385,-1.963245392,-7.730877399,0.423773706,7.987514131
28.93973846,-1.89860189,-7.939172745,0.4812345505,8.177208552
28.94474316,-1.841141105,-8.207323074,0.4644751251,8.424113589
28.94927077,-1.723825216,-8.499416351,0.1532289088,8.673818697
28.95472216,-1.628057122,-8.853757858,-0.2753331959,9.006409194
28.95973016,-1.515529633,-9.339780807,-0.6631938815,9.485154808
28.96473447,-1.465251446,-9.765948296,-1.070208192,9.933078752
28.96929016,-1.400607944,-10.16817474,-1.470039845,10.36891978
28.97426439,-1.379060149,-10.51293945,-1.812410712,10.7567902
28.97971785,-1.395819545,-10.83136845,-2.188300371,11.13802106
28.98472308,-1.391031146,-10.91755962,-2.341529369,11.25214804
28.98972616,-1.343147159,-10.9199543,-2.358288765,11.25215411
28.994732,-1.259350061,-10.83376312,-2.272097349,11.14086228
28.99973731,-1.26413846,-10.62786102,-1.987187386,10.88569656
29.00474131,-1.261744261,-10.42195988,-1.707065821,10.63594471
29.009716,-1.18991828,-10.25915432,-1.407790542,10.42343643
29.01472031,-1.089361787,-10.11071396,-1.197100878,10.23944805
29.01972624,-0.9720458984,-9.993397713,-1.18991828,10.11082472
29.02473077,-0.7374141216,-9.902418137,-1.417367458,10.03048329
29.02973547,-0.3806780577,-10.0317049,-1.656787634,10.17472183
29.03474062,0.06224924326,-10.16099167,-1.850717902,10.32834853
29.03974777,0.6416460276,-10.3501339,-1.82198751,10.52884703
29.04427231,1.213860273,-10.6302557,-1.625662923,10.82213347
29.04972431,2.181117773,-10.90319443,-0.9361328483,11.15855135
29.05428162,2.801215887,-11.14022064,-0.3615244627,11.49269448
29.05973393,3.277662039,-11.34612179,0.05506663769,11.81018969
29.06473824,3.550601006,-11.52089882,0.3591302633,12.06096396
29.06974431,3.574543238,-11.74116516,0.5458779931,12.28536941
29.07471762,3.356670856,-11.99973869,0.4932055473,12.47013311
29.07972431,2.906560898,-12.22718811,0.3040636182,12.57158224
29.08428039,2.224213362,-12.38281155,0.06224924326,12.58113754
29.08973354,1.209071875,-12.54322243,-0.349553436,12.60620765
29.09473762,0.3471592367,-12.65096188,-0.6967126727,12.67488716
29.09974339,-0.5602431893,-12.68448067,-1.199495077,12.75338036
29.10471793,-1.455674648,-12.72518158,-1.807622313,12.93509696
29.10972285,-2.178723574,-12.81855583,-2.506729126,13.24182393
29.11472624,-2.918531895,-13.00051498,-3.258508444,13.71674508
29.11973354,-3.268085241,-13.247118,-3.600879431,14.1114439
29.12473662,-3.488351822,-13.44823074,-3.675099611,14.37114699
29.12974154,-3.270479441,-13.80496693,-3.706224203,14.66319356
29.13471631,-2.851494312,-13.96059036,-3.550601006,14.6845453
29.13972277,-2.422932148,-14.00847435,-3.56496644,14.65663466
29.14472585,-1.766920805,-14.01086807,-3.634398222,14.58201919
29.14973047,-1.051054597,-14.07072353,-3.507505417,14.53934561
29.15473539,-0.2370259613,-14.29817295,-3.165134668,14.64622847
29.15974154,0.6440402865,-14.65730286,-2.497152328,14.88244216
29.16474462,1.158793569,-14.77222443,-1.874659896,14.93572117
29.16971947,1.491587639,-14.74588871,-1.268926859,14.8753569
29.1747247,1.640028119,-14.46576691,-0.758961916,14.57820728
29.17973108,1.503558636,-13.9198885,-0.5219359994,14.01058177
29.18473547,1.237802267,-13.45062542,-0.6344634295,13.5223527
29.18973916,0.8882488012,-12.99812126,-0.9097966552,13.06016356
29.19474377,0.2130839527,-12.58871269,-1.247379065,12.65215581
29.19972039,-0.8307880163,-12.20803452,-1.503558636,12.32830094
29.2042757,-2.092532396,-11.94467258,-1.647210717,12.23794093
29.20972801,-3.251325846,-11.8680582,-1.249773264,12.36866438
29.21473231,-3.998316765,-11.92312431,-0.5746083856,12.58878887
29.21973854,-5.195417881,-11.92312431,-0.3327940404,13.01015035
29.22474339,-6.284779549,-11.88481712,0.787692368,13.46728597
29.22971662,-6.873753071,-11.9805851,2.221819162,13.9899743
29.23472193,-7.237671852,-12.20803452,3.284844637,14.56743645
29.23928,-7.424419403,-12.46900272,3.67988801,14.9712928
29.24473108,-7.455543995,-12.73236465,3.538630009,15.17300723
29.24973639,-7.242460251,-12.98854446,3.327940464,15.23911761
29.25474185,-7.060500622,-13.24951267,3.112462282,15.33256914
29.25974677,-6.91445446,-13.59427738,2.829946518,15.51201648
29.26427385,-6.617573261,-13.95101357,2.250549555,15.60410294
29.26927824,-6.303933144,-14.2143755,1.623268723,15.63403483
29.27473024,-5.971138954,-14.36760426,0.7326257229,15.5762413
29.27973785,-5.612008572,-14.31493187,-0.1699883193,15.37663197
29.2847407,-4.939238071,-14.2095871,-1.122880578,15.08540019
29.28974554,-3.643975019,-14.05156994,-2.073378563,14.66369907
29.29471877,-2.985569477,-13.74750614,-2.640804529,14.31367873
29.29927731,-2.281674147,-13.37879944,-3.11964488,13.92589299
29.30472931,-1.620874524,-13.07473564,-3.555389643,13.64612552
29.30973393,-1.795651317,-12.60547161,-3.780444384,13.28209464
29.31473908,-1.982398987,-11.8872118,-3.08373189,12.43965886
29.319745,-1.379060149,-11.71004009,-1.355118155,11.86857999
29.32471885,0.1580173075,-12.03325748,0.4189853072,12.04158643
29.32972339,1.37666595,-12.29183197,1.204283476,12.42717349
29.3347277,2.061407566,-12.55758762,2.461239338,12.96148553
29.33973385,2.387019157,-12.60068321,2.221819162,13.01581954
29.34473877,1.369483352,-12.34929276,1.678335428,12.53783578
29.34974377,0.2537853718,-11.94706631,1.395819545,12.0310063
29.3547167,-0.4094084799,-11.42034245,1.204283476,11.49095886
29.35972254,-0.6871358752,-10.53448772,0.85473001,10.59141873
29.36472708,-0.6871358752,-10.53448772,0.85473001,10.59141873
29.3697317,-0.5051765442,-9.533711433,0.2968810201,9.551701177
29.37473631,-0.6823474765,-9.267954826,0.5363011956,9.30850169
29.37974185,-0.9935936928,-8.927978516,0.8858546019,9.026669772
29.384716,-1.175553083,-8.616731644,1.046266198,8.759261512
29.38972031,-1.417367458,-8.154650688,1.144428372,8.35565525
29.39427816,-1.704671621,-7.575253963,1.273715258,7.868464177
29.39973024,-2.260126352,-6.936002254,1.26413846,7.403671012
29.40473508,-2.497152328,-6.461950302,1.043871999,7.005871838
29.40973977,-2.540247917,-6.047753334,0.9361328483,6.626048942
29.41474531,-2.463633537,-5.695806026,0.7805097699,6.254669615
29.41971939,-2.444479942,-5.291185856,0.7972691655,5.882836737
29.424724,-2.449268341,-5.044582844,0.7493851185,5.657588667
29.42972985,-2.521094322,-4.769249916,0.6751648784,5.436681797
29.43473454,-2.540247917,-4.556165695,0.6153098345,5.25262901
29.43974162,-2.461239338,-4.273650169,0.5315127969,4.960271233
29.44474431,-2.466027737,-4.070142746,0.5027823448,4.785409581
29.44971762,-2.434903145,-3.928884983,0.4764461517,4.646707595
