Time (s),Acceleration x (m/s^2),Acceleration y (m/s^2),Acceleration z (m/s^2),Absolute acceleration (m/s^2)
50.0041257,0.7637503147,-8.839392662,-1.441309452,8.988634497
50.0091307,0.3615244627,-8.662221909,-1.477222443,8.794712871
50.01413532,0.0,-8.530540466,-1.431732655,8.649854279
50.01910939,-0.3088520169,-8.489839554,-1.345541358,8.60135145
50.02366755,-0.55784899,-8.487444878,-1.235408068,8.595007222
50.02867193,-0.8810662031,-8.331821442,-1.017535686,8.439840346
50.03367747,-1.086967587,-8.202534676,-0.921767652,8.32542667
50.03910116,-1.321599364,-8.130708694,-0.8858546019,8.284913224
50.04413409,-1.498770237,-8.056488991,-0.8643068075,8.24016707
50.04910886,-1.532289028,-7.967903137,-0.6368576288,8.138856044
50.05411286,-1.549048543,-7.946355343,-0.4094084799,8.106277193
50.05911862,-1.556231141,-7.943961143,-0.1963245422,8.09734014
50.06412332,-1.493981838,-7.989450932,0.0,8.127933804
50.06912793,-1.37427175,-8.085219383,0.02633621916,8.201224842
50.0736854,-1.170764685,-8.188169479,-0.04788403213,8.271584023
50.07910701,-0.8690952063,-8.418013573,-0.1532289088,8.464145443
50.08366486,-0.4860229492,-8.705317497,-0.3016694188,8.72409167
50.08911678,0.09816227108,-9.109937668,-0.5626373887,9.127823452
50.09412109,0.4620809257,-9.402029991,-0.7805097699,9.445680613
50.09912701,0.8236053586,-9.686940193,-1.070208192,9.780617653
50.10413162,1.185129881,-9.967061996,-1.611297727,10.16578271
50.10910578,1.381454349,-10.13226128,-2.056619167,10.43076302
50.11411101,1.580173135,-10.27112484,-2.49236393,10.68666602
50.11911716,1.654393315,-10.29027843,-2.849100113,10.80482387
50.12412109,1.601720929,-10.20887566,-3.210624456,10.82103329
50.12912547,1.496376038,-10.02931118,-3.375824451,10.6874887
50.13413093,1.333570361,-9.859322548,-3.459621429,10.53345297
50.13913532,1.177947283,-9.742006302,-3.560178041,10.43882725
50.14410916,1.017535686,-9.552865028,-3.442862034,10.20519025
50.14911463,0.9552865028,-9.476250648,-3.143586874,10.02965788
50.15411901,0.8906430602,-9.447520256,-2.829946518,9.902397757
50.15912355,0.8667010069,-9.447520256,-2.585737944,9.833252277
50.1641294,0.9528923035,-9.646238327,-2.499546528,10.01027724
50.16868663,1.199495077,-9.957485199,-2.351106167,10.30135914
50.17366178,1.577778935,-10.24000072,-1.963245392,10.5452043
50.17866609,2.018311977,-10.49618053,-1.391031146,10.77860644
50.1841184,2.734178305,-10.75714779,-0.8667010069,11.1329749
50.18867616,3.409343243,-10.89122391,-0.4764461517,11.4223194
50.19365001,4.010287762,-11.00135708,-0.1388636976,11.71031804
50.19910455,4.448426723,-11.17373943,0.282515794,12.02999453
50.20365993,4.568136692,-11.2838726,0.490811348,12.18337185
50.20866363,4.434061527,-11.60709,0.7517793179,12.44791597
50.21411716,4.065354347,-11.8680582,0.7350199223,12.56654948
50.21912232,3.41892004,-12.12423706,0.1915361285,12.5985247
50.2241257,2.729389906,-12.22000504,-0.6344634295,12.53717018
50.22913155,1.810016513,-12.24155331,-1.517923832,12.46739267
50.23410632,0.7613561153,-12.2511301,-2.279279947,12.48458926
50.23911101,-0.4812345505,-12.42830086,-3.112462282,12.82114154
50.24411501,-1.383848548,-12.65096188,-3.60327363,13.22669475
50.24912047,-2.111685991,-12.77546024,-4.036623955,13.56340426
50.2536774,-2.707842112,-12.78024864,-4.206612587,13.72453109
50.2586534,-3.19625926,-12.80419064,-4.264073372,13.86887497
50.26410486,-3.497928619,-12.96460247,-4.376600742,14.12342224
50.2686624,-3.213018656,-13.20402241,-4.218583584,14.22905985
50.2741137,-2.564189911,-13.54399872,-3.574543238,14.24051721
50.2786734,-1.745373011,-13.93904209,-2.56658411,14.2804263
50.28367686,-0.5195417404,-14.42267132,-1.283292055,14.48896856
50.28909901,0.2537853718,-14.87038708,-0.6991068721,14.88897476
50.29413409,0.9169792533,-15.27021885,-0.6416460276,15.3111771
50.29910816,1.367089152,-15.53358078,-0.988805294,15.62494162
50.30411224,1.182735682,-15.35641003,-1.288080573,15.45565735
50.30911863,0.4548983276,-14.99009705,-1.594538331,15.08152825
50.3141224,-0.6368576288,-14.65969658,-1.805228114,14.78415165
50.31912786,-2.128445387,-14.53040981,-1.496376038,14.76151179
50.32413247,-2.853888512,-14.70279217,-0.8523358107,15.00144171
50.32910701,-3.639186621,-14.88954067,-0.06224924326,15.32794754
50.33411186,-4.582501888,-14.96854877,0.55784899,15.66422585
50.33866909,-5.204994678,-14.93263626,0.9169792533,15.84034237
50.34367555,-6.313509941,-14.73391724,1.386242747,16.08944977
50.34909655,-6.981492043,-14.61660099,2.164358377,16.34229797
50.35413124,-7.51061058,-14.65251446,3.08373189,16.75156272
50.35910693,-7.795520782,-14.64772606,3.347094059,16.92716933
50.3641107,-7.946355343,-14.64293766,3.452438831,17.0140977
50.36911493,-8.054094315,-14.74588871,3.191470861,17.10248974
50.37411993,-8.099584579,-15.14332581,2.238578558,17.31862641
50.37912509,-7.747636795,-15.58864689,1.118092179,17.44367845
50.38413001,-7.17063427,-15.89510536,0.1436520964,17.43826271
50.38913501,-6.610390663,-15.72032833,-0.3280056417,17.05677505
50.39410978,-5.485116005,-15.22472858,-0.7182605267,16.19860353
50.3991147,-4.374206543,-14.89911747,-1.295263171,15.58188342
50.40411932,-3.454833031,-14.54238129,-1.879448295,15.06482826
50.40912517,-3.141192675,-13.86482239,-2.774879694,14.48448648
50.41412886,-1.683123827,-13.38837624,-2.401384354,13.70577144
50.4191334,-0.1388636976,-13.2375412,-2.130839586,13.40866352
50.4236617,0.7517793179,-12.92150688,-0.8714894056,12.9726638
50.42911309,2.671929121,-13.22556973,1.661576033,13.59469509
50.43411801,3.737348795,-13.56315231,0.538695395,14.07895839
50.43867586,3.708618402,-13.45062542,-0.7493851185,13.97264301
50.44409778,3.816357613,-13.30457878,-1.453280449,13.91719893
50.44913224,3.689464808,-13.04600525,-1.606509328,13.65251903
50.45410693,3.294421434,-12.51449203,-0.895431459,12.97179714
50.45911278,3.325546265,-12.22239971,-0.4429273009,12.67448213
50.46411647,2.760514498,-11.62145519,-0.2753331959,11.94799018
50.4691224,2.355894566,-11.00614548,0.423773706,11.26343916
50.47412701,1.666364431,-10.18493366,0.9289502501,10.36207473
50.47913216,0.9600749016,-9.627084732,1.192312479,9.748031253
50.48410609,0.1604115069,-9.028534889,1.491587639,9.152322535
50.48911032,-0.5602431893,-8.353369713,1.810016513,8.56555998
50.49411555,-1.142034173,-7.58961916,2.245761156,7.996874653
50.49912016,-1.587355733,-7.046135426,2.181117773,7.544865632
50.50412578,-2.11647439,-6.454767704,2.003946781,7.082322547
50.50913063,-2.597708941,-5.839457989,1.817199111,6.644514576
50.51413493,-2.925714493,-5.164293289,1.70946002,6.176729234
50.5191107,-3.205836058,-4.680664539,1.628057122,5.902251719
50.52411409,-3.440467834,-4.254496574,1.55862534,5.689189131
50.52911924,-3.749319792,-3.928884983,1.223437071,5.566896297
50.53412424,-3.845088005,-3.770867586,0.921767652,5.463863077
50.53912824,-3.739742994,-3.682282209,0.6129156351,5.283989545
50.5441337,-3.435679436,-3.677493811,0.2442085743,5.038600177
50.54910816,-3.217807055,-3.689464808,-0.09097966552,4.896397666
50.5541134,-3.203441858,-3.569754839,-0.2801215947,4.8045455
50.5591184,-3.201047659,-3.574543238,-0.316034615,4.808736149
50.5641224,-3.08373189,-3.711012602,-0.2442085743,4.831216692
50.56912793,-2.817975283,-3.82593441,-0.1436520964,4.753882069
50.57413255,-2.561795712,-3.928884983,-0.04548983276,4.690522764
50.57910786,-2.446874142,-4.029441357,0.02633621916,4.71426392
50.58411186,-2.372653961,-4.043806553,0.1221042871,4.690071184
50.5891174,-2.274491549,-4.058171749,0.2657563984,4.659688424
50.59367532,-2.279279947,-4.09169054,0.3375824392,4.695850345
50.5990984,-2.41335535,-3.97916317,0.4501099288,4.675534464
50.60368486,-2.487575531,-3.852270603,0.5698199868,4.620899873
50.60910663,-2.466027737,-3.732560396,0.6368576288,4.518726319
50.61411101,-2.446874142,-3.667917013,0.7182605267,4.467292968
50.61911586,-2.408566952,-3.64158082,0.7781155705,4.434835901
50.62412086,-2.346317768,-3.596091032,0.7829039693,4.364632448
50.62912632,-2.226607561,-3.658340216,0.7613561153,4.349815801
50.6341307,-2.140416384,-3.701435804,0.7062895298,4.333688292
50.63913501,-2.030282974,-3.739742994,0.5506663918,4.29079947
50.64410886,-1.946485996,-3.754108191,0.3519476354,4.243348109
50.6491144,-1.879448295,-3.732560396,0.04788403213,4.179309259
50.65411986,-1.900996208,-3.713406801,-0.2274491638,4.177907344
50.65912455,-1.915361404,-3.651157618,-0.5746083856,4.162899957
50.66412909,-1.97042799,-3.620033026,-0.9241618514,4.223896388
50.6691334,-2.181117773,-3.550601006,-1.472434044,4.419514029
50.67410878,-2.296039343,-3.536235809,-2.04704237,4.686911865
50.6791144,-2.348711967,-3.507505417,-2.71263051,5.017709282
50.68411893,-2.257732153,-3.521870613,-3.337517262,5.351630458
50.6891227,-1.908178806,-3.526659012,-4.355052948,5.919878067
50.69368109,-1.59693253,-3.699041605,-5.178658485,6.561372266
50.69865501,-1.345541358,-3.983951569,-6.332663536,7.601643185
50.70365932,-1.149216771,-4.515464306,-7.386112213,8.732970326
50.70911247,-1.053448796,-5.518634796,-8.602366447,10.27452154
50.7136694,-0.9169792533,-6.7612257,-9.979032516,12.08867709
50.71912294,-0.9241618514,-8.46589756,-11.16655636,14.04341403
50.72412732,-1.065419793,-10.48181534,-10.18732834,14.6555529
50.72913124,-1.400607944,-12.8401041,-8.532935143,15.48034102
50.73410547,-1.455674648,-14.5639286,-7.405265808,16.40319989
50.73911063,-1.886630893,-16.80729675,-7.139509678,18.35802818
50.74411532,-3.162740469,-20.42493439,-7.762001991,22.07780666
50.74912055,-3.775655985,-23.47275352,-9.868899345,25.74142402
50.75367809,-4.280832767,-26.23566246,-15.5599165,30.8017291
50.75910109,-3.885789394,-28.42875099,-22.18227959,36.26770974
50.76410486,-1.393425345,-29.05603218,-22.43606377,36.73651586
50.7691094,-0.6751648784,-26.87012482,-20.15199661,33.59408315
50.7741144,-1.022324085,-23.02503777,-17.35078049,28.84869311
50.77911924,-1.465251446,-18.0594635,-15.25585365,23.68611945
50.78412394,-0.5746083856,-11.36527538,-13.80975533,17.89438464
50.78912878,1.280897856,-6.859387875,-13.28063679,15.00224033
50.79413347,2.726995707,-3.416525841,-12.30859089,13.06179789
50.79910878,3.38300705,-0.806845963,-10.69489861,11.24618128
50.80411278,2.67432332,1.283292055,-8.379706383,8.889225095
50.80911778,2.121262789,1.393425345,-5.999869347,6.514585343
50.81412201,0.6440402865,0.4716577232,-3.785232782,3.868492745
50.81912817,-0.5913678408,-1.055842996,-1.628057122,2.028568546
50.82413317,-1.039083481,-3.591302633,1.063025594,3.88679463
50.82910701,-2.164358377,-5.372588634,2.908955097,6.481602856
50.83411217,-3.363853455,-7.050923824,4.395754337,8.964022146
50.83911894,-4.65193367,-8.947132111,5.633556366,11.55113056
50.84412232,-5.999869347,-11.79623222,5.918466568,14.49750921
50.8491264,-6.528987885,-14.36042213,4.903325081,16.5194432
50.85368455,-6.251260757,-16.97488976,2.7533319,18.29770422
50.8591067,-5.008669853,-19.4145813,-1.438915253,20.10182126
50.86366294,-2.7509377,-21.97877121,-7.797914982,23.482792
50.86866817,1.647210717,-24.3346653,-13.65173817,27.95101417
50.87412047,5.193023682,-23.61401176,-12.70363426,27.31247645
50.87867809,6.090848923,-20.50873184,-8.621520042,23.06593007
50.88409955,2.71263051,-14.53519821,-3.909731388,15.29432414
50.88913494,-0.06703764945,-10.15380955,-3.045424461,10.60089395
50.89411001,-2.82276392,-6.414066315,-0.1651999205,7.009674304
50.89911409,-5.956773758,-3.208230257,5.003881454,8.415148519
50.90411994,-7.982268333,-1.22822547,7.584830761,11.07947667
50.9086774,-9.727641106,-0.8858546019,6.950367451,11.98830044
50.91409863,-11.38442898,-0.5674257874,4.000710964,12.08026835
50.91913532,-12.928689,-0.1675941199,-2.578555346,13.18438602
50.92410909,-12.81616211,-0.3064578176,-3.095702887,13.18830178
50.92911378,-11.12585545,-1.216254473,0.323217243,11.19680328
50.93411832,-8.834604263,-2.626439333,2.56897831,9.568075335
50.93867586,-6.311115742,-4.570530891,2.877830505,8.306734795
50.94409801,-2.698265314,-7.603984833,3.038241863,8.621608589
50.9491334,-0.4429273009,-9.99100399,5.786785603,11.55435991
50.95410755,1.218648672,-12.02368069,9.457097054,15.3457058
50.95911224,2.738966703,-14.04438686,12.68448067,19.12178838
50.9641174,3.773261786,-15.12656593,12.20563984,19.79970064
50.96912147,4.175487995,-15.74905872,10.50815105,19.38785159
50.97412578,4.118026733,-15.97171974,8.207323074,18.42319537
50.97913101,4.326322556,-16.0267868,4.321534157,17.15373486
50.98410632,4.900930882,-16.06030464,0.6967126727,16.80588936
50.9891104,5.406107426,-15.89749908,-2.97599268,17.05324037
50.99366886,5.145139217,-15.4617548,-5.963956356,17.35243771
50.99912178,4.086902142,-14.62617779,-8.346187592,17.32878222
51.00412601,3.105279684,-13.63497829,-8.947132111,16.60140259
51.0091307,2.085349798,-12.49055004,-8.169015884,15.06968296
51.01413501,1.046266198,-11.34851646,-6.495469093,13.11772151
51.01910847,-0.1101332754,-10.31900978,-4.479551315,11.24990987
51.02411524,-1.182735682,-9.660603523,-3.675099611,10.40348409
51.02911924,-2.161964178,-8.949525833,-2.983175278,9.678193865
51.03367617,-3.01190567,-8.334216118,-2.293645144,9.153772015
51.0386504,-3.787626982,-7.716512203,-1.091755986,8.665022208
51.04365624,-4.486733913,-6.926425457,1.110909581,8.327080576
51.04910878,-4.742913723,-6.612784863,2.109291792,8.406739325
51.05411278,-4.90571928,-6.445190907,1.884236693,8.316063696
51.0591184,-4.8291049,-6.572083473,1.098938584,8.229228477
51.06412324,-4.477157116,-6.84023428,0.5554547906,8.19403874
51.06912701,-3.90254879,-7.184999466,0.117315881,8.177277505
51.0736864,-3.177105665,-7.544129372,-0.1628057212,8.187453456
51.07866201,-2.260126352,-7.99663353,-0.3184288144,8.315991573
51.08411217,-1.110909581,-8.434772491,-0.4189853072,8.517925555
51.08911647,-0.3591302633,-8.65743351,-0.5841852427,8.68454961
51.09412178,0.2442085743,-8.801085472,-0.7350199223,8.835100316
51.09867932,0.5219359994,-8.913613319,-0.8427590132,8.968565234
51.10410086,0.7972691655,-8.949525833,-1.000776291,9.040531176
51.10910578,0.9457096457,-8.906430244,-1.161187768,9.031457439
51.11411063,1.070208192,-8.892065048,-1.355118155,9.058173746
51.11911678,1.086967587,-8.856152534,-1.489193439,9.046028595
51.12367247,1.00556469,-8.868123055,-1.544260144,9.057566243
51.12867778,0.8786720037,-8.906430244,-1.515529633,9.077080712
51.13409986,0.6631938815,-8.908824921,-1.491587639,9.057142004
51.13913563,0.3447650373,-8.858546257,-1.493981838,8.990255083
51.14411001,0.03112462163,-8.82263279,-1.565807939,8.960556488
51.14911432,-0.2466027737,-8.803479195,-1.513135433,8.935974356
51.15411932,-0.517147541,-8.729259491,-1.414973259,8.8583047
51.15912694,-0.7062895298,-8.698134422,-1.304839969,8.823774401
51.16368232,-0.9337386489,-8.590395927,-1.168370485,8.719624972
51.16865686,-1.074996591,-8.499416351,-0.9911994934,8.624278081
51.17410847,-1.273715258,-8.372523308,-0.9576807022,8.522831069
51.17911286,-1.362300754,-8.29830265,-0.9361328483,8.461325838
51.18411809,-1.326387763,-8.269572258,-0.7733271718,8.410895597
51.18912355,-1.22822547,-8.295908928,-0.4884171486,8.400547247
51.19412817,-1.276109457,-8.281543732,0.1723825186,8.381058266
51.19913317,-1.223437071,-8.267178535,0.5913678408,8.378111668
51.20410701,-1.206677675,-8.283937454,0.7757213712,8.407225131
51.20911247,-1.216254473,-8.276755333,0.8427590132,8.407984095
51.2136704,-1.247379065,-8.231265068,0.8499416113,8.368517186
51.21912147,-1.173158884,-8.224082947,0.7158663273,8.338123691
51.2241267,-1.029506683,-8.303091049,0.5841852427,8.387042231
51.22913217,-0.9169792533,-8.410830498,0.4525041282,8.472761097
51.2336587,-0.8427590132,-8.547300339,0.3256114423,8.594917606
51.2386657,-0.7110779285,-8.803479195,0.06464344263,8.832386797
51.24366909,-0.586579442,-9.040505409,-0.1388636976,9.060579265
51.24912078,-0.4525041282,-9.294290543,-0.5291185975,9.320330636
51.2541257,-0.1221042871,-9.564835548,-1.369483352,9.663150272
51.25913063,0.1723825186,-9.737217903,-2.248155355,9.994865218
51.26368847,0.4596867263,-9.92636013,-3.191470861,10.43692596
51.26911001,0.739808321,-10.12507915,-4.096478939,10.94740535
51.2741144,0.9457096457,-10.27351952,-4.79079771,11.37503023
51.2791187,0.9983820915,-10.27830791,-4.872200489,11.41835006
51.28412386,0.9648633003,-10.31182671,-4.702212334,11.37433655
51.28912917,0.8810662031,-10.35731697,-4.319139957,11.25634321
51.29413409,0.6607996821,-10.36928749,-3.646369219,11.01157517
51.29910794,0.4955997467,-10.40759468,-3.066972494,10.861398
51.3041134,0.4141969085,-10.41717148,-2.53067112,10.72815534
51.30911894,0.4525041282,-10.46984386,-1.915361404,10.65321547
51.31412355,0.6488286853,-10.51772785,-1.15400517,10.60072195
51.3191297,1.053448796,-10.56321812,-0.787692368,10.64480111
51.32413286,1.762132406,-10.54166985,-0.7900865674,10.71709618
51.32910755,2.829946518,-10.43871975,-0.8882488012,10.85193316
51.33411247,3.581725836,-10.35492229,-0.988805294,11.00140498
51.33911709,4.189853191,-10.41477776,-0.9648633003,11.26736112
51.34412178,4.57531929,-10.65659142,-0.7900865674,11.62414401
51.3491267,4.699818134,-11.05881786,-0.5123591423,12.02698029
51.35413186,4.534617901,-11.40597725,-0.3663128614,12.27979078
51.35910578,4.153939724,-11.68849277,-0.2896983922,12.40806205
51.36411094,3.632004023,-11.94946098,-0.3208230138,12.49335817
51.36911563,2.8969841,-12.18648624,-0.55784899,12.53850706
51.37367348,2.372653961,-12.31098557,-0.8140285611,12.56393628
51.37912478,1.367089152,-12.51449203,-1.493981838,12.67727989
51.38368417,0.5363011956,-12.68687439,-2.126051188,12.87495609
51.38910424,-0.5674257874,-12.98614979,-3.016694069,13.3440062
51.3936624,-1.242590666,-13.14416695,-3.483563423,13.65460986
51.39911532,-2.212242365,-13.36922264,-4.165910721,14.17691583
51.40412024,-2.827552319,-13.43147182,-4.520252705,14.45102668
51.40912417,-3.105279684,-13.541605,-4.656722069,14.65274337
51.41412878,-2.892195702,-13.72116947,-4.359841347,14.68480522
51.41913432,-2.300827742,-14.02283955,-3.773261786,14.70276647
51.42410848,-1.45088625,-14.38196945,-3.040636063,14.77130948
51.42911309,-0.2968810201,-14.94460678,-1.927332401,15.0712979
51.43411771,0.5051765442,-15.29176617,-1.000776291,15.33280369
51.43912301,1.18752408,-15.49048519,-0.1987187415,15.53720805
51.44412755,1.659181833,-15.59822369,0.1149216816,15.68663997
51.44913317,1.807622313,-15.42823601,-0.2035071403,15.53510154
51.45410671,1.611297727,-15.04276943,-1.043871999,15.16479018
51.45911286,1.165976286,-14.56153488,-1.869871497,14.72732896
51.46367009,0.6224924326,-14.06114674,-2.303221941,14.26212381
51.46912109,-0.2801215947,-13.69004536,-2.370259762,13.89654422
51.47412724,-1.182735682,-13.6014595,-1.920149803,13.78715125
51.47913371,-2.183511972,-13.50090313,-0.9744400978,13.71100446
51.48410601,-3.107673883,-13.31415558,0.1508347094,13.67286096
51.48866332,-3.854664803,-13.18965721,1.036689281,13.78042898
51.49411563,-4.71657753,-13.08910084,1.798045516,14.02867178
51.49911994,-5.68144083,-13.00530338,2.549824715,14.41937211
51.50412517,-6.720524311,-12.95023727,3.220201254,14.94134494
51.50913001,-7.757213593,-13.04839897,3.703830004,15.62540992
51.51413409,-8.403648376,-13.14895535,3.507505417,15.99434047
51.51911009,-8.789113998,-13.37640476,2.918531895,16.2694363
51.52411401,-8.990227699,-13.76187134,2.020706177,16.56190056
51.52867217,-9.124302864,-14.27183628,0.6655880809,16.952322
51.53412478,-8.497021675,-15.03319263,-1.26413846,17.31456913
51.5391294,-7.742848396,-15.5455513,-2.375048161,17.52873984
51.54413501,-6.967126846,-15.88074017,-2.930502892,17.58768353
51.54910794,-6.497863293,-15.70356941,-2.7533319,17.21642112
51.55411317,-5.990292549,-15.27021885,-2.52827692,16.59684828
51.55912017,-5.183446884,-14.93024158,-2.458845139,15.99456641
51.56412294,-3.550601006,-14.42745972,-2.37744236,15.04694632
51.56912848,-3.114856482,-13.58709431,-2.439691544,14.15145072
51.57413317,-1.369483352,-13.541605,-1.125274777,13.65711514
51.5791064,0.02154781483,-13.5224514,-0.1987187415,13.52392862
51.58366509,1.323993564,-13.59188271,2.444479942,13.87327346
51.5891174,4.620809078,-14.37478733,3.165134668,15.42739333
51.59412263,4.774038315,-14.32211494,0.988805294,15.12918221
51.59867955,4.137180328,-14.10424232,-0.8379706144,14.72236759
51.60365317,3.962403774,-13.8911581,-1.209071875,14.49575013
51.6091064,3.904942989,-13.6014595,-0.8858546019,14.17861131
51.61411094,3.732560396,-13.10825443,-0.5817909837,13.64173091
51.61911532,3.134010077,-12.40675354,-0.4716577232,12.80515574
51.62412086,1.867477298,-11.21444035,-0.691924274,11.38990355
51.62912548,1.335964561,-10.56561184,0.653617084,10.66977835
51.63368263,0.8020575643,-9.971850395,1.666364431,10.14188676
51.63865894,0.2896983922,-9.282320023,2.202665567,9.54448143
51.64411124,-0.2633621991,-8.195352554,2.281674147,8.511122138
51.64911432,-0.7972691655,-7.335834026,2.085349798,7.668036435
51.65411963,-1.513135433,-6.543353081,1.982398987,7.002496278
51.65912394,-2.157175779,-5.882553577,1.900996208,6.547643127
51.66412948,-2.669534922,-5.204994678,1.841141105,6.132551416
51.66913401,-2.817975283,-4.75488472,1.714248419,5.786930191
51.67410909,-2.968810081,-4.410119534,1.462857246,5.513886009
51.67911371,-3.138798475,-4.072536945,1.108515382,5.259887774
51.68411771,-3.179499865,-3.852270603,0.7924807668,5.057393988
51.68867655,-3.124433279,-3.79480958,0.5291185975,4.943948781
51.6940974,-3.007117271,-3.75650239,0.2082955539,4.816373275
51.69913255,-2.844311714,-3.770867586,-0.07422025502,4.723881892
51.70410671,-2.619256735,-3.837905407,-0.2059013397,4.651066449
51.70911255,-2.439691544,-3.852270603,-0.1197100878,4.561404842
51.71411678,-2.329558372,-3.883395195,0.04070143029,4.528714725
51.71867625,-2.243366957,-3.859453201,0.1675941199,4.467232041
51.72409717,-2.092532396,-3.804386616,0.3016694188,4.352361863
51.72913163,-2.042253971,-3.766079187,0.356736064,4.299001552
51.73410578,-2.015917778,-3.751713991,0.4309563041,4.280771624
51.73911071,-2.087743998,-3.701435804,0.5746083856,4.288295327
51.74411563,-2.202665567,-3.658340216,0.7805097699,4.341011891
51.74912171,-2.434903145,-3.581725836,0.9074024558,4.425030226
51.75412517,-2.698265314,-3.49553442,0.9792284966,4.523083576
51.75913186,-2.93529129,-3.390189648,1.00556469,4.595702465
51.76413501,-2.968810081,-3.323152065,1.017535686,4.570837103
51.7691094,-2.920926094,-3.277662039,1.007958889,4.50453758
51.77411432,-2.755726099,-3.191470861,0.9145850539,4.314623786
51.77911955,-2.468421936,-3.143586874,0.8475474119,4.085778005
51.78412478,-2.288856745,-3.098097086,0.7565677166,3.9254892
51.78912886,-2.152387381,-3.08373189,0.5793967843,3.804980215
51.79368724,-2.114080191,-3.057395458,0.3950432837,3.73805581
51.79910978,-2.202665567,-3.031059265,0.0718260482,3.747561187
51.80411463,-2.30561614,-2.954444885,-0.2202665508,3.754081475
51.80911871,-2.422932148,-2.885013103,-0.5841852427,3.812502223
51.81412417,-2.506729126,-2.86107111,-1.079784989,3.954156602
51.81912732,-2.576161146,-2.8969841,-1.786074519,4.268393763
51.82413255,-2.561795712,-2.992752075,-2.557007313,4.696557106
51.82910701,-2.403778553,-3.179499865,-3.349488258,5.206384764
51.83411217,-2.061407566,-3.354276657,-4.185064793,5.745897699
51.8391174,-1.546654344,-3.785232782,-5.245696068,6.651124274
51.84412178,-1.144428372,-4.206612587,-6.382941723,7.729634583
51.84912694,-0.9289502501,-4.817133904,-7.462726593,8.93084631
51.85413125,-0.806845963,-5.61919117,-8.262390137,10.02463967
51.85910663,-0.8714894056,-6.95276165,-9.057265282,11.45139479
51.8641104,-1.108515382,-8.343792915,-9.629479408,12.78962706
51.86866763,-1.517923832,-9.945513725,-9.782708168,14.03277289
51.87367371,-2.085349798,-11.57596493,-9.136273384,14.89372818
51.87912725,-2.832340717,-13.63258457,-7.99663353,16.05663925
51.88413063,-2.868253708,-15.38992882,-7.714118004,17.45234669
51.88913494,-2.729389906,-17.7649765,-8.281543732,19.78959135
51.8941094,-3.179499865,-20.54224968,-9.421183586,22.82218091
51.89911401,-3.327940464,-23.90610313,-13.16332054,27.49272563
51.90367186,-3.648763418,-26.03694344,-19.72103882,32.86571572
51.9091254,-2.624045134,-27.21489143,-23.05376816,35.76327942
51.91412909,-1.074996591,-26.55648613,-21.70822716,34.31690108
51.91868671,-0.2106897533,-24.08806419,-19.06263351,30.71910193
51.92410817,-0.06224924326,-18.76575279,-16.07227516,24.70780002
51.92911309,0.2968810201,-13.69004536,-14.24071217,19.75609686
51.93411748,1.261744261,-9.162610054,-13.29021358,16.19182506
51.93867586,2.41335535,-5.506663799,-12.11705494,13.52666443
51.94409709,2.980781078,-2.257732153,-10.36210537,11.0161535
51.94868486,2.035071373,-0.3016694188,-8.911218643,9.145618494
51.95410701,1.618480325,0.4548983276,-6.615179062,6.825467388
51.95911348,0.04070143029,-0.1316810995,-3.881000996,3.883447598
51.96411709,-1.323993564,-1.391031146,-2.015917778,2.784214628
51.96912171,-2.23139596,-3.110068083,-0.7948749661,3.909408858
51.97412671,-3.813963413,-4.697423935,0.05746084079,6.051066872
51.97913132,-5.042188644,-6.58405447,0.8236053586,8.333772578
51.98410632,-5.990292549,-8.178592682,1.805228114,10.29717591
51.98911132,-6.481103897,-9.96466732,3.189076662,12.30729509
51.99366794,-6.39251852,-11.93988419,4.039018154,14.13289762
51.99912109,-6.179434776,-14.68603325,3.308786631,16.27307763
52.00412602,-5.698200226,-17.03953362,0.9337386489,17.99130511
52.00913063,-4.599261284,-19.32839012,-2.932897091,20.0833701
52.01413502,-1.958456993,-22.00031853,-8.724471092,23.7479676
52.01866148,-0.3543418646,-23.12319946,-10.79066753,25.51953012
52.02411348,2.456450939,-22.57492828,-10.96304989,25.21606633
52.02911986,3.193865061,-20.01791954,-8.420407295,21.9504245
52.03412417,1.240196466,-15.5647049,-5.406107426,16.52344163
52.03913032,-1.070208192,-11.87045193,-3.117250681,12.31950593
52.04413494,-3.08373189,-8.142680168,1.012747288,8.765745819
52.04866202,-4.94402647,-5.190629482,4.814739704,8.635262045
52.05366632,-6.900089264,-3.349488258,6.179434776,9.84965571
52.05867094,-8.880094528,-2.183511972,5.547365189,10.69565631
52.06367617,-10.62307262,-1.161187768,2.45166254,10.96397183
52.06865032,-11.39640045,-0.6344634295,-0.6033388376,11.42998271
52.07365532,-10.9151659,-0.6464344859,-0.8786720037,10.96953913
52.07910732,-8.951920509,-1.462857246,1.292868972,9.162332798
52.08366425,-6.91445446,-2.499546528,2.185906172,7.670436697
52.08866971,-4.340687752,-4.041412354,2.303221941,6.362343537
52.09412232,-0.8834604025,-6.521805286,3.883395195,7.641675518
52.09912578,1.498770237,-8.628703117,6.859387875,11.12438905
52.10413194,2.880224705,-10.40280628,10.01733971,14.72620683
52.10910548,3.859453201,-11.83453941,11.73398209,17.10666647
52.11411155,4.321534157,-13.03403378,12.06438255,18.27870401
52.11866948,4.261679173,-13.69243908,10.92713642,18.02906286
52.12412078,4.359841347,-14.1856451,8.724471092,17.21502656
52.12867802,4.438849926,-14.52083302,5.734113216,16.2307743
52.13409963,4.967968464,-15.06431675,1.630451322,15.94593118
52.13913471,5.513846397,-15.29894924,-1.956062794,16.37945456
52.14366202,5.777208805,-15.34683323,-4.94402647,17.12731238
52.14911494,5.16189909,-15.03319263,-6.967126846,17.354623
52.15411963,3.56496644,-14.1952219,-7.663839817,16.52113045
52.15912425,2.128445387,-13.23993587,-6.955155849,15.10630248
52.16412917,0.7302315235,-12.14339066,-6.090848923,13.60491144
52.16913348,-0.4788403511,-11.11627865,-4.886565685,12.15234394
52.17410786,-1.929726601,-9.87608242,-3.306392431,10.59212347
52.17911286,-3.086126089,-8.978256226,-2.506729126,9.819213309
52.18411809,-4.12999773,-8.339004517,-2.243366957,9.572281488
52.18912355,-5.128379822,-7.706935406,-1.723825216,9.416406232
52.19412732,-5.544970989,-7.017405033,-0.6607996821,8.968128728
52.19913409,-6.287173748,-6.473921299,-0.1388636976,9.025491336
52.20410817,-6.789956093,-6.196194172,0.0,9.192188312
52.20911186,-6.797138691,-6.145915985,-0.06703764945,9.163944114
52.21411655,-6.299144745,-6.325480938,-0.1628057212,8.928462315
52.21912086,-5.564124584,-6.663063526,-0.2035071403,8.683162621
52.22412755,-4.647145271,-7.082048416,-0.2418143749,8.474068865
52.22913155,-3.308786631,-7.630321026,-0.248996973,8.320568936
52.23410632,-2.279279947,-7.92001915,-0.4070142806,8.251513863
52.23911071,-1.326387763,-8.152256966,-0.4716577232,8.272911165
52.24411617,-0.55784899,-8.413225174,-0.349553436,8.438941932
52.24911994,-0.05746084079,-8.710105896,-0.215478152,8.712960306
52.2541254,0.2561795712,-8.880094528,-0.2130839527,8.886344106
52.25913071,0.5770025849,-8.932766914,-0.3256114423,8.95730314
52.26413625,0.8355764151,-8.961497307,-0.4836287498,9.013352245
52.26910948,1.067813993,-8.999804497,-0.739808321,9.09307561
52.27411494,1.120486379,-9.033323288,-0.921767652,9.149102412
52.27912178,1.223437071,-9.076418877,-1.024718285,9.215651114
52.28412486,1.11569798,-9.126696587,-1.084573388,9.258383876
52.28912878,0.9768342972,-9.17697525,-1.074996591,9.291216156
52.2941344,0.8714894056,-9.248801231,-1.067813993,9.350938173
52.29910848,0.6631938815,-9.337387085,-1.103726983,9.42575392
52.30411379,0.2992752194,-9.334992409,-1.122880578,9.407045749
52.30911802,-0.1651999205,-9.25358963,-1.15400517,9.326732546
52.31412302,-0.5770025849,-9.119514465,-1.268926859,9.225435027
52.31912755,-0.8714894056,-8.923190117,-1.319205165,9.062180638
52.32413255,-1.098938584,-8.714894295,-1.292868972,8.878544856
52.32910694,-1.33835876,-8.528146744,-1.103726983,8.702798648
52.33411217,-1.515529633,-8.415618896,-0.7613561153,8.58482001
52.33911655,-1.654393315,-8.312667847,-0.3758896589,8.484029527
52.34412202,-1.728613615,-8.24802494,-0.1915361285,8.429395384
52.34912663,-1.67115283,-8.276755333,-0.05985504389,8.443992731
52.35413186,-1.572990537,-8.169015884,0.1963245422,8.321397904
52.35910909,-1.371877551,-8.106766701,0.3016694188,8.227558495
52.36411163,-1.192312479,-8.180987358,0.248996973,8.271164531
52.36866886,-0.9528923035,-8.312667847,0.1221042871,8.367996172
52.37412017,-0.6895300746,-8.571242332,-0.181959331,8.600857867
52.37912455,-0.4860229492,-8.829815865,-0.4884171486,8.856659518
52.38413063,-0.282515794,-9.107542992,-0.7661445141,9.14407633
52.38913463,-0.1436520964,-9.409213066,-1.027112484,9.466197045
52.39410971,0.05746084079,-9.684545517,-1.297657371,9.77126595
52.39911502,0.2657563984,-9.962273598,-1.699883223,10.10975394
52.4041184,0.4501099288,-10.27591324,-2.284068346,10.53631625
52.40912355,0.5003881454,-10.54645824,-3.181894064,11.02735778
52.41368178,0.5051765442,-10.7188406,-3.914519787,11.42244336
52.41865648,0.4644751251,-10.79306126,-4.50109911,11.70323894
52.42366178,0.383072257,-10.77390766,-4.838681698,11.81679615
52.4291134,0.3184288144,-10.67335129,-4.896142483,11.74708627
52.43411771,0.2561795712,-10.55603504,-4.661510944,11.54232161
52.43912455,0.2202665508,-10.42195988,-4.261679173,11.26177936
52.44412763,0.107739076,-10.24957752,-3.572149038,10.85475453
52.44913255,0.07422025502,-10.10831928,-2.928108692,10.52413644
52.45410725,0.107739076,-9.981427193,-2.348711967,10.25460601
52.45911217,0.3088520169,-10.01733971,-2.018311977,10.22331001
52.46411709,0.8978256583,-10.06761837,-1.874659896,10.2799504
52.46912148,1.59693253,-10.07958889,-1.879448295,10.37692785
52.47412725,2.470816135,-10.11550236,-1.889025092,10.58285104
52.47913194,3.555389643,-10.18972206,-1.900996208,10.95833098
52.4841064,4.874594688,-10.3166151,-1.757344007,11.5448031
52.48911102,5.810727596,-10.45547867,-1.426944256,12.04648327
52.49411532,6.579266071,-10.66856289,-0.9504981041,12.57014013
52.49867371,7.108384609,-11.04205799,-0.5746083856,13.14482222
52.50412486,7.252037048,-11.62384892,-0.1292868853,13.70119046
52.50913063,6.823474884,-12.00931549,0.1101332754,13.81287795
52.51368794,6.10281992,-12.31337929,0.09337386489,13.74308696
52.51911071,5.207388878,-12.49773312,-0.06943184882,13.53938894
52.52366702,4.12999773,-12.65575027,-0.356736064,13.31736299
52.52911955,2.868253708,-13.02445698,-1.034295082,13.3765887
52.53367648,1.728613615,-13.38598156,-1.553836942,13.58628045
52.53909894,0.2418143749,-13.66849709,-2.097320795,13.83058355
52.54413471,-1.738190413,-13.75229454,-2.78924489,14.13954731
52.54910855,-3.222595453,-13.57272911,-3.34469986,14.34542136
52.55411371,-4.431667328,-13.31415558,-3.849876404,14.55087497
52.55867063,-5.111620426,-13.2183876,-4.515464306,14.87426812
52.56412325,-5.204994678,-13.24472427,-4.903325081,15.05182007
52.56868086,-4.618414879,-13.41471195,-4.778826714,14.97068594
52.57365471,-3.835511208,-13.6110363,-4.050989151,14.70992755
52.57910725,-3.021482468,-13.9007349,-3.059789658,14.55067352
52.58366417,-2.003946781,-14.24550056,-2.015917778,14.5263214
52.58911678,-0.8714894056,-14.65730286,-1.146822572,14.72790626
52.59412148,-0.2346317619,-14.90390587,-0.9935936928,14.93883164
52.59912886,0.06224924326,-14.93502998,-0.9959878922,14.96833282
52.60413279,-0.2011129409,-14.64533138,-1.278503656,14.70240624
52.60910602,-0.7900865674,-14.38196945,-1.661576033,14.49917643
52.61411125,-1.453280449,-14.20719242,-1.89620769,14.40666319
52.61911586,-2.08295536,-14.10903072,-1.563413739,14.34739396
52.62412109,-2.786850691,-13.99650288,-0.3974374831,14.27678487
52.62912486,-3.394978046,-13.93425369,0.720654726,14.35996675
52.6341294,-4.115632534,-13.96059036,1.371877551,14.61911634
52.63913563,-4.967968464,-13.95101357,1.836352706,14.92258963
52.64411002,-5.585672379,-13.76426601,2.147598982,15.00889524
52.64911348,-6.31829834,-13.65413189,2.26970315,15.21537919
52.65411925,-7.012616634,-13.55118179,2.396595955,15.44522555
52.65912456,-7.659051418,-13.5320282,2.331952572,15.72306772
52.66368263,-7.869740963,-13.70201588,2.039859772,15.93232845
52.66865586,-8.044517517,-14.13776112,1.007958889,16.29743945
52.67410825,-7.797914982,-14.64772606,-0.3543418646,16.59785875
52.67911471,-6.924031258,-15.22472858,-1.972822189,16.8412172
52.68411809,-6.047753334,-15.48569679,-2.621650934,16.83018655
52.68867563,-5.123591423,-15.4473896,-2.370259762,16.44661564
52.69365125,-4.158728123,-15.19360352,-2.08295536,15.88959755
52.69910202,-3.787626982,-14.45140171,-2.23139596,15.1052394
52.70410694,-3.138798475,-14.01326275,-1.644816518,14.45437685
52.70911163,-1.989581585,-13.87200451,-1.491587639,14.093111
52.71411748,-1.762132406,-13.42428875,-1.831564307,13.66276937
52.71912109,-0.9193734527,-13.03642845,-0.4357447028,13.07606928
52.72412702,1.213860273,-13.05558205,0.7829039693,13.13524335
52.72913156,1.697489023,-13.05318737,-0.181959331,13.16435637
52.73410663,1.716642618,-12.78743172,-0.7541735172,12.92416533
52.73911125,2.061407566,-12.52885723,-0.7829039693,12.72142301
52.74411586,2.408566952,-12.38281155,-0.5003881454,12.62480118
52.74912017,2.774879694,-12.09550667,-0.181959331,12.41105749
52.75412602,2.521094322,-11.54962921,-0.5267243981,11.83331273
52.75913156,2.315192938,-10.89361763,-0.1963245422,11.13865193
52.76413502,1.946485996,-10.35492229,0.2011129409,10.5382005
52.76910909,1.26653266,-9.684545517,0.5363011956,9.781725094
52.7741144,0.6895300746,-9.17697525,1.118092179,9.270515444
52.77911871,0.2418143749,-8.518569946,1.690306425,8.688017261
52.78412425,-0.1436520964,-7.821856976,1.960851192,8.06517327
52.7891294,-0.5434837937,-7.12993288,2.090138197,7.44983189
52.79413409,-1.043871999,-6.449979305,2.114080191,6.867403937
52.79910879,-1.649604917,-5.746084213,2.133233786,6.347390531
52.80411348,-1.941697598,-5.262455463,2.092532396,5.986845488
52.80911894,-2.099714994,-4.781220913,2.001552582,5.592413541
52.81412325,-2.288856745,-4.393360138,1.742978811,5.251519174
52.81912725,-2.49236393,-4.031835556,1.405396342,4.943957402
52.82413309,-2.523488522,-3.871424198,1.094150186,4.749008767
52.82910663,-2.552218914,-3.806780815,0.8044517636,4.653229438
52.83366448,-2.612074137,-3.758896589,0.6033388376,4.616952742
52.83911779,-2.573766708,-3.813963413,0.3471592367,4.614229245
52.84412109,-2.554613113,-3.926490784,0.2394201756,4.690490385
52.84912702,-2.652775526,-4.046200752,0.05506663769,4.838593892
52.85413225,-2.717418909,-4.206612587,-0.07661445439,5.008575123
52.85910548,-2.777273893,-4.362235546,-0.08858546615,5.172059225
52.86409662,-2.882618904,-4.472368717,0.0023942017,5.320862658
52.86865539,-2.908955097,-4.568136692,0.09337386489,5.416512833
52.87410647,-2.964021683,-4.618414879,0.2202665508,5.492148749
52.8791127,-2.990357876,-4.661510944,0.3399766386,5.548649261
52.8841167,-2.995146275,-4.606443882,0.4357447028,5.511814573
52.88912185,-3.01190567,-4.525041103,0.5195417404,5.460539934
52.89409608,-3.100491285,-4.369418144,0.5841852427,5.389446495
52.89910062,-3.155557871,-4.331110954,0.605733037,5.392863811
52.90410593,-3.098097086,-4.244919777,0.6320692301,5.293114488
52.90911146,-3.028665066,-4.139574528,0.6631938815,5.171916035
52.91411577,-2.889801502,-4.039018154,0.6488286853,5.008552589
52.91912185,-2.695871115,-3.969586372,0.5841852427,4.833902092
52.92409477,-2.506729126,-3.993528366,0.4788403511,4.73932989
52.92865262,-2.327163935,-4.041412354,0.3136404157,4.67408559
52.934105,-2.087743998,-4.077325344,0.1699883193,4.583901503
52.93911023,-1.915361404,-4.177882195,-0.01675941236,4.596040668
52.94411477,-1.78128612,-4.218583584,-0.215478152,4.584305676
52.94911916,-1.714248419,-4.280832767,-0.4644751251,4.634642809
52.95409385,-1.704671621,-4.314351559,-0.8475474119,4.715704754
52.95909823,-1.793257117,-4.355052948,-1.218648672,4.864911289
52.96410285,-1.946485996,-4.398148537,-1.742978811,5.115710451
52.96910893,-2.188300371,-4.42448473,-2.466027737,5.517790902
52.97411331,-2.45405674,-4.42448473,-3.591302633,6.204507572
52.97911816,-2.33913517,-4.46279192,-4.247313976,6.589972767
52.98409262,-2.099714994,-4.510675907,-5.027823448,7.07347219
52.98909762,-1.865083098,-4.666299343,-5.865794182,7.724016177
52.99410216,-1.692700624,-4.845864296,-7.259219646,8.890663983
52.9991087,-1.644816518,-5.195417881,-8.58081913,10.16505019
53.00411239,-1.649604917,-5.793968201,-9.722852707,11.4378813
53.00911731,-1.482010841,-6.730101109,-10.82179165,12.82972297
53.01412162,-1.407790542,-8.319850922,-12.10987186,14.75976931
53.019097,-1.484405041,-9.921571732,-12.33732128,15.9012748
53.02410093,-0.8906430602,-11.60469532,-11.96861458,16.69460792
53.02865854,-0.3950432837,-13.48174953,-11.99973869,18.05290443
53.03366339,-0.4740519226,-15.93341255,-11.15937424,19.45841705
53.03863854,-0.9983820915,-19.58696365,-10.56561184,22.27729933
53.04409085,-1.355118155,-22.77125168,-11.69806957,25.63612841
53.04909477,-2.195482969,-25.68260193,-14.97094345,29.80847757
53.05410039,-2.434903145,-27.81583595,-17.92538834,33.18085337
53.05910439,-1.350329757,-27.6338768,-17.39626884,32.68156525
53.06410923,-1.477222443,-25.5126133,-15.86876869,30.08144683
53.06911485,-2.71263051,-22.06735802,-13.97974396,26.26328036
53.07411885,-3.124433279,-16.68997955,-13.09388924,21.44218823
53.07909577,-2.923320293,-11.82256794,-12.56237602,17.49663412
53.08409916,-2.025494576,-7.199364662,-11.97340298,14.11721852
53.0891037,-0.605733037,-3.402160645,-10.58716011,11.13685632
53.09410831,-0.2944868207,0.04788403213,-9.191340446,9.196181521
53.09866616,0.181959331,1.563413739,-7.24485445,7.413857816
53.10408777,0.5123591423,1.757344007,-5.171475887,5.485884861
53.10909231,-0.6368576288,0.8643068075,-2.695871115,2.901781343
53.11365016,-1.850717902,-0.2035071403,-1.52510643,2.406765783
53.11865508,-3.459621429,-2.365471363,0.282515794,4.200505967
53.12410716,-4.455609322,-4.288015366,1.678335428,6.407522143
53.12866431,-5.317522049,-6.325480938,3.162740469,8.848201914
53.13408654,-6.311115742,-9.064447403,5.58088398,12.3750012
53.13912224,-7.050923824,-11.43949604,6.758831501,15.04192141
53.14409631,-7.374141216,-14.01086807,6.703764915,17.19368625
53.14910062,-7.426813602,-17.11614799,4.244919777,19.13477009
53.15365885,-7.022193432,-18.8064537,1.422155857,20.12501997
53.15911393,-5.123591423,-21.71062088,-4.924872875,22.84418134
53.16411577,-2.396595955,-24.049757,-10.19211674,26.23001578
53.16912031,2.027888775,-25.16784859,-13.56075859,28.6605497
53.17409477,4.821922302,-22.77843475,-12.50970364,26.43105578
53.17909939,4.472368717,-18.76575279,-9.569623947,21.53446684
53.184104,2.844311714,-14.49689102,-6.320692539,16.06863755
53.18910862,0.6200982332,-9.162610054,0.1723825186,9.185187018
53.19411385,-1.163581967,-5.377377033,5.882553577,8.054473499
53.19911947,-3.620033026,-2.71263051,8.662221909,9.772261345
53.20409362,-6.177040577,-1.209071875,8.24802494,10.37533616
53.20909847,-8.829815865,-0.5051765442,5.477933407,10.40329784
53.2141037,-9.792284966,-0.3016694188,2.264914751,10.05533133
53.21910831,-9.909601212,-0.3926490843,-0.1221042871,9.918128802
53.22411385,-9.43315506,-0.8499416113,0.02633621916,9.471404791
53.22911793,-7.618350029,-2.018311977,1.283292055,7.984965805
53.2340927,-5.413290024,-3.569754839,1.872265697,6.749239759
53.23909939,-3.277662039,-5.556941986,2.827552319,7.043985008
53.24410347,-1.474828243,-7.637503624,4.57771349,9.025632429
53.24910677,0.6751648784,-10.14662647,7.975085735,12.9233072
53.25411208,1.843535304,-11.72919369,9.691728592,15.32651983
53.25911793,2.466027737,-12.92150688,9.481039047,16.21532406
53.26412193,3.076549292,-13.86721611,7.520187378,16.07227602
53.26909639,3.445256233,-14.60941887,5.87297678,16.11821226
53.27410124,4.125209332,-15.11698914,4.103661537,16.19817121
53.27910616,4.838681698,-15.452178,1.951274395,16.30920345
53.28411147,5.528211594,-15.60780048,-0.8978256583,16.582239
53.2891157,5.602431774,-15.48569679,-3.244143248,16.78447236
53.29412039,4.970362663,-15.01164436,-5.011064053,16.58809014
53.29909539,3.909731388,-14.1856451,-5.827486992,15.82650091
53.30409939,2.554613113,-12.81616211,-5.64313364,14.23464143
53.30910562,1.33835876,-11.71722317,-5.269638062,12.91718267
53.314109,0.2561795712,-10.66856289,-4.592078686,11.61770411
53.31866862,-0.7015010715,-9.792284966,-3.952826977,10.58327878
53.32364162,-1.814804912,-8.880094528,-2.762908697,9.475402903
53.32909454,-2.834734917,-7.905653954,-1.458068848,8.524145191
53.33409847,-3.653551817,-7.354987621,-0.4333505034,8.223872351
53.3391037,-4.766855717,-6.794744492,-0.4285621047,8.311145024
53.34410808,-5.652710438,-6.406883717,-0.988805294,8.601106334
53.34911424,-5.822698593,-6.198588371,-0.8188169599,8.543815185
53.35366993,-5.556941986,-6.148310184,-0.1388636976,8.28858284
53.358645,-5.006275654,-6.272808552,0.2418143749,8.029283732
53.36364962,-4.285621166,-6.619967937,0.3303998411,7.893015161
53.36910285,-3.330334663,-7.072471619,0.2226607651,7.820521823
53.37366093,-2.60010314,-7.371747017,-0.0359130241,7.816935471
53.37863485,-1.881842494,-7.740454197,-0.3375824392,7.973074956
53.38408593,-1.039083481,-8.113949776,-0.4453215301,8.192324866
53.38912162,-0.5746083856,-8.35097599,-0.5099649429,8.386241055
53.39364962,-0.215478152,-8.590395927,-0.6440402865,8.617199134
53.3986557,0.1292868853,-8.793902397,-0.7661445141,8.828160164
53.40365916,0.4094084799,-8.997409821,-0.7541735172,9.038239678
53.40911047,0.7230489254,-9.239224434,-0.7134721279,9.294897007
53.41411508,0.806845963,-9.428366661,-0.7685387731,9.493984946
53.41912093,0.8164227605,-9.504981041,-0.8882488012,9.581241916
53.42409485,0.7733271718,-9.543288231,-1.00317049,9.626979599
53.42865208,0.6177040339,-9.562441826,-1.101332784,9.645454155
53.43365793,0.3591302633,-9.490615845,-1.098938584,9.560775579
53.43910954,0.07661445439,-9.43315506,-1.199495077,9.509420203
53.44366739,-0.2442085743,-9.332598686,-1.297657371,9.425547767
53.44908962,-0.672770679,-9.15063858,-1.431732655,9.286369862
53.45409385,-1.118092179,-8.923190117,-1.314416766,9.088517119
53.45909847,-1.56101954,-8.724471092,-1.221042871,8.946738151
53.46410408,-1.793257117,-8.497021675,-1.142034173,8.758960583
53.46910924,-2.006340981,-8.331821442,-0.9840168953,8.626293637
53.47411301,-2.145204782,-8.171410561,-0.8236053586,8.488355547
53.47911939,-2.121262789,-8.106766701,-0.5650315881,8.398731026
53.48409177,-2.025494576,-8.142680168,-0.3591302633,8.398502434
53.48864954,-1.869871497,-8.252813339,-0.1651999205,8.463606704
53.49410247,-1.666364431,-8.319850922,-0.0287304204,8.485134956
53.49866001,-1.44849205,-8.310274124,0.04548983276,8.435689335
53.50411231,-1.213860273,-8.420407295,-0.05506663769,8.507628819
53.5091167,-1.010353088,-8.549694061,-0.1197100878,8.610018142
53.51367447,-0.8283938169,-8.647856712,-0.07661445439,8.687780603
53.51909639,-0.5698199868,-8.882488251,-0.06943184882,8.901017533
53.52410101,-0.3950432837,-9.133879662,-0.1651999205,9.143910973
53.52910616,-0.1723825186,-9.370905876,-0.3208230138,9.377980597
53.53366339,0.01197100803,-9.56004715,-0.5770025849,9.577451477
53.5390847,0.2059013397,-9.794678688,-1.185129881,9.868265238
53.54412131,0.3615244627,-10.05325317,-1.889025092,10.23557595
53.54909577,0.5506663918,-10.30224991,-2.755726099,10.67865221
53.55409916,0.6272808313,-10.48420906,-3.615244627,11.1077502
53.55910716,0.7062895298,-10.59913063,-4.443638325,11.51461404
53.56410954,0.7278373241,-10.69729328,-4.960785866,11.81402671
53.56911508,0.7637503147,-10.7284174,-5.245696068,11.96660276
53.57411947,0.6967126727,-10.7044754,-5.288791656,11.96003844
53.57909416,0.5339069963,-10.69011021,-5.094861031,11.85416053
53.58409816,0.4070142806,-10.58237171,-4.695029736,11.58428055
53.58910431,0.2920926213,-10.52491093,-3.952826977,11.24650653
53.59410839,0.4165911078,-10.46984386,-3.043030262,10.91105915
53.59911362,0.9002198577,-10.45787334,-1.963245392,10.67856934
53.60367147,1.419761658,-10.43632507,-1.359906554,10.61988465
53.60864462,2.104503393,-10.3405571,-0.9768342972,10.59765356
53.61365016,2.810792685,-10.18493366,-0.8906430602,10.60314455
53.61865547,3.524264812,-10.07719517,-0.9935936928,10.72182509
53.62410739,4.264073372,-10.01973438,-1.268926859,10.96300936
53.62911177,4.728548527,-10.11071396,-1.465251446,11.25756056
53.63366931,5.070919037,-10.3453455,-1.59932673,11.63177714
53.63909262,5.188235283,-10.77390766,-1.484405041,12.04982697
53.64364985,5.02064085,-11.13064384,-1.345541358,12.28448405
53.6486527,4.71657753,-11.44667816,-1.194706678,12.43784019
53.65410585,4.060565948,-11.70764637,-1.106121182,12.44108851
53.6586637,3.600879431,-11.9566431,-1.146822572,12.53965107
53.66363754,2.722207308,-12.25352383,-1.333570361,12.62290255
53.66909054,1.951274395,-12.5599823,-1.711854219,12.82540728
53.67409508,1.00556469,-12.9574194,-2.348711967,13.20690447
53.67909977,-0.05985504389,-13.14895535,-2.844311714,13.45320476
53.68365731,-1.216254473,-13.14177322,-3.426102638,13.63538257
53.68910954,-2.159569979,-13.00051498,-4.010287762,13.7753236
53.69411447,-2.892195702,-12.86643982,-4.503493309,13.93526181
53.69911939,-2.940079689,-12.92150688,-4.551377296,14.01158249
53.70409362,-2.578555346,-13.06515884,-4.072536945,13.92597862
53.70909908,-2.00873518,-13.29500198,-3.184288263,13.81780686
53.71365577,-1.273715258,-13.54399872,-2.126051188,13.7688905
53.71911016,-0.3639186621,-13.97016716,-1.15400517,14.02247251
53.72411416,0.2322375625,-14.32450867,-0.739808321,14.3454801
53.72911847,0.6105214357,-14.62617779,-0.7278373241,14.65699697
53.73409262,0.8571242094,-14.7889843,-0.9265560508,14.8427499
53.73909724,0.5339069963,-14.66448498,-1.230619669,14.72571224
53.74365539,-0.2513911724,-14.41548824,-1.647210717,14.51147139
53.74865916,-1.261744261,-14.27183628,-2.090138197,14.47915699
53.75411178,-2.296039343,-14.35802746,-2.049436569,14.68417309
53.7591167,-3.114856482,-14.46816063,-1.280897856,14.85498914
53.76412308,-3.706224203,-14.51843929,-0.2633621991,14.98634502
53.76909608,-4.098873138,-14.66448498,0.55784899,15.23676725
53.77410124,-4.970362663,-14.75067711,1.268926859,15.61720703
53.77910593,-5.786785603,-14.68842697,1.826775908,15.89257326
53.78411085,-6.715735912,-14.63575459,2.406172752,16.28177166
53.78911608,-7.472303391,-14.59984207,2.880224705,16.65191883
53.794121,-8.494627953,-14.75546551,2.925714493,17.27548181
53.7990967,-9.198522568,-14.92305946,2.422932148,17.69692407
53.80365324,-9.490615845,-15.13614273,1.369483352,17.9178707
53.80865824,-9.658209801,-15.50245571,-0.0191536136,18.26492586
53.81366224,-9.220070839,-15.92622948,-1.556231141,18.46825241
53.81908347,-8.149862289,-16.08903503,-2.944868088,18.27428663
53.82411947,-7.280767441,-15.91665268,-3.236960649,17.79964385
53.82909416,-6.160281181,-15.43302441,-2.52827692,16.80831612
53.83409847,-5.037400246,-14.64772606,-1.8579005,15.60073954
53.83910308,-4.381389141,-13.89834118,-2.078166962,14.72002841
53.84410808,-4.180276394,-12.98614979,-2.434903145,13.85797786
53.84911301,-2.296039343,-12.82095051,-1.594538331,13.12216145
53.85411885,-1.493981838,-12.5408287,-1.872265697,12.76752698
53.8590917,-0.9672574997,-12.24634171,-0.9026140571,12.31759653
53.86412708,0.6655880809,-12.31098557,1.197100878,12.38694569
53.86911516,2.262520552,-12.5695591,0.3926490843,12.77759713
53.87410893,2.53067112,-12.41154194,-0.383072257,12.6727035
53.87911454,2.940079689,-12.24873543,-0.7972691655,12.6218551
53.88411724,3.447650433,-12.17212105,-0.8355764151,12.67852563
53.88912308,3.945644379,-12.10029507,-0.2442085743,12.72968531
53.89409608,4.249708176,-11.92551899,0.1005564705,12.66049503
53.89910162,3.706224203,-11.54723454,0.08140286058,12.12770999
53.90410593,2.863465309,-10.80503273,0.05027823523,11.17813463
53.90911262,1.996764183,-10.0460701,0.4548983276,10.25268375
53.9141157,1.074996591,-9.155426979,1.168370485,9.292069222
53.9191207,0.4453215301,-8.329427719,1.491587639,8.473636237
53.92409601,0.08379705995,-7.565677166,1.731007814,7.761628758
53.92910154,-0.248996973,-6.842628479,1.886630893,7.102319348
53.93410562,-1.027112484,-6.002263546,1.877054095,6.372241349
53.93911024,-2.006340981,-5.106832027,1.826775908,5.782927261
53.94411454,-2.477998734,-4.458003521,1.690306425,5.373212161
53.94912031,-2.827552319,-3.924096584,1.565807939,5.083831293
53.95364616,-2.956839085,-3.41892004,1.52510643,4.770520017
53.95910131,-3.098097086,-3.031059265,1.414973259,4.559350299
53.96410501,-3.028665066,-2.882618904,1.168370485,4.341358476
53.96910985,-2.932897091,-2.810792685,0.8690952063,4.154246904
53.97411324,-2.710236311,-2.786850691,0.6368576288,3.939226482
53.97867139,-2.561795712,-2.817975283,0.3854664862,3.827840955
53.98409293,-2.250549555,-3.066972494,-0.08619125932,3.805091656
53.98909701,-2.013523579,-3.359065056,-0.3351882398,3.930641984
53.99365478,-1.924938202,-3.569754839,-0.3519476354,4.070921742
53.9986607,-1.915361404,-3.785232782,-0.3375824392,4.255650177
54.00411239,-1.951274395,-3.995922565,-0.1436520964,4.449213957
54.00911793,-1.963245392,-4.220977783,0.08858546615,4.656053404
54.01412185,-1.977610588,-4.362235546,0.2418143749,4.795676885
54.01909547,-2.08295536,-4.352658749,0.3663128614,4.839269194
54.02410101,-2.327163935,-4.261679173,0.4644751251,4.877841581
54.02865878,-2.52827692,-4.151545525,0.538695395,4.890573295
54.03411139,-2.767697096,-4.029441357,0.6200982332,4.927582235
54.03867054,-2.911349297,-3.924096584,0.6775590777,4.932907361
54.04364254,-2.889801502,-3.813963413,0.6991068721,4.835909434
54.04909578,-2.779668093,-3.689464808,0.6679822803,4.667430299
54.05409939,-2.624045134,-3.655946016,0.5937620401,4.53917476
54.0591047,-2.418143749,-3.588908434,0.4884171486,4.355024024
54.06411078,-2.15478158,-3.600879431,0.3998316824,4.215362583
54.06911485,-1.948880196,-3.620033026,0.2944868207,4.121831585
54.0741197,-1.723825216,-3.742137194,0.05506663769,4.120460713
54.07909331,-1.630451322,-3.823540211,-0.1604115069,4.159755174
54.08409885,-1.654393315,-3.854664803,-0.4189853072,4.215567182
54.08910462,-1.762132406,-3.869029999,-0.7422025204,4.315711799
54.09410862,-1.936909199,-3.849876404,-1.247379065,4.486548796
54.09911324,-2.109291792,-3.90254879,-1.836352706,4.801165502
54.10411785,-2.312798738,-3.967192173,-2.71263051,5.333480667
54.10909455,-2.588132143,-4.050989151,-3.730166197,6.084659477
54.11409793,-2.518700123,-4.197035789,-4.556165695,6.687122368
54.11910524,-2.025494576,-4.472368717,-5.75805521,7.567027819
54.12410716,-1.70946002,-4.848258495,-6.744466305,8.480311889
54.12911331,-1.63523972,-5.35343504,-8.078036308,9.82791668
54.13411731,-1.89620769,-5.894524574,-9.33020401,11.1979342
54.13912193,-2.506729126,-6.900089264,-10.6446209,12.93069514
54.14409639,-2.875436306,-8.008605003,-11.46583176,14.27834675
54.14865447,-3.047818661,-9.478644371,-11.81059742,15.44746287
54.15410678,-2.726995707,-11.22401714,-11.86326981,16.5575432
54.15911178,-2.334346771,-13.00290966,-11.76750088,17.69177525
54.16411601,-2.157175779,-15.68680954,-10.85052204,19.19539605
54.16912162,-1.905784607,-18.39225769,-10.39801788,21.21381469
54.17409485,-2.006340981,-21.37064362,-10.6446209,23.95908526
54.17909947,-2.609679937,-24.2269268,-12.75391293,27.50303086
54.18410462,-2.863465309,-26.67619514,-17.79849625,32.19635522
54.18911085,-1.407790542,-27.07363319,-18.21748161,32.66251865
54.19411478,-0.1699883193,-25.57965088,-16.5966053,30.49253585
54.19912155,-0.0287304204,-22.58929253,-14.62378407,26.90970127
54.20409455,-0.2681505978,-18.49999619,-13.29021358,22.78050791
54.20909908,-0.4165911078,-12.36126328,-12.68448067,17.71638868
54.21410316,-0.2394201756,-7.836222172,-12.89995861,15.09545071
54.21910831,0.2849099934,-4.371812344,-12.68926907,13.42428644
54.22411331,0.7685387731,-2.049436569,-11.64300251,11.84695529
54.22911939,0.8164227605,-0.3208230138,-9.399636269,9.440478564
54.23364439,0.5243301988,0.1101332754,-7.759607792,7.77808232
54.23909724,-0.5650315881,-0.3016694188,-4.726154327,4.769360529
54.24410193,-2.080561161,-1.371877551,-2.561795712,3.574014553
54.2491087,-3.878606796,-2.817975283,-0.4477157295,4.815083047
54.25366524,-4.802768707,-4.362235546,0.6200982332,6.517684254
54.25863878,-5.942408562,-6.622362137,2.475604534,9.235611382
54.26409108,-6.184223175,-8.54251194,4.220977783,11.35939171
54.26909662,-6.320692539,-10.59434223,5.951985359,13.69734906
54.27410093,-6.548141479,-13.37161636,6.313509941,16.17215783
54.27910655,-6.39251852,-15.63892555,5.011064053,17.62245864
54.28411178,-5.767632008,-17.78173637,2.188300371,18.82138109
54.28911693,-4.606443882,-19.89821053,-2.45166254,20.571066
54.29412093,-2.236184359,-22.7042141,-9.399636269,24.67458247
54.29909447,0.08619125932,-24.42564583,-13.32133865,27.82225129
54.30409978,2.82276392,-23.79118156,-13.64455509,27.57103915
54.30910554,3.574543238,-20.66435432,-10.99656868,23.67947258
54.31411016,2.506729126,-16.80729675,-8.090007782,18.82065729
54.31911447,0.5434837937,-11.75313568,-1.838746905,11.90850802
54.32411908,-1.18991828,-7.61356163,4.845864296,9.103000988
54.32909578,-3.56736064,-4.264073372,8.817844391,10.42414329
54.33409916,-5.889736176,-2.104503393,8.638279915,10.66479285
54.33910401,-8.700529099,-0.7015010715,5.523423195,10.32954569
54.34410839,-10.02212811,-0.1316810995,1.757344007,10.17588569
54.34911393,-10.54406452,0.2394201756,-1.26413846,10.62227211
54.35411816,-9.844957352,0.03351882473,-0.6224924326,9.864674632
54.35909478,-8.250418663,-0.6631938815,1.446097851,8.402406395
54.36409731,-5.240907669,-2.212242365,3.021482468,6.441310874
54.36910378,-2.67432332,-4.086902142,3.801992416,6.189500842
54.37410747,-0.8906430602,-6.191405773,5.817910194,8.542530628
54.37911262,0.7182605267,-8.410830498,8.925583839,12.28511354
54.3841167,1.642422318,-10.68771648,11.76271248,15.97767942
54.38912316,2.279279947,-12.17930412,12.29901409,17.4584167
54.39409608,2.571372509,-13.23993587,11.2934494,17.59118694
54.39910062,2.501940727,-13.95580196,9.220070839,16.91253447
54.40410562,2.662352324,-14.61181259,6.459556103,16.19626661
54.40911208,3.610456228,-15.39950562,2.798821688,16.06280082
54.41411608,4.625597477,-15.95256615,-0.4620809257,16.61607768
54.4191207,5.319916248,-16.26620674,-3.636792421,17.49620672
54.42409508,5.056553841,-16.18959236,-6.438008308,18.14165341
54.42910032,3.761290789,-15.43541813,-8.24802494,17.90054068
54.43410493,2.293645144,-14.31014347,-7.934384346,16.52257453
54.43911301,0.940921247,-13.04121685,-6.813898087,14.74407938
54.44411508,-0.0718260482,-11.8728466,-5.109226227,12.92570455
54.44912032,-0.9193734527,-10.74996567,-3.579331636,11.36743702
54.45364593,-1.776497602,-9.88805294,-2.705447912,10.40427715
54.45909908,-3.05021286,-8.860940933,-1.814804912,9.545343869
54.46410378,-3.768473387,-8.101978302,-0.9552865028,8.986435132
54.46910955,-4.441244125,-7.501033783,0.2011129409,8.719552948
54.47411393,-5.568912983,-6.660669327,0.09097966552,8.682487258
54.47911855,-6.114790916,-6.227318764,-0.1197100878,8.728373127
54.48409301,-6.093243122,-6.10042572,-0.1580173075,8.623675271
54.48909847,-5.762843609,-6.110002518,-0.2226607651,8.401909012
54.49365516,-5.516240597,-6.114790916,-0.5793967843,8.255621049
54.49866001,-4.778826714,-6.442796707,-0.8571242094,8.067309098
54.50411232,-3.801992416,-6.787561893,-0.6823474765,7.809720921
54.50911785,-2.832340717,-7.139509678,-0.5530605912,7.700690125
54.51412155,-1.905784607,-7.51300478,-0.3375824392,7.758299923
54.51909885,-0.8116343617,-7.963114738,-0.08140286058,8.004784388
54.52410132,-0.02633621916,-8.295908928,0.03112462163,8.296009118
54.52910685,0.5650315881,-8.573636055,-0.04788403213,8.592368054
54.5341117,0.9911994934,-8.858546257,-0.2729389966,8.918005041
54.53911539,1.326387763,-9.090784073,-0.5410895944,9.202958085
54.54412001,1.505952835,-9.346963882,-0.873883605,9.507749487
54.54909578,1.606509328,-9.457097054,-1.177947283,9.664632259
54.55410032,1.63763392,-9.528923035,-1.470039845,9.779735998
54.55910532,1.611297727,-9.531316757,-1.630451322,9.80309395
54.56410932,1.367089152,-9.512163162,-1.632845521,9.747633829
54.56911539,1.156399369,-9.485827446,-1.592144132,9.68778121
54.57411978,0.9026140571,-9.404424667,-1.632845521,9.587705667
54.57909416,0.5770025849,-9.241618156,-1.59693253,9.396309469
54.58409885,0.08379705995,-9.071630478,-1.623268723,9.216100196
54.58910432,-0.3663128614,-8.786720276,-1.474828243,8.917160796
54.59410901,-0.720654726,-8.585607529,-1.364694953,8.72320997
54.59911424,-0.9959878922,-8.408436775,-1.297657371,8.566079356
54.60411816,-1.209071875,-8.310274124,-1.237802267,8.488501945
54.60909424,-1.426944256,-8.123526573,-1.043871999,8.313694885
54.61409762,-1.553836942,-8.051700592,-0.8523358107,8.24443861
54.61910285,-1.608903527,-7.977479935,-0.6368576288,8.162986237
54.62366001,-1.568202138,-7.946355343,-0.4764461517,8.113619545
54.62911455,-1.522712231,-7.922413349,-0.2968810201,8.072882023
54.63366985,-1.386242747,-7.922413349,-0.2681505978,8.04724841
54.63909147,-1.139639974,-8.010998726,-0.2394201756,8.095196222
54.64409639,-0.9313444495,-8.125920296,-0.2130839527,8.181893907
54.64865385,-0.6943184733,-8.355764389,-0.2801215947,8.389239821
54.65410647,-0.5363011956,-8.614337921,-0.2729389966,8.635330479
54.65911055,-0.4046200812,-8.808267593,-0.1221042871,8.818401491
54.66411578,-0.2202665508,-8.956708908,-0.174776718,8.96112151
54.66912101,-0.0143652102,-9.167398453,-0.349553436,9.174071526
54.67409516,0.2873041928,-9.404424667,-0.988805294,9.460628041
54.67910155,0.5913678408,-9.646238327,-1.766920805,9.824542682
54.68410462,0.8571242094,-9.840168953,-2.628833532,10.22126962
54.68911055,1.053448796,-9.895236015,-3.366247654,10.5050975
54.69366739,1.273715258,-9.897629738,-3.892971992,10.71170649
54.69908924,1.388636947,-9.823410034,-4.149151325,10.75375069
54.70409416,1.434126854,-9.813833237,-4.09408474,10.72984494
54.7090997,1.343147159,-9.854534149,-3.775655985,10.63820782
54.71410378,1.120486379,-9.859322548,-3.303998232,10.45840022
54.71910962,0.8236053586,-9.88805294,-2.542642117,10.24289733
54.72411332,0.6847416759,-10.04846478,-1.8579005,10.24169467
54.72911855,0.6775590777,-10.19451046,-1.168370485,10.28358981
54.73409232,0.9241618514,-10.3214035,-0.6488286853,10.38298724
54.73909724,1.359906554,-10.38844109,-0.4692635238,10.48757657
54.74410278,2.051830769,-10.34774017,-0.6584054828,10.56973197
54.74910832,2.60010314,-10.3261919,-0.9696516991,10.69256751
54.7541127,3.045424461,-10.40998936,-1.319205165,10.92624322
54.75911939,3.351882458,-10.64222622,-1.491587639,11.2568614
54.76409139,3.562572241,-11.10191345,-1.45088625,11.7494457
54.76909762,3.574543238,-11.5783596,-1.41257906,12.19963729
54.7741007,3.430891037,-12.00213337,-1.379060149,12.55882262
54.77910616,3.241749048,-12.39478207,-1.398213744,12.88776788
54.78411055,2.868253708,-12.68448067,-1.460463047,13.08647704
54.78911701,2.200271368,-13.01248646,-1.807622313,13.32041652
54.79367355,1.551442742,-13.26148319,-2.23139596,13.53709862
54.79909485,0.8188169599,-13.48893261,-2.705447912,13.78191614
54.8040997,0.05746084079,-13.68046856,-3.15795207,14.04034127
54.80910593,-0.9840168953,-13.72356415,-3.64158082,14.23255469
54.81411055,-1.707065821,-13.59906578,-4.120420933,14.31176203
54.81911447,-2.324769735,-13.41231823,-4.718971729,14.40706524
54.82411855,-2.513911724,-13.30457878,-5.044582844,14.44920014
54.82864685,-2.315192938,-13.23514652,-4.86980629,14.29140424
54.83409909,-1.63523972,-13.26627159,-4.101267338,13.98171537
54.83865885,-0.895431459,-13.45780754,-3.303998232,13.8863525
54.84410955,-0.2178723514,-13.78341961,-2.82276392,14.0711805
54.84911485,0.4740519226,-14.19761562,-2.655169725,14.45153767
54.85411847,1.108515382,-14.52322769,-2.358288765,14.75515079
54.8590927,1.18752408,-14.56632328,-2.138022184,14.77021077
54.86409816,0.672770679,-14.36281586,-2.195482969,14.54521382
54.86910378,-0.2873041928,-14.00847435,-2.109291792,14.16929812
54.87410778,-1.197100878,-13.68525696,-1.661576033,13.83763504
54.87911239,-1.656787634,-13.76187134,-0.6584054828,13.87687089
54.88411755,-1.745373011,-14.36760426,0.174776718,14.47428499
54.88912255,-2.188300371,-14.8584156,0.7805097699,15.03896168
54.89409639,-2.923320293,-15.11220074,1.364694953,15.45272808
54.8991007,-4.043806553,-15.21036339,2.410961151,15.92231954
54.90410616,-4.991910458,-15.24388218,3.363853455,16.38934483
54.90911209,-6.007051945,-15.21994019,4.065354347,16.85996318
54.9141157,-7.06768322,-15.15050793,4.295197964,17.2609027
54.91912124,-8.123526573,-15.11938381,3.892971992,17.599508
54.92409455,-8.899248123,-15.30134296,2.806004286,17.92209178
54.9291007,-9.478644371,-15.8400383,1.223437071,18.49995434
54.93410439,-9.162610054,-16.51999092,-0.6177040339,18.90092805
54.93910839,-8.140285492,-17.04192734,-2.04704237,18.99689232
54.94411485,-6.605602264,-17.34359741,-2.782062292,18.76630553
54.9491207,-5.485116005,-17.13530159,-2.588132143,18.17700432
54.95409355,-4.472368717,-16.6157589,-2.398990154,17.37356266
54.95909939,-4.031835556,-15.79933739,-3.08133769,16.5942581
54.9636567,-3.646369219,-14.91587639,-3.531447411,15.75596705
54.96910924,-2.035071373,-14.42027664,-2.774879694,14.82517626
54.97411393,-1.26413846,-13.82890892,-3.088520288,14.22588224
54.97911816,-0.5291185975,-13.31176186,-2.315192938,13.5219484
54.9840927,1.072602391,-13.14416695,-0.1963245422,13.18931931
54.98909916,3.129221678,-13.29260826,0.2681505978,13.65860049
54.99410224,3.093308687,-12.97657299,-0.4644751251,13.34824866
54.99910901,3.253720045,-12.62223148,-0.8451532125,13.06222438
55.00411293,3.744531393,-12.54801083,-0.3734954596,13.10013702
55.00867055,4.534617901,-12.6437788,-0.05267243832,13.43244863
55.01364408,4.604049683,-12.49533844,-0.1388636976,13.31728348
55.01909547,3.948038578,-12.02128696,0.1843535304,12.65434056
55.02365301,3.229778051,-11.53526402,0.720654726,12.00054688
55.02910778,2.205059767,-10.79545593,1.043871999,11.0676929
55.03366316,1.218648672,-10.0364933,1.386242747,10.20480139
55.03863816,0.55784899,-9.275136948,1.78128612,9.461096191
55.04409116,-0.2873041928,-8.231265068,2.169146776,8.517127806
55.04909539,-0.8667010069,-7.410054207,2.535459518,7.879633808
55.05365178,-1.340752959,-6.619967937,2.767697096,7.299434307
55.05910408,-1.841141105,-5.736507416,2.645592928,6.580006067
55.06366193,-2.296039343,-5.137956619,2.389413357,6.113893283
55.06908501,-2.703053713,-4.637568474,2.243366957,5.817751802
55.07367232,-2.999934673,-4.240131378,2.126051188,5.612344947
55.0790957,-3.356670856,-3.768473387,1.841141105,5.372004419
55.08365078,-3.500322819,-3.576937437,1.541865945,5.236801682
55.08910439,-3.569754839,-3.397372246,0.9528923035,5.019291935
55.09410832,-3.45722723,-3.323152065,0.6105214357,4.834097247
55.09911301,-3.213018656,-3.38300705,0.5602431893,4.699159288
55.10411939,-2.870647907,-3.56736064,0.3112462163,4.589504935
55.10909416,-2.628833532,-3.701435804,0.1149216816,4.541431465
55.11409793,-2.60010314,-3.727771997,0.2082955539,4.549748063
55.11865424,-2.557007313,-3.804386616,0.2250549644,4.589367457
55.12366062,-2.403778553,-3.857059002,0.3184288144,4.555924976
55.12908286,-2.303221941,-3.852270603,0.3878606856,4.50502564
55.13411701,-2.327163935,-3.830722809,0.5530605912,4.516193667
55.13912278,-2.442085743,-3.806780815,0.6488286853,4.569063538
55.14409539,-2.758120298,-3.586514235,0.7254431248,4.58220249
55.14910216,-2.853888512,-3.404554844,0.7996633649,4.513882455
55.15410678,-2.971204281,-3.287238836,0.8930372596,4.520122741
55.15911139,-3.055001259,-3.179499865,1.015141487,4.524683892
55.16411662,-3.093308687,-3.047818661,1.101332784,4.480032491
55.16912101,-2.947262287,-2.949656487,1.161187768,4.328416039
55.17409547,-2.662352324,-2.954444885,1.185129881,4.149867144
55.17910001,-2.348711967,-2.990357876,1.094150186,3.95674775
55.18410432,-2.068590164,-3.086126089,1.036689281,3.857196413
55.18911024,-1.802833915,-3.268085241,0.8786720037,3.834404225
55.19411509,-1.723825216,-3.373430252,0.6871358752,3.850163731
55.19911947,-1.750161409,-3.390189648,0.4644751251,3.843460413
55.20409301,-1.826775908,-3.394978046,0.174776718,3.859214046
55.2090997,-1.944091797,-3.347094059,-0.174776718,3.8746714
55.21410347,-2.164358377,-3.363853455,-0.8020575643,4.079614392
55.21910839,-2.322375536,-3.414131641,-1.381454349,4.354094523
55.22411324,-2.535459518,-3.497928619,-2.037465572,4.776539077
55.22911916,-2.63601613,-3.643975019,-2.846705914,5.322675036
55.23409232,-2.45166254,-3.883395195,-4.12999773,6.176430094
55.23909878,-2.176329374,-4.05338335,-5.317522049,7.031526639
55.24410255,-2.068590164,-4.414907932,-6.382941723,8.031962547
55.24910839,-2.209848166,-4.86980629,-7.735665798,9.404199464
55.25411209,-2.501940727,-5.554547787,-8.920795441,10.8024673
55.25911732,-2.813186884,-6.928819656,-10.09395409,12.56226378
55.26412193,-2.777273893,-8.384494781,-11.26232433,14.31268502
55.26909762,-2.693476915,-10.06282997,-11.58554173,15.58012009
55.27410009,-2.657563925,-11.6813097,-10.50575733,15.93381873
55.27910624,-2.777273893,-13.35246277,-8.51617527,16.07876716
55.28411055,-2.743755102,-14.90390587,-7.984662533,17.1291984
55.28866862,-2.806004286,-17.13051224,-8.343792915,19.25998416
55.29409078,-3.12203908,-19.66597366,-9.495404243,22.06037964
55.29909447,-3.64158082,-22.05777931,-12.33013916,25.53113924
55.30365293,-3.390189648,-24.03539085,-18.33479691,30.41970047
55.30865732,-1.520318031,-25.25164604,-22.74252129,34.01733777
55.31366278,0.08140286058,-24.48789406,-21.45923042,32.56013133
55.31908555,0.806845963,-21.9093399,-18.27254677,28.54042993
55.32412009,0.2561795712,-16.74744034,-14.64533138,22.24922734
55.32909509,0.3064578176,-12.30859089,-12.79461384,17.75661762
55.33409878,1.058237195,-8.446743965,-12.37084007,15.01682502
55.33910409,1.824381709,-5.291185856,-12.17212105,13.39722162
55.34410801,2.398990154,-3.126827478,-10.87925243,11.57109923
55.34911509,2.535459518,-1.534683347,-9.251194954,9.71434074
55.35411793,2.408566952,-1.185129881,-7.06768322,7.560282646
55.35909293,1.56101954,-1.752555609,-4.865017891,5.401539803
55.36409662,0.03830722719,-3.002328873,-3.23456645,4.413373565
55.36910347,-2.11647439,-4.616020679,-1.515529633,5.299428349
55.3741077,-3.438073635,-6.014234543,0.09576806426,6.928242128
55.37911116,-4.185064793,-7.668628216,1.508347034,8.865536465
55.38411755,-4.431667328,-9.543288231,3.174711466,10.99057862
55.38912278,-4.912901878,-12.43308926,5.042188644,14.28782627
55.39409609,-5.434837818,-15.13614273,5.039794445,16.85348056
55.39910224,-5.365406036,-17.99242592,3.648763418,19.12664233
55.40410678,-4.398148537,-20.79842949,0.6416460276,21.26805326
55.40866432,-2.837129116,-23.6571064,-3.754108191,24.12055789
55.41408586,-0.1580173075,-26.45353508,-8.420407295,27.76180374
55.42013363,-0.1580173075,-26.45353508,-8.420407295,27.76180374
55.42409609,4.173093796,-23.6379528,-9.440337181,25.79316752
55.4291007,2.774879694,-18.76335907,-5.75805521,19.82217951
55.43410555,1.108515382,-12.71560478,-1.891419291,12.90321194
55.43910955,-0.9864110947,-7.699752808,4.932055473,9.196976206
55.44411478,-3.921702385,-3.325546265,9.63666153,10.92264863
55.44911947,-6.16506958,-0.8283938169,9.069235802,10.99751596
55.45364686,-8.944737434,0.4477157295,6.301538944,10.95071551
55.45909824,-12.22000504,0.9145850539,0.2106897533,12.2559936
55.46410339,-13.69722748,1.029506683,-5.904101372,14.95099788
55.46910778,-13.43865395,0.8930372596,-5.128379822,14.41163471
55.47411332,-11.5879364,0.107739076,0.14844051,11.58938792
55.47912009,-9.536105156,-0.9696516991,2.446874142,9.892659856
55.48409262,-6.825869083,-2.78924489,2.657563925,7.838049618
55.48909816,-3.907337189,-5.171475887,3.19625926,7.226861007
55.49410193,-1.089361787,-8.216899872,7.802703381,11.38359928
55.4991077,0.06703764945,-10.23760605,12.30380249,16.00614343
55.50411139,0.5099649429,-11.97340298,15.00206757,19.20115815
55.50911724,1.113303781,-13.37401104,14.84405041,20.01123307
55.51412155,1.37427175,-14.65490818,12.39238834,19.24126413
55.51909609,1.572990537,-15.33486176,9.746794701,18.23820965
55.52410193,1.968033791,-15.96693134,6.428431511,17.32457172
55.52910586,2.645592928,-16.48886681,2.48996973,16.88436673
55.53411086,4.472368717,-16.95573616,-3.79480958,17.9415621
55.53911578,5.444414616,-17.07784081,-7.718906403,19.51603989
55.54412032,5.003881454,-16.75941277,-9.9526968,20.12393896
55.54909516,3.576937437,-15.85679817,-10.06282997,19.11787323
55.55409978,2.583343744,-14.07790565,-8.24802494,16.51941306
55.55865916,1.812410712,-12.69645119,-6.011840343,14.16428359
55.56366247,1.079784989,-11.49935055,-4.388571739,12.35558823
55.56908493,0.1436520964,-10.41717148,-2.698265314,10.76191123
55.57367201,-0.5051765442,-9.569623947,-1.774103403,9.745786203
55.57909416,-1.532289028,-8.719682693,-0.8044517636,8.889764821
55.58365086,-2.559401512,-7.860164165,0.05746084079,8.266560262
55.58865609,-3.265691042,-7.225700855,0.9289502501,7.983635726
55.59410839,-4.240131378,-6.777985096,1.247379065,8.091708756
55.59911263,-4.604049683,-6.550535679,0.8714894056,8.053960823
55.60367047,-4.86980629,-6.4715271,0.2801215947,8.103958564
55.60909209,-4.5370121,-6.629544735,-0.03830722719,8.033480543
55.61365016,-4.120420933,-6.754043102,-0.08140286058,7.912116867
55.61865539,-3.059789658,-7.089231014,0.1101332754,7.72215245
55.62366009,-2.389413357,-7.309497833,-0.0287304204,7.690180765
55.6286647,-1.644816518,-7.687781811,-0.383072257,7.871096169
55.63363909,-0.9792284966,-7.967903137,-0.5195417404,8.044643713
55.63864616,-0.2011129409,-8.312667847,-0.5099649429,8.330723701
55.64364901,0.3399766386,-8.518569946,-0.3950432837,8.534499238
55.64910155,0.7900865674,-8.698134422,-0.4836287498,8.747323933
55.65410586,1.015141487,-8.82263279,-0.7326257229,8.911010158
55.65911016,1.094150186,-8.959102631,-0.9744400978,9.07811754
55.66411609,1.146822572,-9.026140213,-1.197100878,9.177116087
55.66912101,1.22583127,-8.978256226,-1.271321058,9.150300781
55.67409486,1.122880578,-8.999804497,-1.472434044,9.18832976
55.6791007,0.9816226959,-8.971074104,-1.613691926,9.167756287
55.68410524,0.7613561153,-8.983044624,-1.685518026,9.171462526
55.68910932,0.3974374831,-8.978256226,-1.673547029,9.141542598
55.69411478,0.01675941236,-8.939949036,-1.632845521,9.087857511
55.6991197,-0.4525041282,-8.875306129,-1.522712231,9.016344681
55.70409393,-0.8834604025,-8.757989883,-1.587355733,8.944416544
55.70909947,-1.316810966,-8.540117264,-1.673547029,8.801610856
55.71410286,-1.553836942,-8.346187592,-1.704671621,8.659050866
55.71911078,-1.699883223,-8.157045364,-1.697489023,8.503438189
55.72366586,-1.738190413,-8.080430984,-1.572990537,8.41361813
55.72908801,-1.63763392,-7.991845131,-1.316810966,8.263499535
55.73409209,-1.493981838,-7.936778545,-0.9840168953,8.135891141
55.73909755,-1.340752959,-7.845798969,-0.5339069963,7.977420425
55.74410155,-1.096544385,-7.91762495,-0.1029506698,7.993859724
55.74910678,-0.8283938169,-7.999027729,0.4620809257,8.055072918
55.75411232,-0.5937620401,-8.075642586,0.8044517636,8.137302942
55.75911763,-0.3471592367,-8.226476669,0.9002198577,8.28286386
55.76367455,-0.09816227108,-8.331821442,0.9121908545,8.382182086
55.76909724,0.1795651317,-8.540117264,0.8044517636,8.579801231
55.7741004,0.323217243,-8.829815865,0.4596867263,8.847679327
55.77910563,0.3950432837,-9.102754593,0.06464344263,9.111551962
55.78411047,0.423773706,-9.430760384,-0.4501099288,9.451001244
55.7891154,0.3519476354,-9.610325813,-0.8499416113,9.654254509
55.79367363,0.3256114423,-9.703699112,-1.347935557,9.802281853
55.79864963,0.3112462163,-9.785101891,-2.121262789,10.01722761
55.80365232,0.3256114423,-9.756371498,-2.959233284,10.20048378
55.8091047,0.4189853072,-9.672574997,-3.847482204,10.41812723
55.81366216,0.5554547906,-9.569623947,-4.163516521,10.45089003
55.81908401,0.6967126727,-9.552865028,-4.261679173,10.48353701
55.82411886,0.921767652,-9.619902611,-4.106055737,10.50008931
55.82909324,1.048660398,-9.715670586,-3.916913986,10.52787532
55.83365116,1.132457376,-9.859322548,-3.476380825,10.51541366
55.8386557,1.127668977,-10.00058079,-2.908955097,10.47593782
55.84410809,1.063025594,-10.14902115,-2.126051188,10.42366286
55.84911355,1.18752408,-10.28309631,-1.63763392,10.48017787
55.85411824,1.541865945,-10.44111347,-1.364694953,10.64220811
55.85909178,1.975216389,-10.62307262,-1.304839969,10.88364641
55.86409755,2.540247917,-10.69729328,-1.575384736,11.10705992
55.86910316,2.971204281,-10.75475407,-1.922544003,11.32205659
55.87410778,3.387795448,-10.88882923,-2.334346771,11.64014325
55.87866555,3.706224203,-11.02769279,-2.456450939,11.89034303
55.88363878,3.986345768,-11.25753593,-2.355894566,12.17264585
55.8886444,4.170699596,-11.55681133,-1.953668594,12.44071719
55.89364932,4.211400986,-11.89918232,-1.584961534,12.72157778
55.89865393,4.05577755,-12.13142014,-1.280897856,12.85540296
55.90410716,3.734954596,-12.29662037,-1.110909581,12.89925883
55.90911047,3.351882458,-12.38999367,-1.319205165,12.90299815
55.91366832,2.947262287,-12.47379112,-1.687912226,12.92791041
55.91909024,2.432508945,-12.6294136,-2.238578558,13.0549003
55.92409455,1.738190413,-12.9239006,-2.987963676,13.37820764
55.9291004,0.9504981041,-13.18965721,-3.435679436,13.66288393
55.93365732,-0.0023942017,-13.38598156,-3.799597979,13.91479259
55.93910955,-0.9935936928,-13.46738434,-4.254496574,14.1583336
55.94411355,-1.968033791,-13.60864258,-4.601655483,14.49977734
55.94911878,-2.15478158,-13.78820801,-4.558559895,14.68122039
55.95409386,-1.89860189,-14.00847435,-4.005499363,14.6930619
55.95910063,-1.022324085,-14.36760426,-3.268085241,14.77002301
55.96410409,-0.2202665508,-14.75067711,-2.059013367,14.89531902
55.9691087,0.3112462163,-14.91587639,-1.058237195,14.95660752
55.9741127,0.7852981687,-15.19839191,-0.4979939461,15.22681214
55.9786714,1.103726983,-15.36598682,-0.3639186621,15.40987349
55.98409293,1.254561663,-15.27740097,-0.5315127969,15.33803805
55.98909732,0.7781155705,-14.97812557,-0.9600749016,15.02902037
55.99365509,-0.1699883193,-14.62857246,-1.431732655,14.69945192
55.99910686,-1.477222443,-14.38675785,-1.328781962,14.52331398
56.00411209,-2.063801765,-14.39154625,-0.7709329724,14.55919705
56.00866986,-2.703053713,-14.43703651,-0.04788403213,14.68798201
56.01364432,-3.330334663,-14.5735054,0.5243301988,14.95837928
56.0190964,-4.177882195,-14.7889843,1.055842996,15.40401119
56.02410032,-5.322310448,-14.84644508,1.501164436,15.84289793
56.02910555,-6.473921299,-14.92066479,2.293645144,16.4255503
56.03411109,-7.718906403,-15.03079796,3.208230257,17.1988123
56.03911817,-9.10036087,-15.16966152,3.653551817,18.06332305
56.04412032,-9.540893555,-15.19599819,3.155557871,18.21824789
56.0490957,-9.878476143,-15.18881512,2.063801765,18.23578003
56.05409978,-10.01255131,-15.21994019,0.7517793179,18.23356616
56.0591047,-9.490615845,-15.47372532,-1.125274777,18.18719901
56.06411024,-8.532935143,-15.59582996,-2.245761156,17.91882634
56.06911478,-7.55131197,-15.39471722,-2.758120298,17.36740793
56.07367178,-6.79953289,-14.98291397,-2.592920542,16.6566682
56.07864655,-6.272808552,-14.37718105,-1.869871497,15.79708459
56.08409786,-5.157110691,-13.541605,-1.414973259,14.55929277
56.08910317,-4.240131378,-13.00530338,-1.553836942,13.76702725
56.09410717,-3.543418407,-12.33732128,-1.944091797,12.98248063
56.09911355,-2.535459518,-11.63103199,-1.982398987,12.0681136
56.10411816,-0.8164227605,-11.73637676,-0.9720458984,11.80482778
56.10864586,-0.1604115069,-11.6813097,-0.7062895298,11.70374184
56.11409724,0.1987187415,-11.63582039,0.8307880163,11.66713392
56.1191044,2.133233786,-12.14578533,3.670311213,12.86631152
56.12410717,3.356670856,-12.40675354,2.260126352,13.050017
56.12911201,3.062183857,-12.18648624,0.3782838583,12.57101888
56.13411693,2.923320293,-11.88960552,-0.4884171486,12.25345145
56.13912155,3.090914488,-11.77468395,-0.9457096457,12.21029489
56.14364893,3.268085241,-11.68370438,-0.9528923035,12.16952476
56.14910009,3.502717018,-11.57357121,-0.4955997467,12.10215667
56.15410624,3.093308687,-11.3078146,0.0023942017,11.7232775
56.1586634,2.080561161,-10.83615685,0.2585737705,11.03711422
56.16408555,0.7948749661,-10.07001209,0.5075707436,10.11407919
56.16911947,0.2250549644,-9.457097054,0.9504981041,9.507406642
56.17409447,-0.2705447972,-8.815450668,1.268926859,8.910417518
56.1790997,-0.7015010715,-8.046912193,1.465251446,8.209254619
56.18365755,-1.383848548,-7.424419403,1.489193439,7.697709879
56.18910963,-2.011129379,-6.900089264,1.41257906,7.324701552
56.19411455,-2.410961151,-6.277596951,1.192312479,6.829536309
56.19912101,-2.803610086,-5.724536419,0.8714894056,6.433509191
56.20409447,-3.071760893,-5.228936672,0.5434837937,6.088749325
56.20909816,-3.189076662,-4.764461517,0.349553436,5.743909044
56.21410309,-3.129221678,-4.326322556,0.01675941236,5.339417201
56.2191084,-3.038241863,-4.106055737,-0.174776718,5.110885856
56.22366617,-2.930502892,-3.921702385,-0.3543418646,4.908477865
56.2290884,-2.7533319,-3.840299606,-0.4812345505,4.749770974
56.23364586,-2.590526342,-3.773261786,-0.5291185975,4.607417685
56.23909763,-2.403778553,-3.79241538,-0.1723825186,4.49335971
56.24410278,-2.367865562,-3.761290789,0.01675941236,4.444589587
56.2491074,-2.384624958,-3.770867586,0.1029506698,4.462788073
56.25411209,-2.238578558,-3.857059002,0.107739076,4.460913114
56.25866993,-2.159569979,-3.897760391,0.2394201756,4.462465751
56.26409086,-2.121262789,-3.912125587,0.3950432837,4.467722197
56.2690967,-2.236184359,-3.919308186,0.5746083856,4.548809947
56.27410093,-2.48996973,-3.881000996,0.7781155705,4.67627863
56.27910778,-2.693476915,-3.799597979,0.9241618514,4.748245762
56.28411078,-2.865859509,-3.667917013,1.007958889,4.762640765
56.2891154,-2.985569477,-3.60327363,1.046266198,4.794984767
56.29412093,-3.043030262,-3.529053211,1.094150186,4.786586923
56.29909447,-3.01190567,-3.488351822,1.158793569,4.752154957
56.30410009,-2.959233284,-3.512293816,1.120486379,4.72744743
56.30865817,-2.849100113,-3.572149038,1.060631394,4.690688559
56.31410932,-2.657563925,-3.632004023,0.9241618514,4.594363325
56.31911394,-2.525882721,-3.67988801,0.787692368,4.532341399
56.32411878,-2.444479942,-3.713406801,0.6153098345,4.488148666
56.32909394,-2.370259762,-3.758896589,0.4309563041,4.464656565
56.3340994,-2.264914751,-3.780444384,0.09097966552,4.407933287
56.33910409,-2.274491549,-3.780444384,-0.2274491638,4.417782777
56.34366124,-2.322375536,-3.763684988,-0.5770025849,4.460009507
56.34908316,-2.334346771,-3.722983599,-1.034295082,4.514371279
56.35411855,-2.348711967,-3.737348795,-1.752555609,4.749281533
56.35909424,-2.279279947,-3.847482204,-2.482787132,5.114926034
56.36409755,-2.159569979,-4.003105164,-3.222595453,5.574380226
56.36910247,-1.968033791,-4.223371983,-3.981557369,6.128852012
56.37410647,-1.738190413,-4.369418144,-5.257667065,7.053806334
56.3791124,-1.692700624,-4.764461517,-6.019022942,7.860913823
56.38366986,-1.685518026,-5.15950489,-7.20894146,9.023873819
56.38909116,-1.762132406,-5.793968201,-8.406042099,10.36034372
56.39364809,-1.865083098,-6.696582317,-9.662998199,11.90362482
56.39910063,-2.08295536,-8.185775757,-11.22401714,14.04721284
56.40365786,-2.52827692,-9.694122314,-11.3078146,15.10744395
56.40911109,-2.918531895,-11.61666679,-9.765948296,15.45440138
56.4141157,-3.028665066,-13.19683933,-9.284713745,16.41752995
56.41867424,-3.622427225,-15.03319263,-9.39484787,18.09370129
56.4236484,-4.201824188,-17.47767258,-10.27351952,20.70433695
56.4291004,-4.467580318,-20.98038864,-12.658144,24.90711928
56.43410463,-4.163516521,-23.79357719,-15.68441486,28.80052179
56.43866255,-3.375824451,-25.79512978,-18.1480484,31.71965592
56.44408409,-1.910573006,-26.3769207,-19.40261078,32.8002064
56.44911947,-0.8403648138,-24.87814903,-18.15044403,30.80693316
56.45409394,-0.2968810201,-22.02186775,-16.4385891,27.48232176
56.45909847,-0.3184288144,-18.02833939,-14.94221306,23.41777421
56.46410286,-0.4525041282,-13.46977901,-13.50329781,19.07822734
56.46910901,0.2298433632,-8.267178535,-12.32535076,14.84295592
56.47411294,1.134851575,-5.015852451,-11.16895103,12.29602095
56.47911847,1.833958507,-2.63601613,-9.646238327,10.1667054
56.48364555,2.001552582,-0.9265560508,-7.862558365,8.166060427
56.48909786,1.30005157,0.1651999205,-5.497087002,5.651140646
56.49410255,0.09097966552,0.09337386489,-3.545812607,3.548208424
56.49910709,-1.604115129,-0.8906430602,-2.185906172,2.853877397
56.50411209,-3.265691042,-2.48996973,-1.036689281,4.235494293
56.50911632,-5.169081688,-4.728548527,0.2537853718,7.01020568
56.51412186,-6.320692539,-6.773196697,0.9385270476,9.311722756
56.51909763,-7.084442616,-9.088389397,2.427720547,11.77633118
56.52410063,-7.328651428,-11.51611042,3.909731388,14.19915246
56.52910563,-7.041347027,-14.69561005,4.948814869,17.03033444
56.53411117,-6.845022678,-17.25740623,3.754108191,18.94111226
56.53911578,-6.301538944,-19.56541634,0.4022258818,20.55910249
56.54412101,-4.707000732,-21.47838402,-4.288015366,22.40231934
56.54909486,-2.042253971,-23.55415726,-9.191340446,25.36631358
56.55365232,0.6105214357,-23.70020294,-10.31182671,25.85355151
56.55865632,3.141192675,-21.67470741,-9.0740242,23.7064959
56.56366155,3.663128614,-18.19832802,-7.089231014,19.87095494
56.56863601,2.564189911,-14.47055531,-4.173093796,15.27700077
56.57408894,0.1604115069,-9.399636269,2.758120298,9.797250707
56.57909394,-2.181117773,-5.564124584,7.050923824,9.242958612
56.58365178,-4.759673119,-2.940079689,7.694964409,9.513728713
56.58865632,-6.983886242,-1.620874524,6.105214119,9.416769122
56.59366063,-9.502586365,-0.9145850539,1.810016513,9.716572092
56.59908594,-10.66377449,-0.7374141216,-1.37666595,10.77752639
56.60411824,-10.25915432,-1.053448796,-0.8355764151,10.34689275
56.60909301,-8.985439301,-1.728613615,1.252167463,9.235483085
56.61365055,-7.237671852,-2.724601507,2.456450939,8.114277443
56.61910217,-5.001487255,-4.23294878,3.275267839,7.325306107
56.62410655,-2.159569979,-6.617573261,5.609614372,8.940010725
56.62866501,-1.256955862,-8.044517517,7.884106159,11.33372534
56.63408624,-0.6895300746,-10.07001209,11.34612179,15.18601577
56.63912186,-0.0359130241,-11.49456215,12.49533844,16.97821344
56.64409632,0.5722141862,-12.80658531,11.2934494,17.084439
56.64910094,1.259350061,-13.63497829,9.22725296,16.51183796
56.65410563,2.248155355,-14.31253815,6.981492043,16.08241841
56.65911047,3.270479441,-14.93263626,3.960009575,15.7911791
56.66411601,4.685452938,-15.746665,-0.8475474119,16.45081349
56.66912063,5.626373768,-16.25902367,-4.118026733,17.69096031
56.67409601,5.975927353,-16.29254341,-6.576871872,18.55839223
56.67910124,5.573701382,-15.86398029,-7.764396191,18.52074151
56.68365755,4.94402647,-15.05952835,-7.230489254,17.4216178
56.68910963,3.739742994,-13.73553562,-5.5042696,15.26262102
56.69411394,2.911349297,-12.60068321,-4.592078686,13.7237152
56.69911947,2.207453966,-11.61666679,-3.53384161,12.34130613
56.70409417,0.9935936928,-10.52730465,-2.063801765,10.77360893
56.70909847,-0.0359130241,-9.751583099,-1.388636947,9.850024125
56.71410347,-1.256955862,-9.028534889,-1.204283476,9.19481805
56.71866032,-2.341529369,-8.166622162,-0.3064578176,8.501199546
56.72408278,-3.454833031,-7.311892033,0.7948749661,8.125974562
56.72911763,-4.144362926,-6.895300865,1.007958889,8.107829501
56.73409147,-4.814739704,-6.519411087,0.3208230138,8.110941175
56.73909724,-5.090072632,-6.327875137,-0.3998316824,8.130849188
56.7436557,-5.073313236,-6.270414352,-0.8571242094,8.111181496
56.7491074,-4.50109911,-6.366182327,-1.043871999,7.866246841
56.75411294,-3.775655985,-6.557718277,-0.921767652,7.622919567
56.7591197,-3.145981073,-6.694188118,-0.85473001,7.44579847
56.76364501,-2.473210335,-6.995857239,-0.9481038451,7.480487201
56.76909701,-1.604115129,-7.498639584,-0.9816226959,7.730870848
56.77410155,-0.9121908545,-7.924807549,-0.8571242094,8.023049841
56.77910647,-0.2944868207,-8.312667847,-0.8690952063,8.36316302
56.78411086,0.1699883193,-8.719682693,-0.895431459,8.767186539
56.78911517,0.5291185975,-8.935160637,-0.9600749016,9.002155626
56.79412094,0.7829039693,-9.129091263,-1.048660398,9.222414789
56.79909478,0.8882488012,-9.248801231,-1.185129881,9.36663456
56.80409917,0.8212111592,-9.344569206,-1.307234168,9.471231313
56.8091044,0.6751648784,-9.339780807,-1.302445769,9.454296279
56.81366217,0.5075707436,-9.311050415,-1.323993564,9.418399378
56.81908378,0.1795651317,-9.191340446,-1.268926859,9.280256366
56.82411917,-0.09097966552,-9.038111687,-1.26413846,9.126542949
56.82909301,-0.3591302633,-8.870517731,-1.268926859,8.968011749
56.83409847,-0.6655880809,-8.655038834,-1.312022567,8.779186063
56.83910524,-1.055842996,-8.51617527,-1.26653266,8.674338628
56.84410771,-1.381454349,-8.4012537,-1.307234168,8.61384589
56.84911301,-1.70946002,-8.250418663,-1.18991828,8.50926361
56.85367117,-1.915361404,-8.092401505,-0.9792284966,8.373437757
56.85909324,-2.075772762,-7.900865555,-0.7062895298,8.199472786
56.8640964,-2.142810583,-7.785943985,-0.5027823448,8.091066124
56.86910247,-2.109291792,-7.663839817,-0.3878606856,7.958265421
56.8741074,-1.922544003,-7.594407558,-0.1843535304,7.836146236
56.87911209,-1.584961534,-7.606379032,-0.04309562966,7.769875306
56.88411786,-1.316810966,-7.55131197,0.2968810201,7.671013096
56.88912224,-1.051054597,-7.603984833,0.6129156351,7.700712089
56.89409571,-0.7302315235,-7.773972988,0.7469909191,7.843844053
56.89910101,-0.2753331959,-8.147468567,0.5339069963,8.16958439
56.90410647,0.009576806799,-8.506598473,0.1795651317,8.508498864
56.90911117,0.3112462163,-8.868123055,-0.1197100878,8.874390752
56.91411517,0.6009446383,-9.208099365,-0.457292527,9.239012114
56.91912317,1.022324085,-9.619902611,-1.122880578,9.739021181
56.92409517,1.362300754,-9.923966408,-1.759738207,10.17043023
56.92910032,1.630451322,-10.22084713,-2.456450939,10.63758614
56.9341047,1.877054095,-10.43871975,-3.181894064,11.07315004
56.93910963,2.128445387,-10.61828423,-4.050989151,11.56238525
56.94411509,2.197877169,-10.65898609,-4.563348293,11.80122011
56.94911909,2.205059767,-10.62786102,-4.599261284,11.78842326
56.95409294,2.097320795,-10.60870743,-4.252102375,11.61997429
56.95909886,1.987187386,-10.56321812,-3.512293816,11.30781582
56.96410371,1.810016513,-10.60631371,-2.971204281,11.16235213
56.96910932,1.568202138,-10.6446209,-2.525882721,11.05202676
56.97411294,1.326387763,-10.6350441,-2.102109194,10.92164505
56.97911763,1.22583127,-10.6206789,-1.963245392,10.8699501
56.98364524,1.211466074,-10.60152531,-2.181117773,10.89115529
56.98909763,1.26653266,-10.65180302,-2.501940727,11.01475011
56.99410255,1.587355733,-10.68532181,-2.743755102,11.14558174
56.9991077,1.958456993,-10.74757099,-2.695871115,11.25226897
57.00411201,2.291250944,-10.81939793,-2.346317768,11.3055035
57.0091164,2.576161146,-10.9295311,-1.723825216,11.36058228
57.01412124,2.846705914,-11.08036518,-0.7493851185,11.46472002
57.01909609,2.901772499,-11.20965195,0.01675941236,11.57915633
57.02410094,2.829946518,-11.37964058,0.5937620401,11.74126783
57.02910648,2.63601613,-11.55681133,0.7948749661,11.88024812
57.03411086,2.26730895,-11.76510715,0.5027823448,11.99213185
57.03911548,1.862688899,-11.94467258,-0.1651999205,12.09016559
57.0436724,1.501164436,-12.20085144,-0.9289502501,12.32790408
57.04909517,1.101332784,-12.52885723,-1.606509328,12.67935604
57.05409971,0.5363011956,-13.04600525,-2.260126352,13.25119025
57.0591044,0.01197100803,-13.49611473,-2.580949545,13.74068982
57.06366248,-0.4764461517,-13.9198885,-2.885013103,14.22369844
57.06908432,-0.9337386489,-14.28620148,-3.110068083,14.65059535
57.07367294,-1.321599364,-14.52562141,-3.258508444,14.94517245
57.0786484,-1.659181833,-14.66209126,-3.193865061,15.09736992
57.08365117,-1.752555609,-14.83207989,-2.868253708,15.20818609
57.08910378,-1.539471745,-15.07149982,-2.537853718,15.361015
57.0941084,-1.015141487,-15.25106525,-1.972822189,15.41160378
57.09911301,-0.5267243981,-15.32528496,-1.616086125,15.41925848
57.10411794,0.02154781483,-15.39711094,-1.48679924,15.46874467
57.10909294,0.3711012602,-15.37556362,-1.63523972,15.46672822
57.11409794,0.5458779931,-15.19120979,-2.152387381,15.35264177
57.1191034,0.3639186621,-14.82010841,-2.590526342,15.04921516
57.12410717,-0.2322375625,-14.35084534,-2.7509377,14.61397805
57.12911148,-1.144428372,-13.85045719,-2.736572504,14.16452293
57.13411732,-2.446874142,-13.38837624,-2.212242365,13.78875729
57.13912155,-3.311181068,-13.16092682,-1.256955862,13.62915452
57.14409694,-4.139574528,-12.87362289,-0.05267243832,13.52290716
57.14865394,-4.726154327,-12.59828949,1.180341482,13.50728096
57.15365878,-5.255272865,-12.52406883,2.327163935,13.77990874
57.15866471,-5.973533154,-12.52406883,3.536235809,14.3192305
57.16408563,-6.600813866,-12.70602798,3.746925592,14.80045074
57.16912132,-7.041347027,-13.06515884,3.356670856,15.21664164
57.17409509,-7.117961884,-13.54878712,3.066972494,15.60901451
57.17865263,-6.907271862,-13.96298409,2.353500366,15.75481809
57.18410555,-6.438008308,-14.42267132,1.240196466,15.8429633
57.18866278,-5.58088398,-14.8727808,0.2418143749,15.88723856
57.19363694,-4.742913723,-15.15529633,-0.2346317619,15.88185409
57.19908924,-4.089296341,-15.39711094,-0.2657563984,15.93311006
57.20409363,-3.804386616,-15.44978333,-0.2968810201,15.91405984
57.20909971,-3.258508444,-15.37556362,-0.3711012602,15.72143601
57.21410317,-2.67671752,-15.07389355,-0.6631938815,15.32406309
57.21910863,-2.195482969,-14.73152351,-1.103726983,14.93506424
57.22411324,-1.865083098,-14.14015484,-1.714248419,14.36527624
57.22911786,-2.260126352,-13.12261963,-2.523488522,13.55283407
57.23364563,-1.630451322,-12.9478426,-1.711854219,13.16189365
57.23909917,0.3734954596,-13.18486881,0.2896983922,13.19333884
57.2441034,1.742978811,-13.59906578,2.67671752,13.96915824
57.24910778,3.256114244,-14.1952219,1.733402014,14.66667267
57.25411171,2.693476915,-14.05156994,0.5889736414,14.31950857
57.25911632,2.236184359,-13.85285091,-0.5410895944,14.04260577
57.26412194,2.142810583,-13.54878712,-1.070208192,13.75887405
57.26909632,1.845929503,-12.98136139,-1.386242747,13.18502439
57.27410132,1.489193439,-12.32295609,-0.9313444495,12.44750362
57.27910655,1.194706678,-11.6023016,-0.2274491638,11.66586729
57.28411078,0.9528923035,-10.78108978,0.3519476354,10.82883963
57.28911517,0.5746083856,-9.725247383,0.8978256583,9.783491318
57.29412063,0.1651999205,-9.018958092,1.383848548,9.126003116
57.29909455,-0.282515794,-8.322244644,1.70946002,8.500695539
57.30409948,-0.8403648138,-7.603984833,1.790862918,7.85709796
57.30910494,-1.347935557,-6.804321289,1.879448295,7.186657385
57.31410986,-1.532289028,-6.313509941,1.82198751,6.747440695
57.31911571,-1.539471745,-5.846640587,1.680729628,6.275191749
57.32411886,-1.577778935,-5.341464043,1.616086125,5.799341243
57.32909424,-1.757344007,-4.934449673,1.489193439,5.445617379
57.33409878,-1.889025092,-4.704606533,1.156399369,5.199903646
57.33910371,-2.054224968,-4.599261284,0.8858546019,5.114468003
57.34410863,-2.147598982,-4.611232281,0.5770025849,5.119431269
57.34911355,-2.006340981,-4.800374508,0.2418143749,5.208404145
57.35411824,-1.982398987,-4.903325081,0.07661445439,5.289458608
57.35909232,-2.097320795,-4.90811348,-0.0287304204,5.337523572
57.36409786,-2.375048161,-4.874594688,-0.1125274822,5.423577194
57.36910248,-2.545036316,-4.86980629,-0.2442085743,5.500169177
57.3741074,-2.612074137,-4.714183331,-0.2585737705,5.395675691
57.37911209,-2.741360903,-4.534617901,-0.1149216816,5.300096801
57.38411786,-2.815581083,-4.314351559,0.1316810995,5.153490673
57.38912186,-2.887407303,-4.050989151,0.349553436,4.986965173
57.39364925,-2.801215887,-3.842693806,0.5770025849,4.790202304
57.39910194,-2.779668093,-3.615244627,0.7829039693,4.627038691
57.40410563,-2.719813108,-3.454833031,1.007958889,4.511012717
57.40911148,-2.650381327,-3.239354849,1.146822572,4.339716929
57.41411601,-2.576161146,-3.11964488,1.292868972,4.247387504
57.4191204,-2.468421936,-2.983175278,1.359906554,4.103874685
57.42409509,-2.358288765,-2.873042107,1.328781962,3.947348268
57.42865363,-2.284068346,-2.810792685,1.240196466,3.828264751
57.43410463,-1.900996208,-2.942473888,1.256955862,3.721811012
57.43866186,-1.745373011,-3.124433279,1.122880578,3.750902699
57.44408432,-1.704671621,-3.34469986,0.8236053586,3.843338168
57.44911971,-1.78368032,-3.483563423,0.5219359994,3.948309359
57.45409355,-1.908178806,-3.541024208,0.14844051,4.025174951
57.45909848,-2.037465572,-3.550601006,-0.2011129409,4.098594866
57.46410371,-2.190694571,-3.598485231,-0.7924807668,4.286754533
57.46910832,-2.236184359,-3.665522814,-1.33835876,4.497530673
57.47411332,-2.161964178,-3.816357613,-1.968033791,4.807476629
57.47912071,-2.018311977,-4.058171749,-2.662352324,5.256468499
57.48364494,-1.845929503,-4.381389141,-3.591302633,5.958311937
57.48909755,-1.707065821,-4.903325081,-4.805162907,7.074338211
57.49410217,-1.757344007,-5.382165432,-5.91128397,8.185306401
57.49910678,-1.89620769,-5.94719696,-7.000645638,9.379434665
57.50411055,-1.920149803,-6.708553314,-7.922413349,10.5572864
57.50911663,-1.97042799,-7.319074631,-8.066065788,11.06855263
57.51412125,-2.243366957,-7.999027729,-8.025363922,11.55091364
57.51864925,-2.463633537,-8.872911453,-8.145073891,12.29391217
57.52409978,-2.466027737,-9.91438961,-8.499416351,13.28971378
57.52910586,-2.382230759,-10.59194851,-8.585607529,13.84113627
57.53366317,-2.688688517,-11.39161205,-8.329427719,14.36583577
57.53863763,-3.246537447,-12.50970364,-7.92001915,15.15781626
57.54409048,-3.215412855,-14.24071217,-8.018181801,16.65617009
57.5486474,-3.409343243,-16.14170837,-9.18894577,18.88425521
57.55410001,-3.38300705,-18.24860573,-11.62863731,21.90163358
57.55865948,-3.210624456,-20.2693119,-15.24867058,25.56707001
57.56410955,-2.315192938,-21.71541023,-18.09298134,28.35974495
57.56911548,-1.589749932,-21.447258,-17.19036865,27.53218035
57.57367171,-0.806845963,-19.93412399,-15.14571953,25.0482159
57.57909386,0.1388636976,-17.55668068,-13.29260826,22.02157474
57.58409917,1.247379065,-14.27183628,-12.45463753,18.98313097
57.5891034,1.929726601,-11.38203526,-12.70602798,17.16734454
57.59410778,2.41574955,-8.4012537,-13.01248646,15.6761511
57.59911294,2.779668093,-5.142745018,-12.2654953,13.58737487
57.60411855,2.853888512,-3.315969467,-10.66137981,11.52412047
57.60909294,2.679111719,-2.207453966,-8.595184326,9.269718778
57.61409755,1.927332401,-2.003946781,-6.414066315,6.990755294
57.61910217,0.06224924326,-2.837129116,-4.75488472,5.537337383
57.62410778,-1.563413739,-4.072536945,-3.502717018,5.594537175
57.6291124,-2.904166698,-5.439626217,-2.26970315,6.570789144
57.63411794,-3.450044632,-7.089231014,-1.031900883,7.951403887
57.63912317,-3.708618402,-9.387664795,1.192312479,10.16384326
57.6440964,-4.05577755,-11.47301483,3.007117271,12.53483766
57.64910032,-4.005499363,-13.65892029,3.782838583,14.72820411
57.65410586,-3.703830004,-15.77300072,3.438073635,16.56279743
57.65911117,-2.889801502,-18.17677879,1.031900883,18.43396483
57.66411602,-1.848323703,-19.88384438,-0.7134721279,19.98230743
57.6691204,-1.122880578,-21.10488892,-1.498770237,21.18781511
57.67409517,-1.182735682,-21.35388565,-2.470816135,21.52886965
57.67909948,-0.4165911078,-19.92694092,-3.881000996,20.30563201
57.68365817,0.7302315235,-18.31803703,-5.16189909,19.04544358
57.68866194,0.4764461517,-14.62378407,-3.088520288,14.95396332
57.69408463,-1.30005157,-10.97262669,1.836352706,11.20093129
57.69911971,-3.816357613,-7.000645638,4.390965939,9.102428612
57.70409332,-5.27682066,-4.723760128,2.262520552,7.434900488
57.70909855,-7.572859764,-2.930502892,-1.884236693,8.335850294
57.71365578,-9.263166428,-1.936909199,-4.967968464,10.68824495
57.71911109,-9.552865028,-1.455674648,-3.97676897,10.44944546
57.72411271,-8.578424454,-1.59693253,-0.3208230138,8.731694396
57.72911817,-7.350199223,-2.061407566,2.525882721,8.040827898
57.73409302,-5.793968201,-2.880224705,3.64158082,7.424747318
57.73865017,-3.931279182,-4.089296341,4.204218388,7.060648187
57.74410255,-2.219424963,-5.956773758,6.323086739,8.96607086
57.74910686,-1.97042799,-7.290344238,9.502586365,12.13799214
57.75411232,-1.55862534,-8.480262756,11.97819138,14.75876817
57.75866986,-1.482010841,-9.792284966,12.60547161,16.03069292
57.76409178,-1.570596337,-11.42991924,11.33654499,16.17489039
57.76909548,-1.398213744,-12.51928043,9.567230225,15.81832097
57.77410094,-0.6464344859,-13.5966711,6.988674641,15.30127171
57.77910563,0.457292527,-15.02361584,4.05577755,15.56815599
57.78411048,2.128445387,-16.07467079,0.05027823523,16.21505007
57.78866863,4.333505154,-16.78574753,-4.745307922,17.97382915
57.79364286,5.880159378,-17.13769531,-8.094796181,19.84446019
57.79864894,6.409277916,-17.07065773,-8.997409821,20.33321377
57.80410102,5.664681435,-16.24226379,-7.627926826,18.81714688
57.80910555,4.75488472,-15.14571953,-5.712565422,16.8711337
57.81410955,3.497928619,-13.57512379,-3.56496644,14.46473215
57.81911455,2.521094322,-12.2750721,-2.276885748,12.7364642
57.82367209,1.458068848,-11.07557678,-1.278503656,11.24406232
57.82909363,0.2992752194,-10.03409958,-0.8930372596,10.07820597
57.83409948,-1.312022567,-8.645462036,0.6129156351,8.765904552
57.83910317,-2.272097349,-7.797914982,1.335964561,8.231324665
57.84410802,-2.930502892,-7.32146883,1.546654344,8.036410435
57.8491124,-3.493140221,-6.95276165,1.156399369,7.866395786
57.85367148,-4.118026733,-6.612784863,0.423773706,7.801708272
57.85864494,-4.848258495,-6.282385349,-0.4860229492,7.950483911
57.86409794,-4.853046894,-6.222530365,-1.321599364,8.001160739
57.86910186,-4.783615112,-6.244078159,-1.48679924,8.005126956
57.87410771,-4.467580318,-6.337451935,-1.30005157,7.862105635
57.87911417,-4.003105164,-6.540958881,-1.079784989,7.74434824
57.88411755,-3.270479441,-6.833051682,-0.9576807022,7.635691415
57.88912225,-2.401384354,-7.223306656,-0.9744400978,7.674134437
57.89409671,-1.522712231,-7.750030994,-1.086967587,7.972648963
57.89865363,-1.022324085,-8.125920296,-1.113303781,8.265299299
57.90410555,-0.691924274,-8.42759037,-1.106121182,8.527985854
57.90866309,-0.390254885,-8.640673637,-1.108515382,8.720226266
57.91408532,-0.09576806426,-8.798690796,-1.094150186,8.866977832
57.91912032,0.01197100803,-8.884882927,-1.163581967,8.960759506
57.92409486,0.06224924326,-9.011775017,-1.295263171,9.104596125
57.92910032,0.1268926859,-9.052476883,-1.309628367,9.147598916
57.93410432,0.05506663769,-9.090784073,-1.328781962,9.187548579
57.93866248,-0.1436520964,-9.085995674,-1.355118155,9.187616586
57.9436364,-0.2729389966,-9.066842079,-1.359906554,9.172320689
57.94908902,-0.4979939461,-8.949525833,-1.213860273,9.045190289
57.95364555,-0.6105214357,-8.750806808,-0.9720458984,8.825770757
57.9591004,-0.758961916,-8.590395927,-0.787692368,8.659756616
57.96410402,-0.8523358107,-8.415618896,-0.691924274,8.48692388
57.96910863,-0.9457096457,-8.212111473,-0.490811348,8.280944231
57.97411355,-1.007958889,-8.046912193,-0.323217243,8.116233508
57.97911817,-0.9672574997,-7.99663353,-0.1723825186,8.056764277
57.9840924,-0.8643068075,-7.95832634,0.0718260482,8.005444608
57.98909702,-0.7350199223,-7.876923561,0.3399766386,7.918444493
57.99365548,-0.6584054828,-7.824251175,0.4932055473,7.867379229
57.99910678,-0.457292527,-7.80509758,0.7038952708,7.850104027
58.00411271,-0.3327940404,-7.903259754,0.6464344859,7.936633049
58.00911732,-0.1292868853,-8.152256966,0.5195417404,8.169818379
58.01367386,-0.04070143029,-8.327033043,0.4046200812,8.336957078
58.01909579,0.1795651317,-8.66940403,0.0023942017,8.671263783
58.02365363,0.3016694188,-8.975862503,-0.4979939461,8.994726793
58.02865855,0.2753331959,-9.342175484,-1.089361787,9.409503719
58.03411078,0.2849099934,-9.718064308,-1.764526606,9.881067844
58.03911786,0.3639186621,-10.00776291,-2.245761156,10.26309887
58.04367355,0.5195417404,-10.25436592,-2.803610086,10.64340987
58.04864779,0.6703764796,-10.40041256,-3.260902643,10.92023224
58.05410002,0.85473001,-10.45308495,-3.713406801,11.12595786
58.05865725,0.9983820915,-10.42914295,-3.804386616,11.14617186
58.06366279,1.036689281,-10.36210537,-3.665522814,11.04010914
58.06863694,0.9744400978,-10.29506683,-3.378218651,10.87889222
58.07408925,0.8882488012,-10.26633644,-2.995146275,10.73114864
58.07864655,0.825999558,-10.24478912,-2.621650934,10.60712181
58.08409825,0.6823474765,-10.22802925,-2.26970315,10.49903485
58.08910286,0.5243301988,-10.23521233,-1.960851192,10.4345307
58.09410863,0.4620809257,-10.22563553,-1.8602947,10.4037415
58.09911363,0.5027823448,-10.19929886,-1.814804912,10.37169244
58.10411848,0.6560112834,-10.23042393,-1.786074519,10.40586309
58.10864494,0.9169792533,-10.28309631,-1.912967205,10.49963639
58.11409817,1.429338455,-10.43871975,-2.126051188,10.74848697
58.11910502,2.061407566,-10.66137981,-2.372653961,11.1150307
58.12410709,2.85867691,-10.9103775,-2.461239338,11.54409243
58.12911232,3.320757866,-11.24317074,-2.22900176,11.93334697
58.13411632,3.483563423,-11.48259163,-1.707065821,12.12019795
58.13912186,3.438073635,-11.68849277,-1.158793569,12.23862804
58.14409609,3.076549292,-11.88002872,-0.6655880809,12.28996524
58.14910094,2.640804529,-12.09550667,-0.6392518282,12.39692595
58.15365917,2.109291792,-12.2511301,-0.9528923035,12.46785083
58.15866371,1.515529633,-12.43308926,-1.508347034,12.61561133
58.16408525,0.7374141216,-12.68208599,-2.379836559,12.92450025
58.16912063,0.07661445439,-12.89517021,-3.150769472,13.27473664
58.17364717,-0.6607996821,-13.14177322,-3.790021181,13.69332393
58.17865209,-1.084573388,-13.32133865,-4.378994942,14.06449287
58.18365725,-1.63523972,-13.43147182,-4.553771496,14.27638887
58.18910955,-2.039859772,-13.45541382,-4.419696331,14.30884008
58.19411425,-2.078166962,-13.37401104,-4.228160381,14.17957296
58.19911978,-2.011129379,-13.30457878,-4.168305397,14.08656196
58.20409325,-1.63523972,-13.24951267,-4.110844135,13.96863037
58.20909794,-1.158793569,-13.13937855,-3.804386616,13.72805262
58.21410409,-0.5722141862,-13.04600525,-3.244143248,13.45548763
58.21910863,0.007182605099,-13.07712936,-2.643198729,13.341584
58.22411302,0.5315127969,-13.18486881,-2.236184359,13.38371368
58.22867086,0.940921247,-13.26866627,-2.205059767,13.48351311
58.2340924,1.18752408,-13.18965721,-2.169146776,13.41948093
58.23909732,0.9241618514,-12.87122822,-2.130839586,13.07910809
58.24410225,-0.06943184882,-12.41633034,-2.130839586,12.59803783
58.2491074,-0.8643068075,-12.14339066,-1.371877551,12.25116365
58.25411263,-1.455674648,-12.06198788,-0.3399766386,12.15426363
58.25911763,-1.833958507,-12.40675354,0.7517793179,12.56408012
58.26412186,-2.042253971,-13.39555836,2.195482969,13.72705105
58.26909632,-2.336740971,-14.12818432,3.308786631,14.6974154
58.27365356,-2.803610086,-14.63096619,3.890577793,15.39681774
58.27910709,-3.399766445,-14.92784786,4.551377296,15.97229129
58.28366371,-3.775655985,-15.16008472,5.042188644,16.41668095
58.28908532,-4.592078686,-15.31570816,4.565742493,16.62841266
58.29412102,-5.348646641,-15.34443855,3.876212597,16.7058325
58.2990954,-6.335057735,-15.47851372,2.923320293,16.97831396
58.30365271,-7.673416615,-15.97411346,1.752555609,17.80800592
58.30910494,-8.817844391,-16.99404335,-0.356736064,19.14886811
58.31410956,-8.774748802,-17.61653519,-2.056619167,19.78808255
58.31866656,-8.080430984,-17.87750435,-3.270479441,19.88955913
58.32364248,-7.031770229,-17.87750435,-3.847482204,19.5921942
58.32909363,-5.386953831,-17.49682617,-4.012681961,18.74192664
58.33365117,-4.314351559,-16.84320831,-4.12999773,17.87076319
58.33910317,-3.770867586,-15.68920326,-4.853046894,16.85000313
58.34366125,-3.541024208,-14.94221306,-4.79319191,16.08674213
58.34863517,-2.135627985,-14.17367363,-3.268085241,14.70150714
58.35408771,-1.733402014,-13.55597019,-2.621650934,13.91553319
58.35864625,-1.288080573,-12.95023727,-0.8188169599,13.03987186
58.36409786,0.2968810201,-12.6533556,2.885013103,12.98148092
58.36910163,2.140416384,-12.91432381,3.849876404,13.64487779
58.37410709,3.086126089,-12.75151825,2.066195965,13.28136129
58.37911209,2.633621931,-12.28225517,0.873883605,12.59180008
58.38411663,2.79163909,-12.03325748,0.4213795066,12.36002003
58.38912125,3.514688015,-11.93509579,0.1292868853,12.44251817
58.39409571,3.790021181,-11.6717329,0.1436520964,12.27249956
58.39910071,3.210624456,-11.16176796,0.4548983276,11.62325711
58.40410625,2.221819162,-10.42195988,0.4357447028,10.66506453
58.40911086,1.259350061,-9.665391922,0.5626373887,9.763315237
58.41366802,0.5003881454,-8.971074104,0.9433154464,9.034401082
58.41864279,-0.2082955539,-8.28633213,1.30005157,8.39028136
58.42409456,-0.8475474119,-7.350199223,1.757344007,7.604736891
58.42910071,-1.163581967,-6.639121532,2.018311977,7.036010301
58.43410409,-1.44849205,-5.956773758,2.063801765,6.468427981
58.43911025,-1.855506301,-5.125985622,2.080561161,5.835012166
58.44411486,-2.195482969,-4.548983097,2.245761156,5.52782379
58.4491194,-2.521094322,-4.007893562,2.205059767,5.223161491
58.45409448,-2.882618904,-3.56496644,1.984793186,4.99578637
58.45909848,-3.023876667,-3.153163671,1.527500629,4.628123746
58.46410402,-3.033453465,-3.038241863,1.012747288,4.411168848
58.46910902,-2.990357876,-3.01190567,0.5985504389,4.28626628
58.47411271,-2.767697096,-3.102885485,0.2011129409,4.162750528
58.47911817,-2.559401512,-3.268085241,0.05506663769,4.151379238
58.48409302,-2.53067112,-3.306392431,0.141257897,4.166111019
58.48909786,-2.614468336,-3.327940464,0.2035071403,4.23698567
58.49365517,-2.664746523,-3.339911461,0.3256114423,4.285079394
58.49866032,-2.647987127,-3.337517262,0.4046200812,4.279553097
58.50408132,-2.707842112,-3.452438831,0.3950432837,4.405428694
58.50911694,-2.717418909,-3.471592426,0.6153098345,4.451395926
58.51412156,-2.78924489,-3.488351822,0.8164227605,4.540377915
58.51909732,-2.908955097,-3.488351822,0.9361328483,4.637560016
58.52410156,-3.007117271,-3.45722723,1.022324085,4.694712019
58.52910656,-3.107673883,-3.399766445,1.130063176,4.742688228
58.53366309,-3.172317266,-3.34230566,1.177947283,4.75627625
58.5390844,-3.076549292,-3.299209833,1.237802267,4.677830215
58.54412032,-2.875436306,-3.263296843,1.213860273,4.515605939
58.54909517,-2.657563925,-3.251325846,1.096544385,4.340066285
58.55409971,-2.449268341,-3.27287364,0.8858546019,4.182744989
58.55910463,-2.324769735,-3.296815634,0.7613561153,4.105266225
58.56410933,-2.26730895,-3.296815634,0.5937620401,4.045026151
58.56911517,-2.264914751,-3.306392431,0.3639186621,4.02423987
58.57411979,-2.324769735,-3.361459255,-0.06464344263,4.087559348
58.57909394,-2.331952572,-3.454833031,-0.4860229492,4.196438058
58.58409786,-2.303221941,-3.560178041,-1.04147768,4.36627699
58.58910348,-2.219424963,-3.64158082,-1.771709204,4.617998651
58.59410863,-1.953668594,-3.775655985,-2.755726099,5.066204242
58.59911571,-1.651999116,-3.892971992,-3.632004023,5.574565923
58.60411817,-1.460463047,-4.187458992,-4.446032524,6.279726931
58.60909294,-1.223437071,-4.644751072,-5.499481201,7.301698725
58.61409702,-0.9457096457,-5.475539207,-6.964732647,8.90973609
58.61910163,-0.85473001,-6.337451935,-8.054094315,10.28407972
58.62410709,-0.8882488012,-7.402871609,-9.229647636,11.86498586
58.62911232,-0.8188169599,-8.688557625,-10.07240677,13.327223
58.6341164,-1.098938584,-10.51772785,-10.21127033,14.70035057
58.63912225,-1.515529633,-11.89918232,-9.935936928,15.57594981
58.64409548,-1.719036818,-13.12740803,-9.552865028,16.32608831
58.64910133,-2.051830769,-14.45619011,-10.41238308,17.9334649
58.65410594,-2.693476915,-16.92461205,-11.84650993,20.83355727
58.65866309,-3.031059265,-19.3068428,-13.07473564,23.51361757
58.66408502,-3.751713991,-21.87342644,-15.81130791,27.24921283
58.6691204,-3.861847401,-24.12637138,-19.68752098,31.37824316
58.67409509,-2.025494576,-25.33065414,-20.83913231,32.86356802
58.67910225,-0.5363011956,-24.43522263,-18.40183449,30.59403923
58.68365632,0.1628057212,-21.90215683,-15.24627686,26.68669964
58.68910963,0.5530605912,-18.2845192,-12.8640461,22.36321087
58.69411425,0.3734954596,-13.13219643,-10.93671322,17.09402755
58.69911979,0.5147533417,-9.042900085,-10.58237171,13.92930738
58.70409363,1.328781962,-5.566518784,-10.41956615,11.8877732
58.70909917,1.493981838,-2.853888512,-10.29985619,10.79183482
58.71410371,1.742978811,-0.5722141862,-8.916007042,9.102779014
58.71910809,1.704671621,0.282515794,-7.477091789,7.674152861
58.72411394,1.89860189,0.2011129409,-5.398924828,5.726563092
58.72911763,1.398213744,-0.8643068075,-3.658340216,4.0106709
58.73409233,-0.2753331959,-2.671929121,-3.093308687,4.096775834
58.73909663,-1.922544003,-4.118026733,-2.37744236,5.128991304
58.74410217,-3.153163671,-5.623979568,-1.067813993,6.53542761
58.7491074,-4.213795185,-7.680599213,1.491587639,8.886647726
58.75411232,-4.714183331,-9.380482674,3.859453201,11.18536359
58.75911856,-5.049371243,-11.14740276,5.133168221,13.27065011
58.7641234,-5.286397457,-13.23035812,4.915296078,15.07144683
58.7690964,-5.432443619,-16.08664131,2.772485495,17.20401547
58.77410102,-5.011064053,-18.22705841,0.2011129409,18.90441397
58.77865817,-4.393360138,-20.42493439,-2.652775526,21.05983799
58.78411109,-3.42131424,-22.47916031,-5.509057999,23.39589193
58.78911517,-1.826775908,-24.03778458,-9.339780807,25.85311786
58.7941204,0.09576806426,-23.85103798,-11.52089882,26.48796507
58.79909456,0.9840168953,-21.80878258,-11.63821411,24.73942834
58.80409971,0.06943184882,-18.461689,-9.421183586,20.7267335
58.80865763,-0.8714894056,-14.38675785,-3.75650239,14.89461666
58.81366279,-2.097320795,-9.955090523,2.837129116,10.56181251
58.81908371,-4.953603268,-5.049371243,7.345410824,10.19751908
58.82411979,-7.347805023,-2.523488522,6.775590897,10.3085821
58.82864679,-9.58638382,-1.000776291,4.474762917,10.62656158
58.8336514,-11.20965195,-0.2992752194,1.405396342,11.30137166
58.83865756,-11.27908421,0.02633621916,-0.8810662031,11.31347479
58.84366156,-10.50815105,-0.1292868853,-0.1580173075,10.51013431
58.84863571,-9.184157372,-0.5410895944,1.259350061,9.28587568
58.85364063,-6.679822922,-1.393425345,2.518700123,7.273617997
58.85864494,-3.960009575,-3.289633036,3.490746021,6.220021634
58.86409671,-1.515529633,-5.214571476,5.805939198,7.949686517
58.86910186,0.3591302633,-7.671022415,10.08916569,12.67930691
58.87410686,0.6488286853,-9.481039047,12.2559185,15.50866269
58.87866533,0.7110779285,-11.0085392,12.70842266,16.82847508
58.88408625,0.8116343617,-12.17930412,11.84172153,17.00648606
58.88912156,1.206677675,-13.43386555,10.30943298,16.97672592
58.8940964,1.577778935,-14.23831749,8.441955566,16.6278587
58.89910163,2.037465572,-15.03558636,5.518634796,16.14544682
58.90410594,3.220201254,-15.84243298,1.608903527,16.24625955
58.90866402,5.015852451,-16.56548119,-3.134010077,17.58965497
58.91408525,6.337451935,-17.04432106,-7.931990147,19.83906866
58.91912279,5.920860767,-16.99404335,-9.809044838,20.49564496
58.92409548,4.663905144,-16.30212021,-9.62469101,19.49732832
58.9291001,3.074155092,-14.77701283,-7.666234016,16.92872357
58.93410471,2.037465572,-13.41950035,-5.647922039,14.701472
58.93910925,1.046266198,-12.22718811,-3.962403774,12.89571424
58.94366748,-0.02154781483,-11.21444035,-2.93529129,11.59224187
58.94908986,-1.218648672,-10.04367638,-1.8579005,10.28651224
58.9536471,-2.099714994,-9.184157372,-1.335964561,9.515374453
58.9586514,-3.181894064,-8.4012537,-0.7996633649,9.019144919
58.96410371,-4.158728123,-7.450755596,0.2442085743,8.536299923
58.96910894,-4.800374508,-6.928819656,0.8523358107,8.472226011
58.97411394,-4.972756863,-6.701370716,0.9385270476,8.397470649
58.97911856,-5.252878666,-6.445190907,0.316034615,8.320642883
58.98409294,-4.819528103,-6.368576527,0.07661445439,7.987019963
58.98909733,-4.137180328,-6.517016888,-0.1388636976,7.720560427
58.99410248,-3.361459255,-6.813898087,-0.3974374831,7.608322549
58.99866186,-2.729389906,-7.17063427,-0.7445967197,7.708565973
59.00408286,-1.127668977,-7.606379032,-0.2633621991,7.694023586
59.00911817,-0.2346317619,-7.915230751,0.349553436,7.926418959
59.01412248,0.383072257,-8.334216118,0.5793967843,8.363109666
59.01909579,0.8571242094,-8.662221909,0.7637503147,8.73796686
59.02410094,1.074996591,-8.947132111,0.5075707436,9.025764163
59.02865856,1.096544385,-9.03571701,0.3399766386,9.108357459
59.03411017,1.055842996,-9.107542992,-0.1197100878,9.169322455
59.0391154,0.9959878922,-9.198522568,-0.5267243981,9.267267553
59.04412033,0.9097966552,-9.169792175,-0.9050082564,9.259149985
59.04864833,0.8427590132,-9.167398453,-1.007958889,9.261070039
59.05410002,0.6488286853,-9.114726067,-1.194706678,9.215559342
59.05910502,0.3256114423,-9.105149269,-1.307234168,9.204272225
59.06410994,-0.1053448766,-9.033323288,-1.371877551,9.137509244
59.06911456,-0.4525041282,-8.892065048,-1.347935557,9.005026989
59.07411948,-0.8355764151,-8.793902397,-1.472434044,8.955387726
59.07909517,-1.209071875,-8.702922821,-1.608903527,8.932597102
59.08409879,-1.513135433,-8.499416351,-1.541865945,8.769664061
59.0886561,-1.632845521,-8.255207062,-1.256955862,8.508499643
59.09366071,-1.673547029,-8.080430984,-1.00556469,8.312958854
59.09908317,-1.632845521,-7.946355343,-0.6464344859,8.138097153
59.10411848,-1.474828243,-7.829039574,-0.2011129409,7.969280106
59.10909202,-1.367089152,-7.773972988,0.215478152,7.89620286
59.11364963,-1.304839969,-7.733271599,0.5841852427,7.864309847
59.11910286,-1.156399369,-7.704541206,0.9050082564,7.843229861
59.1241074,-0.9528923035,-7.836222172,1.067813993,7.965840093
59.12911263,-0.7733271718,-7.943961143,1.051054597,8.050420444
59.13367025,-0.55784899,-8.140285492,0.9241618514,8.211547876
59.1390911,-0.383072257,-8.319850922,0.8044517636,8.367425312
59.14409579,-0.1771709323,-8.535328865,0.5482721925,8.554754863
59.14910163,-0.05746084079,-8.801085472,0.2944868207,8.80619837
59.15410594,-0.004788403399,-8.992621422,0.05267243832,8.992776954
59.15911356,0.05027823523,-9.203310966,-0.2346317619,9.206438655
59.16411579,0.09816227108,-9.284713745,-0.6703764796,9.309401151
59.16867325,0.2130839527,-9.361329079,-1.276109457,9.450309108
59.17409548,0.3926490843,-9.481039047,-2.018311977,9.701435871
59.17865202,0.5793967843,-9.593565941,-2.707842112,9.985219927
59.1841044,0.8212111592,-9.806650162,-3.435679436,10.42346719
59.18910933,1.019929886,-10.02931118,-3.806780815,10.77584892
59.19366686,1.201889277,-10.27830791,-3.971980572,11.08443869
59.19908956,1.407790542,-10.60870743,-3.883395195,11.38452044
59.20364656,1.532289028,-10.81460953,-3.632004023,11.51065342
59.20909856,1.802833915,-11.12106705,-3.066972494,11.67624352
59.21410317,1.941697598,-11.3030262,-2.533065319,11.74499939
59.21910871,2.128445387,-11.47780323,-1.920149803,11.83035173
59.22411294,2.217030764,-11.57596493,-1.551442742,11.88802608
59.22911817,2.272097349,-11.61427212,-1.223437071,11.89750148
59.23409263,2.37744236,-11.56399441,-1.012747288,11.8492133
59.23909848,2.561795712,-11.42034245,-1.074996591,11.75340957
59.24410256,2.765302896,-11.26232433,-1.393425345,11.68026043
59.24910679,2.920926094,-11.13782597,-1.731007814,11.64385523
59.25366617,2.947262287,-11.08275986,-1.951274395,11.63277236
59.25863817,2.904166698,-11.17852783,-1.999158382,11.72136097
59.2636444,2.667140722,-11.2982378,-1.884236693,11.76070427
59.26864871,2.30561614,-11.48498535,-1.716642618,11.83924052
59.27410163,1.843535304,-11.65497398,-1.594538331,11.90712364
59.27910625,1.180341482,-11.80580902,-1.656787634,11.97978622
59.28411017,0.6177040339,-11.8680582,-1.831564307,12.02443311
59.28911548,0.06464344263,-11.94946098,-2.217030764,12.15356005
59.29412002,-0.4884171486,-12.09071827,-2.650381327,12.38743479
59.29909448,-1.161187768,-12.41393566,-3.05021286,12.8358075
59.30365302,-1.539471745,-12.73475838,-3.320757866,13.25033875
59.30910494,-1.802833915,-13.02924538,-3.581725836,13.63232208
59.31366256,-1.989581585,-13.23035812,-3.713406801,13.88489111
59.31908563,-2.382230759,-13.27824306,-3.787626982,14.01188354
59.32367294,-2.501940727,-13.24951267,-3.766079187,13.99973735
59.32864587,-2.260126352,-13.27345467,-3.610456228,13.9401637
59.3336511,-1.711854219,-13.33330917,-3.201047659,13.81862093
59.33910379,-0.787692368,-13.66131496,-2.645592928,13.93740104
59.34410802,0.0143652102,-13.95101357,-2.037465572,14.09901599
59.34911387,0.7182605267,-14.04917526,-1.211466074,14.11959184
59.35367148,1.175553083,-14.01086807,-0.4620809257,14.06768879
59.35909271,1.37666595,-13.80017853,-0.03112462163,13.86870958
59.36365025,1.30005157,-13.46499062,-0.1508347094,13.52844623
59.36910187,1.101332784,-13.00051498,-0.5626373887,13.05920689
59.37410686,0.5841852427,-12.38759995,-0.8619126081,12.43128304
59.3791121,-0.08619125932,-12.15536213,-0.9959878922,12.19640313
59.38411663,-0.962469101,-12.24394703,-1.04147768,12.32579658
59.38912187,-1.874659896,-12.51209831,-0.7517793179,12.67407299
59.39409571,-2.865859509,-12.94544888,-0.1508347094,13.2597341
59.39910317,-3.569754839,-13.42907715,0.8355764151,13.9205406
59.40410587,-4.395754337,-13.95580196,1.991975784,14.76668657
59.40911171,-5.346252441,-14.28141308,3.201047659,15.58165206
59.41411602,-6.667851925,-14.4897089,4.151545525,16.48172453
59.4191201,-7.503427982,-14.60223579,4.338293552,16.98079835
59.4240951,-8.204929352,-14.73870564,3.761290789,17.28287065
59.42910033,-8.585607529,-14.92066479,2.468421936,17.39057219
59.43410433,-9.078812599,-15.30373764,0.3256114423,17.79705725
59.43910963,-8.908824921,-15.84243298,-1.431732655,18.23183212
59.44411579,-8.28633213,-16.35239792,-2.667140722,18.52506026
59.44911971,-7.58722496,-16.58942413,-3.023876667,18.49104664
59.45409363,-6.607996464,-16.4385891,-2.56658411,17.9019603
