Time (s),Acceleration x (m/s^2),Acceleration y (m/s^2),Acceleration z (m/s^2),Absolute acceleration (m/s^2)
40.00330586,-0.2944868207,-9.562441826,-1.230619669,9.645799134
40.00786194,-0.7469909191,-9.454702377,-1.386242747,9.584939302
40.01328494,-1.182735682,-9.255983353,-1.522712231,9.454667845
40.01828748,-1.63763392,-8.995016098,-1.491587639,9.263746172
40.02284563,-2.032677174,-8.70771122,-1.355118155,9.043912671
40.02829755,-2.300827742,-8.528146744,-1.256955862,8.922053195
40.03330255,-2.384624958,-8.327033043,-1.058237195,8.726155021
40.03830771,-2.501940727,-8.123526573,-0.7517793179,8.533262186
40.0433124,-2.439691544,-7.893682957,-0.3136404157,8.268052719
40.04828678,-2.351106167,-7.76679039,-0.1292868853,8.115876309
40.05329109,-2.173935175,-7.596801758,-0.05985504389,7.901960119
40.05829609,-2.011129379,-7.489062786,0.06703764945,7.7546887
40.06330125,-1.78128612,-7.544129372,0.2513911724,7.755647345
40.06830617,-1.551442742,-7.702147007,0.3663128614,7.865381632
40.0733114,-1.359906554,-7.960720539,0.390254885,8.085463265
40.07831701,-1.175553083,-8.262390137,0.2753331959,8.350139172
40.08329078,-1.000776291,-8.501810074,0.05267243832,8.560671825
40.08829424,-0.8475474119,-8.757989883,-0.3280056417,8.805016247
40.09329971,-0.7182605267,-9.102754593,-0.8451532125,9.170077607
40.09830432,-0.5219359994,-9.617507935,-1.661576033,9.77393017
40.10330994,-0.2920926213,-10.08677197,-2.398990154,10.37224376
40.10831478,-0.107739076,-10.55364132,-3.136404276,11.01035806
40.11328901,0.04548983276,-10.88404083,-3.8642416,11.54975226
40.11829332,0.2274491638,-11.10670185,-4.515464306,11.99166281
40.12329886,0.3136404157,-11.18092155,-4.814739704,12.17756525
40.12830401,0.3184288144,-11.13303757,-4.845864296,12.14612379
40.13330924,0.2609679997,-10.98699188,-4.611232281,11.91828671
40.13831324,0.04788403213,-10.67574501,-3.995922565,11.39917635
40.14328832,-0.1292868853,-10.45787334,-3.411737442,11.00108096
40.14829201,-0.1651999205,-10.3357687,-2.930502892,10.74445219
40.15329855,-0.1268926859,-10.32379818,-2.583343744,10.642865
40.1583044,0.1915361285,-10.48181534,-2.446874142,10.76533009
40.1633074,0.653617084,-10.7140522,-2.48996973,11.01898721
40.16831271,1.398213744,-10.9295311,-2.365471363,11.26965423
40.17328624,2.291250944,-11.20965195,-2.245761156,11.65974146
40.17829078,3.598485231,-11.44667816,-2.011129379,12.16635435
40.18329701,4.515464306,-11.50413895,-1.721431017,12.47789868
40.18830101,5.171475887,-11.54005241,-1.156399369,12.69859174
40.19330709,5.583278179,-11.67891598,-0.4189853072,12.95166485
40.19831078,5.566518784,-11.85369301,0.09097966552,13.09597062
40.2033164,5.121197224,-12.09790134,0.282515794,13.14023185
40.20829017,4.369418144,-12.39238834,0.1125274822,13.14061514
40.21329602,3.335123062,-12.74912453,-0.4213795066,13.18486946
40.2183004,2.449268341,-12.97657299,-1.055842996,13.24783629
40.22330471,1.455674648,-13.14416695,-1.82198751,13.34944762
40.22831086,0.390254885,-13.29979038,-2.494758129,13.53737571
40.23331478,-1.012747288,-13.57033539,-3.201047659,13.97949805
40.23829017,-1.862688899,-13.81933212,-3.543418407,14.38747248
40.24329424,-2.554613113,-14.05396366,-3.816357613,14.78528079
40.24829886,-3.181894064,-14.12100124,-4.086902142,15.04094063
40.2533044,-3.773261786,-14.08030033,-4.331110954,15.20693539
40.25830902,-3.988739967,-14.08748245,-4.484339714,15.31262587
40.26331332,-3.799597979,-14.14494324,-4.750096321,15.3973952
40.26828809,-3.236960649,-14.25507736,-4.65193367,15.34032698
40.2732924,-2.279279947,-14.41069984,-4.077325344,15.14886032
40.27829702,-1.369483352,-14.53998661,-3.359065056,14.98566026
40.28330224,-0.5937620401,-14.63336086,-2.41335535,14.84291371
40.2883074,0.02154781483,-14.65969658,-1.719036818,14.76015771
40.29331232,0.6153098345,-14.40830612,-1.52510643,14.50185647
40.29828648,0.6775590777,-13.89355278,-1.601720929,14.00197861
40.30284409,0.2920926213,-13.10825443,-1.702277422,13.22155062
40.30784932,-0.2705447972,-12.49055004,-1.841141105,12.62841381
40.31330094,-0.8978256583,-12.20324612,-1.549048543,12.33389063
40.31785971,-1.295263171,-12.15296745,-0.4261679053,12.22922498
40.32283271,-1.886630893,-12.33971596,1.053448796,12.52747861
40.32783848,-2.564189911,-12.83770943,1.67115283,13.19752268
40.33284278,-3.004723072,-13.38837624,2.061407566,13.87538757
40.33784655,-3.371036053,-13.98213768,3.105279684,14.71417072
40.3428524,-3.610456228,-14.17127991,4.192247391,15.21300452
40.34830463,-4.256890774,-14.03720474,5.042188644,15.51089625
40.35331055,-4.637568474,-13.90312958,5.166687489,15.54022886
40.35831486,-5.030217648,-13.85524559,4.659116745,15.45892263
40.36328863,-5.571307182,-14.04438686,3.730166197,15.56272489
40.36829355,-5.892130375,-14.73870564,2.183511972,16.02230847
40.3732994,-5.669469833,-15.452178,0.7182605267,16.47509003
40.3783034,-5.358223438,-16.08424759,-0.8283938169,16.97350333
40.38330902,-5.166687489,-16.45774269,-2.078166962,17.37442753
40.38786625,-5.011064053,-16.56069374,-2.722207308,17.51507216
40.39328717,-4.833893299,-16.33563805,-3.167528868,17.32780523
40.39829448,-4.589684486,-16.00284386,-3.509899616,17.01398279
40.40329794,-3.924096584,-15.57428169,-3.715801001,16.48526498
40.40830255,-2.770091295,-14.84644508,-3.878606796,15.59275242
40.41330709,-2.355894566,-13.99650288,-3.890577793,14.71696054
40.41786432,-2.207453966,-13.14416695,-3.112462282,13.68683306
40.42328625,-0.7948749661,-12.89038181,-0.3375824392,12.91927751
40.42829148,1.283292055,-13.15613842,2.422932148,13.43880266
40.4332964,2.45405674,-13.25669479,1.994369984,13.62864127
40.43830248,3.059789658,-13.11064816,1.498770237,13.54613303
40.44330625,3.569754839,-12.75151825,0.6607996821,13.25824361
40.44831086,3.560178041,-12.53125191,0.6153098345,13.04169269
40.45331694,3.497928619,-12.31098557,0.4884171486,12.80759234
40.45829017,3.153163671,-11.83932781,0.5219359994,12.2631375
40.46329517,2.207453966,-10.96783829,0.7158663273,11.21065539
40.46830071,1.462857246,-10.19211674,0.9433154464,10.33968273
40.47330502,0.9792284966,-9.423578262,1.465251446,9.586953505
40.47831171,0.7062895298,-8.808267593,1.800439715,9.018093261
40.48331486,0.1771709323,-7.951143742,2.106897593,8.227459742
40.48828986,-0.3998316824,-7.10599041,2.171540976,7.441139381
40.49329448,-0.7948749661,-6.375759125,2.169146776,6.781395753
40.49829855,-1.079784989,-5.882553577,2.173935175,6.363675539
40.50330409,-1.383848548,-5.264849663,2.324769735,5.919310188
40.50830771,-1.56101954,-4.766855717,2.461239338,5.587252859
40.51331363,-1.723825216,-4.299986362,2.387019157,5.211460117
40.51828748,-1.800439715,-3.90254879,2.145204782,4.803475178
40.52329179,-1.984793186,-3.552995205,1.800439715,4.45025416
40.52785079,-2.078166962,-3.471592426,1.429338455,4.291123433
40.53330309,-2.252943754,-3.452438831,1.07739079,4.260969415
40.53830717,-2.324769735,-3.507505417,0.8906430602,4.301208392
40.54286555,-2.217030764,-3.548206806,0.8643068075,4.272238664
40.54828655,-2.487575531,-3.598485231,0.8451532125,4.455492334
40.55284378,-2.770091295,-3.622427225,0.8331822157,4.635685213
40.55785048,-2.873042107,-3.612850428,0.7086837292,4.670041947
40.56330102,-3.01429987,-3.672705412,0.8978256583,4.835375855
40.56830617,-3.100491285,-3.682282209,1.144428372,4.947925301
40.57331079,-3.227383852,-3.634398222,1.340752959,5.042070553
40.57786902,-3.287238836,-3.538630009,1.549048543,5.072217749
40.58328994,-3.399766445,-3.483563423,1.640028119,5.136469433
40.58784717,-3.624821424,-3.390189648,1.656787634,5.232366718
40.59329948,-3.730166197,-3.251325846,1.666364431,5.221305395
40.59785755,-3.730166197,-3.102885485,1.63763392,5.120925995
40.60327886,-3.706224203,-2.980781078,1.618480325,5.024005597
40.60831486,-3.550601006,-2.863465309,1.575384736,4.82576814
40.61328902,-3.366247654,-2.772485495,1.48679924,4.607479904
40.61784655,-3.246537447,-2.71263051,1.285686255,4.421691851
40.62329909,-3.145981073,-2.705447912,0.9816226959,4.263827909
40.6283034,-3.141192675,-2.700659513,0.6631938815,4.195292523
40.63330832,-3.177105665,-2.719813108,0.2920926213,4.192457734
40.63831578,-3.155557871,-2.79163909,-0.2226607651,4.21904872
40.64328832,-3.100491285,-2.947262287,-0.7374141216,4.340873275
40.64829294,-3.009511471,-3.19865346,-1.319205165,4.585721919
40.65329763,-2.870647907,-3.557783842,-2.147598982,5.050804556
40.65785517,-2.621650934,-3.971980572,-3.117250681,5.689194591
40.66327763,-2.336740971,-4.522646904,-4.235342979,6.622146445
40.66831202,-2.149993181,-4.932055473,-5.145139217,7.444467707
40.67328686,-2.035071373,-5.322310448,-6.071695328,8.326703318
40.67829148,-1.972822189,-5.822698593,-7.240066051,9.498126275
40.68329663,-2.070984364,-6.232107162,-8.056488991,10.3939959
40.68785425,-2.37744236,-6.780379295,-8.693346024,11.27829955
40.69282748,-2.817975283,-7.51300478,-9.617507935,12.52528181
40.69828032,-3.481169224,-8.791508675,-11.01093388,14.51378065
40.70328563,-4.089296341,-10.18014526,-11.18810463,15.66944119
40.70828955,-4.438849926,-11.65497398,-9.660603523,15.77558454
40.7132954,-4.335899353,-13.33570385,-7.094019413,15.71515612
40.71830194,-4.278438568,-14.80095482,-6.004657745,16.53569517
40.72330563,-4.778826714,-16.39070511,-7.232883453,18.54203338
40.72831025,-5.204994678,-17.97327232,-10.09634876,21.2618613
40.73331578,-4.431667328,-20.08016968,-14.90869427,25.39925303
40.73828871,-3.303998232,-21.52866173,-20.40099335,29.84292562
40.74329325,-0.9265560508,-22.27086449,-22.99151802,32.02280144
40.74829886,2.039859772,-22.20861435,-21.00911903,30.6392993
40.75330402,4.939238071,-20.01552582,-16.26141739,26.25739976
40.75830955,5.91128397,-16.79771996,-13.17768574,22.15306018
40.76331355,5.995080948,-12.73236465,-11.5927248,18.23308459
40.76828779,6.325480938,-8.820239067,-11.5975132,15.88428905
40.77329325,6.244078159,-5.245696068,-12.48576164,14.91308429
40.77829755,5.61919117,-3.526659012,-12.12663174,13.82272876
40.78330194,4.762067318,-2.695871115,-10.87446404,12.17370011
40.78830778,2.15478158,-2.659958124,-9.447520256,10.04858696
40.79331117,-0.1580173075,-3.394978046,-7.69017601,8.407713867
40.79828955,-0.3088520169,-4.90811348,-5.123591423,7.101841773
40.80329209,-0.8619126081,-6.421248913,-3.093308687,7.179407328
40.80829702,-2.877830505,-7.800309181,-0.4836287498,8.328302859
40.81330163,-4.570530891,-9.038111687,2.025494576,10.3285935
40.81830625,-5.930437565,-10.65180302,4.223371983,12.90224276
40.82331086,-6.816292286,-12.68208599,5.128379822,15.28389431
40.82786871,-7.232883453,-14.99009705,4.584896088,17.26380273
40.83329055,-6.572083473,-18.26775932,2.920926094,19.63250165
40.83829486,-6.088454723,-21.13122368,0.7972691655,22.00530693
40.84330063,-5.363011837,-23.50866699,-2.516305923,24.24357885
40.84830471,-3.828328609,-24.74886322,-5.056553841,25.54860206
40.85330963,-2.15478158,-23.65950203,-6.081272125,24.5233968
40.85831486,-0.4860229492,-20.80800629,-7.218518257,22.02989673
40.86328894,-0.316034615,-17.03953362,-7.273584843,18.52972261
40.86829456,-2.190694571,-11.35091019,0.4764461517,11.57019039
40.87285178,-4.086902142,-7.319074631,3.837905407,9.219606308
40.87785817,-5.966350555,-4.663905144,3.100491285,8.183055441
40.88327878,-8.813055992,-2.336740971,0.3375824392,9.123830127
40.88831356,-11.35091019,-0.3950432837,-4.259284973,12.13015786
40.89284063,-11.38203526,0.2992752194,-4.884171486,12.38932699
40.89829325,-9.842563629,0.2561795712,-1.381454349,9.942338904
40.90329725,-7.735665798,-0.316034615,2.420537949,8.111683375
40.90830286,-5.09725523,-1.572990537,4.218583584,6.800937991
40.91330717,-2.987963676,-3.035847664,4.362235546,6.09699901
40.91831209,-0.9792284966,-4.742913723,6.342240334,7.979857861
40.92328709,0.3112462163,-6.289567947,11.93509579,13.49451928
40.92829179,0.1723825186,-8.042123795,15.4426012,17.41204763
40.93329632,-0.6033388376,-9.148244858,16.96052551,19.27988142
40.93830186,-1.168370485,-10.30224991,16.41704178,19.41702097
40.94330525,-1.721431017,-11.75792408,14.19761562,18.51443742
40.94786402,-1.920149803,-12.5408287,12.53364563,17.83400215
40.95328532,-1.946485996,-13.58230591,9.643844604,16.77115322
40.95829209,-1.053448796,-14.37957573,6.375759125,15.76490587
40.96329517,1.508347034,-15.41387081,-0.3471592367,15.49138611
40.96829979,4.888959885,-16.48647308,-10.05325317,19.91917726
40.97330586,7.220912457,-17.17121506,-15.7562418,24.39777365
40.97830894,6.636727333,-16.96291924,-15.19839191,23.72294028
40.98331486,3.82593441,-15.61498356,-10.24718285,19.06489554
40.98828925,2.41574955,-14.23352909,-5.374982834,15.40518214
40.99329386,1.63523972,-13.05318737,-1.436521053,13.23341612
40.99785171,0.7038952708,-12.10029507,0.356736064,12.12599975
41.00330348,-0.5961562395,-11.06599998,0.8331822157,11.11332311
41.00830779,-1.417367458,-10.17056847,0.8188169599,10.30144915
41.01331363,-2.212242365,-9.306262016,0.7134721279,9.592161981
41.0182884,-3.186682463,-8.305485725,0.3782838583,8.90388325
41.02329263,-4.086902142,-7.252037048,-0.1843535304,8.326391577
41.02829756,-4.853046894,-6.624756336,-0.4596867263,8.22500897
41.0328554,-5.355829239,-6.191405773,-0.4453215301,8.198580581
41.03827917,-5.319916248,-6.059724331,-0.3280056417,8.070276052
41.04331394,-5.305551052,-5.784391403,-0.7254431248,7.882532816
41.0482874,-4.855441093,-5.753266811,-1.024718285,7.597725632
41.05329086,-4.249708176,-5.837063789,-1.37427175,7.349826944
41.05829663,-3.105279684,-6.145915985,-1.388636947,7.024482741
41.06330125,-2.075772762,-6.466738701,-1.185129881,6.894350935
41.06830563,-1.22822547,-6.739677906,-1.015141487,6.925482533
41.0733114,-0.6272808313,-6.931213856,-0.8595184088,7.012416035
41.07831571,0.04309562966,-7.194576263,-0.7158663273,7.230231631
41.08328956,0.3998316824,-7.419631004,-0.6105214357,7.455436006
41.0882954,0.7350199223,-7.592013359,-0.5793967843,7.649485065
41.09330002,0.895431459,-7.814674377,-0.6799532771,7.895142151
41.09830494,0.8978256583,-8.128314972,-0.7829039693,8.215140523
41.10286156,0.9241618514,-8.355764389,-1.031900883,8.469810688
41.10828379,0.9385270476,-8.683769226,-1.295263171,8.829857738
41.11328963,0.988805294,-8.839392662,-1.244984865,8.981235208
41.11829571,0.8212111592,-8.880094528,-1.058237195,8.980553021
41.12329879,0.6440402865,-8.901641846,-0.9504981041,8.975380888
41.12830409,0.4381389022,-8.995016098,-0.7829039693,9.039647058
41.13330802,0.1508347094,-9.083600998,-0.7493851185,9.115708215
41.13831425,-0.3543418646,-9.059659004,-0.691924274,9.092949941
41.14328809,-0.8451532125,-8.894459724,-0.490811348,8.947993827
41.14829302,-1.206677675,-8.650250435,-0.2777273953,8.738422976
41.15329732,-1.517923832,-8.458714485,-0.2777273953,8.598318208
41.15830248,-1.623268723,-8.202534676,-0.4955997467,8.376287696
41.16286009,-1.592144132,-7.975085735,-0.8595184088,8.177755641
41.16828194,-1.491587639,-7.841010571,-1.149216771,8.063930781
41.1728394,-1.431732655,-7.824251175,-1.259350061,8.053243286
41.17829086,-1.247379065,-7.87931776,-1.343147159,8.089724791
41.1832964,-1.060631394,-8.010998726,-1.517923832,8.222234021
41.18830063,-0.8283938169,-8.171410561,-1.695094824,8.386389767
41.19330556,-0.5315127969,-8.42759037,-1.848323703,8.644251605
41.1983124,-0.2705447972,-8.736441612,-1.999158382,8.966339318
41.20328532,0.08140286058,-9.105149269,-2.135627985,9.352608007
41.20828932,0.4285621047,-9.497797966,-2.279279947,9.776857816
41.21329602,0.85473001,-10.0508585,-2.56897831,10.40912914
41.21829917,1.086967587,-10.49857426,-2.813186884,10.92316714
41.22330471,1.235408068,-10.90798283,-2.964021683,11.37082877
41.22831109,1.321599364,-11.24077702,-3.007117271,11.71086876
41.23331479,1.213860273,-11.60948372,-2.97359848,12.04557416
41.23828863,1.079784989,-11.73877048,-2.889801502,12.13736466
41.24329363,0.962469101,-11.71004009,-2.767697096,12.07110322
41.24785109,0.7900865674,-11.54962921,-2.516305923,11.84693915
41.25330402,0.6871358752,-11.33654499,-2.035071373,11.53823745
41.25830779,0.7038952708,-11.16895103,-1.881842494,11.34822748
41.26331394,0.7445967197,-10.98699188,-2.097320795,11.2101369
41.26828809,0.7230489254,-10.84573364,-2.487575531,11.15081925
41.27329294,0.7254431248,-10.78827286,-2.93529129,11.20397402
41.27785148,0.8403648138,-10.84812832,-3.100491285,11.3137592
41.28330248,1.278503656,-11.0229044,-3.035847664,11.50458013
41.2883074,1.831564307,-11.20965195,-2.329558372,11.59473013
41.29331179,2.331952572,-11.40118885,-1.606509328,11.74759474
41.29783917,2.918531895,-11.68370438,-0.9265560508,12.078298
41.30329171,3.442862034,-12.04283428,-0.3663128614,12.53065607
41.3082964,3.950432777,-12.66532707,-0.0287304204,13.26714945
41.31330063,4.144362926,-13.18247414,0.02394201607,13.81860853
41.31830679,4.134786129,-13.69722748,-0.1891419291,14.30895774
41.32331086,3.890577793,-14.13776112,-0.6943184733,14.6797467
41.32831579,3.404554844,-14.4849205,-1.651999116,14.97107266
41.33328994,2.863465309,-14.66209126,-2.56658411,15.15795855
41.33829486,2.176329374,-14.76264763,-3.435679436,15.3126114
41.3433004,1.304839969,-14.83686829,-4.086902142,15.44467666
41.34830471,0.1604115069,-14.98530865,-4.67827034,15.69940828
41.35286286,-0.691924274,-15.02361584,-4.94402647,15.83133569
41.35828617,-1.647210717,-14.90390587,-5.035006046,15.81742707
41.36328894,-2.545036316,-14.62617779,-5.011064053,15.66885604
41.36784556,-3.069366693,-14.43703651,-4.884171486,15.54683782
41.37329979,-3.136404276,-14.27662468,-3.971980572,15.14713417
41.3783034,-2.841917515,-14.25986576,-3.19625926,14.88745579
41.38330863,-2.147598982,-14.28859615,-2.370259762,14.64220929
41.38786656,-1.616086125,-14.35563374,-1.877054095,14.56774816
41.39328871,-0.7781155705,-14.43224812,-1.489193439,14.52972631
41.39829294,-0.2729389966,-14.32211494,-1.362300754,14.38934799
41.40329794,0.004788403399,-13.8313036,-1.036689281,13.87010118
41.40830279,-0.2777273953,-13.25908947,-0.5937620401,13.27528303
41.41330779,-0.8810662031,-12.87841129,-0.1340752989,12.9092111
41.41831179,-1.541865945,-12.6485672,1.204283476,12.79898049
41.42328625,-2.195482969,-13.00530338,3.023876667,13.53151476
41.42829232,-3.016694069,-13.45541382,3.737348795,14.2869304
41.4332954,-3.727771997,-13.78581333,3.933673382,14.81278905
41.43830133,-4.503493309,-13.96059036,4.352658749,15.30114942
41.44330648,-5.480327606,-13.98453236,5.015852451,15.83540059
41.44831117,-6.191405773,-13.97256088,5.056553841,16.09766131
41.45286894,-6.861782074,-14.01326275,4.721365929,16.30174476
41.45829017,-7.730877399,-14.09705925,3.907337189,16.54571935
41.46329548,-8.846575737,-14.40112305,2.487575531,17.08339191
41.46829971,-9.404424667,-14.7841959,0.7254431248,17.53687314
41.4733044,-9.402029991,-15.452178,-1.795651317,18.17669763
41.47830994,-9.313444138,-16.21592903,-4.173093796,19.16014895
41.4833151,-9.004592896,-17.10178185,-5.784391403,20.17455872
41.48828925,-8.451532364,-17.42499924,-6.253654957,20.3510982
41.49329456,-8.173804283,-17.40824127,-6.169857979,20.19715545
41.49829879,-8.238448143,-16.99164963,-5.566518784,19.68690723
41.50330317,-8.295908928,-15.97171974,-4.833893299,18.63556978
41.50786194,-7.817068577,-15.11938381,-3.924096584,17.46713663
41.51328348,-6.622362137,-14.22395229,-3.529053211,16.08199974
41.51784248,-5.439626217,-13.26148319,-3.229778051,14.69312547
41.52329363,-3.722983599,-12.71081638,0.2418143749,13.24703492
41.52829817,-0.9911994934,-13.18726254,4.707000732,14.03717299
41.53330256,1.654393315,-13.77623653,6.02620554,15.12735481
41.53830771,3.612850428,-13.81933212,3.193865061,14.63650923
41.54331202,4.292803764,-13.541605,0.7493851185,14.22549852
41.54828656,4.611232281,-13.03164005,-0.720654726,13.84219812
41.55329171,4.307168961,-12.45224285,-1.312022567,13.24127863
41.55829663,4.13239193,-11.74595356,-0.7015010715,12.47141499
41.56285363,4.141968727,-11.34851646,0.03830722719,12.08081944
41.56827632,3.620033026,-10.69011021,0.720654726,11.30939603
41.57331117,2.983175278,-9.919178009,1.127668977,10.4192641
41.5783164,2.444479942,-8.853757858,1.702277422,9.341427023
41.5832911,1.853112102,-7.742848396,2.221819162,8.26572478
41.58829486,1.201889277,-6.485892296,2.513911724,7.059113887
41.5928521,0.5985504389,-5.468356609,2.621650934,6.093787021
41.59785979,0.0718260482,-4.673481941,2.748543501,5.422276626
41.60327971,-0.4692635238,-3.888183594,2.954444885,4.905805183
41.60831486,-0.7254431248,-3.385401249,2.971204281,4.562374845
41.61328871,-0.9528923035,-2.959233284,2.679111719,4.103986474
41.61829394,-1.170764685,-2.547430515,2.296039343,3.623794812
41.62330002,-1.395819545,-2.183511972,1.927332401,3.229651207
41.62830402,-1.920149803,-1.984793186,1.721431017,3.25418254
41.63330802,-2.262520552,-1.977610588,1.778891921,3.492048017
41.63831325,-2.79163909,-2.04704237,1.628057122,3.825467457
41.64328748,-3.222595453,-2.145204782,1.695094824,4.226153272
41.64829263,-3.7181952,-2.341529369,1.572990537,4.667122728
41.65329725,-4.060565948,-2.580949545,1.436521053,5.021263697
41.6583031,-4.09408474,-2.703053713,1.467645645,5.1207434
41.66330717,-3.948038578,-2.686294317,1.515529633,5.009991601
41.66831171,-3.885789394,-2.578555346,1.608903527,4.933242083
41.67328679,-3.881000996,-2.387019157,1.719036818,4.869816913
41.67829333,-3.981557369,-2.19308877,1.769315004,4.877797969
41.68329725,-3.897760391,-2.00873518,1.831564307,4.752071222
41.68830163,-3.7181952,-1.764526606,1.881842494,4.525468027
41.69330594,-3.574543238,-1.498770237,1.965639591,4.345964862
41.6983114,-3.311181068,-1.340752959,1.980004787,4.084355215
41.70331517,-2.916137695,-1.249773264,1.936909199,3.717177627
41.70828994,-2.533065319,-1.242590666,1.831564307,3.363789423
41.71329579,-2.140416384,-1.350329757,1.618480325,3.004039166
41.7182991,-1.989581585,-1.484405041,1.405396342,2.85254835
41.72330471,-1.948880196,-1.537077546,1.175553083,2.746391533
41.72831079,-1.987187386,-1.541865945,0.8164227605,2.644392259
41.73331417,-1.951274395,-1.640028119,0.5530605912,2.608263793
41.73828956,-1.920149803,-1.790862918,0.181959331,2.631971591
41.74329302,-1.845929503,-2.001552582,-0.3734954596,2.748302627
41.74829886,-1.690306425,-2.406172752,-1.328781962,3.226835079
41.7533034,-1.455674648,-2.82276392,-2.300827742,3.921835428
41.75831086,-1.170764685,-3.397372246,-3.64158082,5.116047204
41.76286648,-1.051054597,-4.09408474,-5.499481201,6.936176115
41.76828802,-0.9313444495,-5.219359875,-8.037335396,9.628493145
41.77284533,-0.6224924326,-6.131550789,-9.629479408,11.4328599
41.77785117,-0.7230489254,-7.793126583,-12.8592577,15.05377462
41.78330279,-0.1005564705,-9.646238327,-14.54238129,17.45109965
41.78830779,0.3327940404,-12.07156467,-16.35718536,20.33201757
41.79331179,-0.2226607651,-13.61343098,-17.24543571,21.97225828
41.79828656,-0.7158663273,-14.80574322,-17.85835075,23.20868778
41.80329148,-1.211466074,-16.64448929,-17.99481964,24.54221277
41.80829633,-2.070984364,-20.04425621,-17.59498787,26.75153793
41.81330133,-3.60327363,-22.68266678,-18.20311546,29.30597833
41.81830717,-5.035006046,-24.91885185,-21.15037727,33.07021201
41.82331202,-5.774814606,-26.35537148,-23.65471268,35.88174356
41.8278681,-5.272032261,-26.24044991,-21.49274826,34.32628385
41.8328434,-4.101267338,-23.22615051,-15.09783554,28.00391222
41.83829733,-3.169923067,-18.96925926,-11.03248119,22.17198346
41.84330071,-1.501164436,-12.64138508,-8.583212852,15.35348997
41.84830525,-0.05267243832,-7.886500359,-8.391676903,11.51607153
41.85330894,0.5961562395,-3.79241538,-8.453926086,9.284755406
41.8578671,0.5793967843,-0.8714894056,-7.860164165,7.92952553
41.86284248,0.3399766386,0.7829039693,-6.619967937,6.674765781
41.86829263,-0.6105214357,0.7541735172,-5.147533417,5.238188083
41.87329825,-2.274491549,-1.125274777,-4.723760128,5.362225739
41.87830402,-4.146757126,-3.612850428,-4.405331135,7.046646385
41.8833084,-5.904101372,-6.892906666,-3.655946016,9.784503901
41.88831356,-6.64869833,-9.533711433,-1.640028119,11.73825095
41.89328863,-7.060500622,-11.99255657,1.838746905,14.03755934
41.89829271,-8.135497093,-14.37239265,5.456385612,17.39322073
41.90329887,-9.040505409,-17.4010582,6.16506958,20.5556719
41.90830225,-9.157821655,-20.06101608,3.248931646,22.29048274
41.9133074,-8.274360657,-23.02024841,-0.940921247,24.4802413
41.91831479,-6.284779549,-25.72569656,-4.220977783,26.8165354
41.92284094,-3.890577793,-27.77034569,-7.99423933,29.15881612
41.92829179,1.352723956,-26.74802208,-11.66215611,29.21116965
41.9332961,5.149928093,-23.19023705,-8.674192429,25.28933506
41.93785456,5.164293289,-17.75300598,2.018311977,18.59872925
41.94327548,2.22900176,-10.33816338,12.87362289,16.66061935
41.94831056,-0.9313444495,-5.743690014,12.01889229,13.35331979
41.95286863,-3.713406801,-2.691082716,7.817068577,9.062994946
41.95784317,-6.435614109,-0.5889736414,3.356670856,7.282256391
41.96284833,-8.058882713,0.5817909837,-0.1029506698,8.080511752
41.9683001,-7.924807549,0.6584054828,-0.6368576288,7.977572319
41.97330433,-6.342240334,-0.08379705995,0.7517793179,6.387190817
41.97830994,-3.957615376,-1.616086125,1.824381709,4.647883652
41.98331456,-2.37744236,-3.258508444,3.643975019,5.435868228
41.98828871,-1.230619669,-5.049371243,7.20894146,8.887036159
41.99329417,-1.127668977,-6.646304131,10.85770512,12.78024868
41.99830102,-2.197877169,-8.171410561,13.28063679,15.74731495
42.00330379,-3.215412855,-9.186552048,13.68765068,16.79533862
42.00830925,-3.866635799,-10.14183807,12.8688345,16.83492362
42.0128671,-4.259284973,-11.00614548,11.43470764,16.43256783
42.01784071,-4.49870491,-11.82017422,9.957485199,16.09678154
42.02329302,-4.065354347,-12.97417927,8.078036308,15.81490134
42.02829794,-2.930502892,-14.15212631,5.844246387,15.58928293
42.03330248,-0.8499416113,-15.5455513,0.5889736414,15.57990552
42.03830779,3.462015629,-17.3124733,-9.473855972,20.03649747
42.04286556,5.398924828,-17.94454193,-12.49533844,22.523065
42.0478394,4.936843872,-17.66202545,-11.16416264,21.46993474
42.05329117,2.93529129,-16.80969048,-7.627926826,18.69135887
42.05829694,2.027888775,-15.11220074,-3.145981073,15.56881951
42.06330133,1.369483352,-13.72116947,-0.6344634295,13.80393133
42.06830617,0.895431459,-12.50252151,0.2394201756,12.53683229
42.0733114,0.1101332754,-11.31020927,0.3016694188,11.31476768
42.07831794,-0.4046200812,-10.47223854,-0.1244984865,10.48079183
42.0832914,-0.9528923035,-9.694122314,-0.6344634295,9.761483239
42.08829579,-1.417367458,-8.913613319,-1.027112484,9.083853421
42.0933004,-2.08295536,-7.987056732,-1.060631394,8.322062078
42.09830533,-2.497152328,-7.410054207,-0.5889736414,7.841655632
42.10330963,-3.117250681,-6.785167694,-0.5937620401,7.490547764
42.10831456,-3.622427225,-6.311115742,-1.175553083,7.371165848
42.11328925,-4.05577755,-5.980715752,-1.848323703,7.45886003
42.11829417,-4.618414879,-5.600037575,-2.209848166,7.587727311
42.12329825,-4.388571739,-5.561730385,-2.52827692,7.522272992
42.1278564,-3.909731388,-5.71974802,-2.602497339,7.400980296
42.13327817,-2.992752075,-5.935225964,-2.257732153,7.020030391
42.13831386,-2.214636564,-6.174646378,-1.886630893,6.825705028
42.14328833,-1.455674648,-6.438008308,-1.656787634,6.805283604
42.1482921,-0.8643068075,-6.713341713,-1.496376038,6.932180354
42.15329694,-0.2873041928,-7.02937603,-1.302445769,7.154791126
42.15830433,0.06943184882,-7.354987621,-1.328781962,7.474377914
42.16286064,0.3136404157,-7.733271599,-1.400607944,7.865339315
42.16828187,0.4620809257,-8.137891769,-1.496376038,8.287215605
42.17328686,0.6560112834,-8.453926086,-1.340752959,8.584686108
42.1778444,0.806845963,-8.659827232,-1.055842996,8.761187849
42.1832961,0.825999558,-8.860940933,-0.9241618514,8.947213232
42.18830125,0.7038952708,-8.913613319,-0.5674257874,8.959349473
42.19330656,0.5650315881,-8.889671326,-0.1963245422,8.909773302
42.19831179,0.3543418646,-8.846575737,0.1508347094,8.854954067
42.20331602,0.08858546615,-8.793902397,0.4261679053,8.804668412
42.20784317,-0.316034615,-8.655038834,0.6153098345,8.68263677
42.21329417,-0.7733271718,-8.4012537,0.6392518282,8.460953939
42.21830064,-1.031900883,-8.204929352,0.5482721925,8.287719077
42.22330587,-1.283292055,-7.987056732,0.2442085743,8.093179324
42.22830902,-1.565807939,-7.773972988,-0.1460463107,7.931439973
42.2333154,-1.594538331,-7.661445618,-0.4022258818,7.835948386
42.23829087,-1.687912226,-7.592013359,-0.672770679,7.806429076
42.2428471,-1.656787634,-7.603984833,-1.074996591,7.856280817
42.2482991,-1.482010841,-7.632715225,-1.704671621,7.959937385
42.2528564,-1.314416766,-7.647080421,-2.284068346,8.088417559
42.25783087,-1.051054597,-7.726089001,-2.743755102,8.265915501
42.26328279,-0.624886632,-7.900865555,-2.930502892,8.449970829
42.26828779,-0.1292868853,-8.243236542,-2.904166698,8.740815065
42.27329302,0.2513911724,-8.585607529,-2.619256735,8.979775053
42.27829817,0.6607996821,-8.956708908,-2.173935175,9.240415836
42.28330164,0.9840168953,-9.346963882,-1.695094824,9.550254946
42.28830748,1.168370485,-9.823410034,-1.470039845,10.00127449
42.29331202,1.417367458,-10.09874249,-1.233013868,10.27199365
42.29828679,1.608903527,-10.29746151,-1.199495077,10.49119023
42.30329087,1.802833915,-10.48181534,-1.369483352,10.72353242
42.30829671,1.8602947,-10.55842972,-1.757344007,10.8641333
42.31330133,1.831564307,-10.57279491,-2.128445387,10.93932813
42.3183081,1.74776721,-10.62307262,-2.420537949,11.03464391
42.32331171,1.723825216,-10.64222622,-2.523488522,11.07233248
42.3283161,1.807622313,-10.70208168,-2.53067112,11.14479013
42.33329056,2.035071373,-10.74278259,-2.56897831,11.23158684
42.33829517,2.281674147,-10.80742645,-2.616862535,11.35140841
42.3433001,2.590526342,-10.9151659,-2.691082716,11.53661994
42.34830525,2.657563925,-10.95826149,-2.49236393,11.54807425
42.35331048,2.621650934,-11.02529907,-2.097320795,11.52514762
42.35831517,2.552218914,-11.08275986,-1.460463047,11.46622605
42.36328964,2.456450939,-11.18331623,-0.6416460276,11.46788659
42.36829417,2.422932148,-11.31020927,-0.007182605099,11.56682695
42.37329879,2.41574955,-11.53526402,0.4955997467,11.79592221
42.3783041,2.298433542,-11.76031876,0.7565677166,12.00667684
42.38330871,2.142810583,-12.09071827,0.5123591423,12.28981763
42.38831325,1.867477298,-12.31098557,-0.07422025502,12.45204183
42.39328779,1.489193439,-12.48336792,-0.7924807668,12.59683284
42.3982951,0.9864110947,-12.65096188,-1.908178806,12.83202983
42.4032994,0.5841852427,-12.8353157,-2.911349297,13.17431427
42.4083031,0.14844051,-13.03164005,-3.866635799,13.59398946
42.4133074,-0.3375824392,-13.26627159,-4.486733913,14.00852259
42.41831271,-1.039083481,-13.59188271,-4.898536682,14.48497952
42.42328687,-1.477222443,-13.88636971,-4.984727859,14.82770925
42.42829271,-1.78128612,-14.1952219,-4.881777287,15.11651595
42.43329664,-2.006340981,-14.36521053,-4.668693542,15.23749905
42.43830133,-2.169146776,-14.40112305,-4.34787035,15.19873414
42.4433071,-2.173935175,-14.34366226,-4.103661537,15.07669325
42.44786348,-2.068590164,-14.16170311,-3.933673382,14.84273177
42.45328564,-1.838746905,-14.04199314,-3.852270603,14.67646246
42.45784348,-1.422155857,-13.74511242,-3.330334663,14.21413985
42.46329548,-0.6392518282,-13.30218506,-2.202665567,13.49846309
42.4683001,-0.1532289088,-13.11064816,-1.484405041,13.19530342
42.47330587,0.383072257,-13.13937855,-1.146822572,13.19489352
42.47831171,1.065419793,-13.11064816,-0.8427590132,13.18083674
42.48331517,1.470039845,-12.87362289,-0.6560112834,12.97387893
42.48828925,1.56101954,-12.48097324,-0.7852981687,12.6027048
42.49329425,1.15161097,-12.2798605,-1.029506683,12.37663386
42.49785179,0.7015010715,-12.2654953,-0.6775590777,12.30420924
42.5033031,0.1699883193,-12.70602798,1.015141487,12.74764902
42.50786133,-0.5434837937,-13.45062542,2.67432332,13.72467501
42.51328279,-1.302445769,-14.42027664,4.177882195,15.06968623
42.51828779,-2.133233786,-15.38753414,4.836287498,16.27011279
42.52284533,-3.246537447,-15.80651951,5.221754074,16.9603296
42.52784956,-4.268861771,-15.95974827,5.331887245,17.35988961
42.5333031,-5.487510204,-16.02439117,5.121197224,17.6952124
42.53830679,-6.442796707,-16.10100555,4.61362648,17.94540494
42.5433121,-7.347805023,-16.25423622,3.620033026,18.20151293
42.54828656,-8.080430984,-16.64448929,2.176329374,18.62978256
42.55329117,-8.243236542,-17.31726074,-0.1795651317,19.17995599
42.55829787,-8.039729118,-17.82722664,-1.965639591,19.65479567
42.56330164,-7.69257021,-18.16241455,-3.232172251,19.98739293
42.56830656,-7.161057472,-18.167202,-3.904942989,19.91422989
42.5733111,-6.35660553,-17.77215958,-3.969586372,19.28765683
42.57786894,-5.628767967,-17.13290787,-3.900154591,18.45076602
42.58328956,-4.927267075,-16.29254341,-3.79241538,17.43867386
42.5882951,-4.46039772,-15.29416084,-3.555389643,16.32321351
42.5933001,-3.60327363,-14.31253815,-2.427720547,14.95747827
42.59830525,-3.098097086,-13.67568016,-1.817199111,14.13947121
42.60330987,-2.954444885,-12.95981407,-1.903390408,13.4278971
42.60831456,-2.564189911,-12.26310158,-1.52510643,12.62080345
42.61328894,-1.915361404,-11.63582039,-0.2609679997,11.79529693
42.61784717,-0.2896983922,-11.6956749,2.391807556,11.94125118
42.62329879,1.900996208,-12.17212105,4.125209332,12.99198481
42.62785671,3.095702887,-12.53125191,3.708618402,13.4301713
42.63327817,4.149151325,-12.82813263,1.527500629,13.56870302
42.63786802,3.983951569,-12.61026001,0.2059013397,13.22622104
42.6432884,3.210624456,-12.12184334,-0.09816227108,12.54020858
42.64784494,2.743755102,-11.55202293,0.2968810201,11.87710252
42.65329764,2.087743998,-10.66377449,0.7158663273,10.88977621
42.65830187,1.424550056,-9.945513725,1.007958889,10.0974535
42.66330741,0.7852981687,-9.308655739,1.304839969,9.432410732
42.66786564,0.4429273009,-8.779537201,1.726219416,8.958587586
42.67283979,0.05746084079,-8.161833763,2.094926596,8.426597746
42.67784371,-0.4812345505,-7.223306656,2.310404539,7.599060131
42.6832954,-0.8643068075,-6.519411087,2.456450939,7.020249169
42.68830187,-1.199495077,-5.71974802,2.343923569,6.2966883
42.6933071,-1.482010841,-5.142745018,2.296039343,5.823742707
42.6983111,-1.704671621,-4.572925091,2.343923569,5.414012091
42.70286833,-1.800439715,-4.127603531,2.389413357,5.097841726
42.70829117,-1.807622313,-3.552995205,2.298433542,4.601529105
42.71329579,-1.934514999,-3.167528868,2.255337954,4.343056147
42.71830256,-1.915361404,-2.930502892,2.197877169,4.133657044
42.72330502,-2.027888775,-2.760514498,1.922544003,3.927970038
42.72830994,-2.250549555,-2.521094322,1.668758631,3.769037708
42.73331487,-2.403778553,-2.403778553,1.553836942,3.737741551
42.73828994,-2.461239338,-2.360682964,1.565807939,3.752636092
42.74284625,-2.537853718,-2.226607561,1.589749932,3.731727157
42.74829856,-2.779668093,-2.04704237,1.675941229,3.837410087
42.75285671,-2.944868088,-2.00873518,1.687912226,3.944149181
42.75827794,-3.08373189,-2.023100376,1.628057122,4.031489488
42.76331394,-3.208230257,-2.049436569,1.606509328,4.132045965
42.76828779,-3.318363667,-2.08295536,1.683123827,4.264170057
42.77284587,-3.354276657,-2.039859772,1.750161409,4.298286256
42.77829764,-3.428496838,-1.960851192,1.848323703,4.360714216
42.78330225,-3.251325846,-1.910573006,2.006340981,4.271628857
42.78830771,-2.990357876,-1.908178806,2.075772762,4.110014494
42.79286525,-2.7509377,-1.893813491,1.980004787,3.882603086
42.79783979,-2.513911724,-1.850717902,1.812410712,3.609673323
42.80329264,-2.355894566,-1.865083098,1.55862534,3.384979634
42.80829702,-2.382230759,-1.850717902,1.292868972,3.282025338
42.81330194,-2.547430515,-1.872265697,0.9576807022,3.30332157
42.81830648,-2.703053713,-1.936909199,0.5961562395,3.378389984
42.82331148,-2.844311714,-2.054224968,0.09337386489,3.509796009
42.82786864,-2.8969841,-2.240972757,-0.4405331016,3.688976171
42.8328431,-2.839523315,-2.580949545,-1.161187768,4.009058523
42.83829541,-2.633621931,-3.028665066,-2.389413357,4.670981989
42.84330094,-2.353500366,-3.711012602,-3.191470861,5.431027966
42.84830464,-2.056619167,-4.350264549,-4.197035789,6.385107162
42.85330925,-1.884236693,-5.051765442,-5.367800236,7.608150982
42.85831571,-1.948880196,-6.095637321,-6.885724068,9.400432134
42.86328933,-2.15478158,-7.06768322,-7.876923561,10.80005345
42.86829394,-2.592920542,-8.140285492,-9.184157372,12.54337401
42.87329948,-3.203441858,-9.35654068,-10.73560047,14.59657531
42.87830494,-3.782838583,-10.89840603,-11.93509579,16.59914556
42.88330987,-4.153939724,-12.06917095,-11.62863731,17.26688474
42.88786618,-3.79480958,-13.247118,-10.78348446,17.49772134
42.8932881,-3.852270603,-14.75546551,-11.06121159,18.8391654
42.89784564,-3.964797974,-16.89348793,-11.6813097,20.91799593
42.90285056,-3.737348795,-19.9053936,-13.08191776,24.11076612
42.90830218,-3.873818398,-22.36184311,-15.81370258,27.66101382
42.91330748,-3.847482204,-24.32748413,-21.89497375,32.95480965
42.91831264,-2.703053713,-25.75682259,-26.93237495,37.36406335
42.9232871,-1.975216389,-25.32586479,-23.8534317,34.84662267
42.92829118,-1.031900883,-22.9699707,-17.50640297,28.8991093
42.93329579,-0.2442085743,-18.99798965,-12.15296745,22.55388806
42.93830064,0.7445967197,-12.82813263,-9.3685112,15.90233986
42.94330587,2.106897593,-8.336610794,-9.3685112,12.71641062
42.94831141,2.545036316,-4.79319191,-9.411606789,10.86417235
42.95331579,1.845929503,-1.716642618,-8.271966934,8.647528813
42.95829271,0.7350199223,-0.4979939461,-6.80192709,6.859625674
42.96329602,-0.9648633003,-0.5746083856,-5.853823185,5.960568921
42.96829918,-3.064578056,-2.04464817,-5.652710438,6.747248335
42.97330525,-5.228936672,-4.776432514,-4.766855717,8.536919802
42.97830964,-6.270414352,-7.098807812,-3.179499865,9.991015358
42.9833151,-6.880935669,-9.26556015,-0.4884171486,11.55146882
42.98784102,-7.151480675,-11.12106705,3.143586874,13.59058301
42.9928471,-7.532158375,-12.8544693,6.234501362,16.15053553
42.99829979,-7.55131197,-14.8584156,6.895300865,18.03718384
43.00330371,-6.718130112,-16.58942413,4.127603531,18.36788981
43.00786125,-5.327098846,-18.38507462,0.1316810995,19.1417421
43.01283456,-3.442862034,-20.03467941,-2.442085743,20.47450759
43.01828833,-1.271321058,-20.9756012,-3.471592426,21.29892149
43.02284525,0.7445967197,-20.2980423,-4.826710701,20.87731021
43.02829694,2.288856745,-18.68674469,-7.529764175,20.2763567
43.03330287,1.527500629,-15.26303577,-4.49870491,15.98536409
43.0383081,-0.5889736414,-11.41076565,2.135627985,11.62382766
43.04331202,-2.67671752,-7.819462776,5.398924828,9.872041536
43.04828687,-4.857835293,-5.379771233,4.280832767,8.418196448
43.05329179,-7.477091789,-3.557783842,0.6655880809,8.307089441
43.0582961,-8.360552788,-2.755726099,-0.9696516991,8.856246026
43.06330133,-8.214506149,-2.420537949,-0.6153098345,8.585786011
43.06830625,-6.950367451,-2.734178305,1.350329757,7.589909693
43.07331087,-5.310339451,-3.56496644,2.726995707,6.953071004
43.0783161,-3.749319792,-4.673481941,3.459621429,6.918656863
43.08329087,-2.403778553,-5.928043365,4.637568474,7.901068967
43.0882951,-1.185129881,-7.376535416,7.249642849,10.4103376
43.09285295,-1.031900883,-8.058882713,8.956708908,12.09268558
43.09830464,-1.161187768,-9.11233139,11.02051067,14.34693681
43.10330987,-1.625662923,-9.88805294,11.50174522,15.25472104
43.10831479,-2.051830769,-10.66616821,11.06121159,15.50250159
43.11284164,-1.606509328,-11.18092155,10.58716011,15.48166135
43.11784748,-0.9672574997,-12.14578533,9.052476883,15.17903245
43.12329787,-0.2609679997,-13.17529202,7.297526836,15.06354281
43.12830433,1.357512355,-14.5782938,3.076549292,14.96110442
43.13330987,3.828328609,-15.746665,-3.01429987,16.48331163
43.13831356,5.940014362,-16.62533569,-8.113949776,19.42991864
43.14378693,5.906495571,-16.7043457,-9.861717224,20.27745847
43.14873977,4.570530891,-15.81609631,-8.353369713,18.46124158
43.15374254,3.313575268,-14.70518684,-5.837063789,16.16457902
43.15874785,2.358288765,-13.57272911,-3.751713991,14.27781003
43.16330623,1.74776721,-12.50491524,-2.284068346,12.83138977
43.16872746,0.9816226959,-11.57117653,-1.034295082,11.65870815
43.17373239,0.2394201756,-10.56321812,-0.457292527,10.57582221
43.17873739,-0.6679822803,-9.794678688,-0.117315881,9.818130878
43.18374354,-1.529894829,-9.057265282,-0.1053448766,9.18617059
43.18874662,-2.346317768,-8.403648376,-0.4548983276,8.736901372
43.19375208,-3.452438831,-7.508216381,-0.4477157295,8.276055611
43.19875893,-4.151545525,-6.974309444,0.08379705995,8.116855574
43.20373177,-4.67827034,-6.449979305,-0.3639186621,7.976270006
43.20873646,-4.826710701,-6.045359135,-0.988805294,7.79879729
43.21373985,-5.250484467,-5.564124584,-1.685518026,7.833775625
43.2187447,-5.367800236,-5.336675644,-2.152387381,7.869317489
43.22375154,-5.075707436,-5.360617638,-2.063801765,7.665396608
43.22875516,-4.465186119,-5.556941986,-1.661576033,7.319721732
43.23375923,-3.622427225,-5.887341976,-1.33835876,7.040879115
43.23873454,-2.533065319,-6.320692539,-1.039083481,6.888197773
43.24373923,-1.786074519,-6.720524311,-0.9816226959,7.022755323
43.24874439,-1.161187768,-7.110779285,-1.079784989,7.285428931
43.25374939,-0.7062895298,-7.453149796,-1.175553083,7.578272351
43.25875423,-0.423773706,-7.869740963,-1.18752408,7.97010793
43.26331062,-0.2513911724,-8.082824707,-1.175553083,8.171730405
43.268733,-0.04070143029,-8.384494781,-1.142034173,8.462012255
43.27373854,0.1149216816,-8.724471092,-1.333570361,8.826551577
43.278746,0.3256114423,-8.987833023,-1.723825216,9.157441708
43.28374939,0.4381389022,-9.153033257,-2.027888775,9.385217972
43.28875423,0.2920926213,-9.18894577,-1.912967205,9.390499773
43.29375854,0.1604115069,-9.17697525,-1.687912226,9.332290945
43.29873246,0.0718260482,-9.145850182,-1.508347034,9.269673419
43.3037377,-0.2657563984,-8.971074104,-1.22822547,9.058660765
43.30874193,-0.5554547906,-8.710105896,-0.9241618514,8.776591017
43.31374747,-0.8762778044,-8.410830498,-0.5985504389,8.477511137
43.31830416,-1.211466074,-8.109161377,-0.2944868207,8.204442137
43.32372685,-1.491587639,-7.855375767,-0.1221042871,7.996666279
43.32873031,-1.642422318,-7.601590633,0.1221042871,7.777958645
43.33373585,-1.716642618,-7.412448406,0.2298433632,7.612100973
43.33873954,-1.735796213,-7.28555584,0.1915361285,7.491928889
43.34374593,-1.697489023,-7.189787865,0.1364694983,7.38871724
43.34875031,-1.496376038,-7.218518257,-0.1364694983,7.373246978
43.35375493,-1.364694953,-7.393294811,-0.4022258818,7.528943229
43.3587617,-1.244984865,-7.709329605,-0.5530605912,7.828769143
43.36373485,-1.079784989,-8.130708694,-0.653617084,8.228096669
43.36873954,-0.8858546019,-8.564059258,-0.7637503147,8.643561991
43.37374408,-0.5003881454,-9.107542992,-1.089361787,9.186100192
43.37874877,-0.181959331,-9.516951561,-1.510741234,9.637832499
43.38375393,0.1987187415,-9.950302124,-2.085349798,10.16841607
43.38875854,0.5985504389,-10.35492229,-2.662352324,10.70844518
43.39373331,1.07739079,-10.7284174,-3.246537447,11.260538
43.398738,1.335964561,-10.9247427,-3.442862034,11.5320468
43.40374408,1.474828243,-10.98699188,-3.406949043,11.59725876
43.40874723,1.493981838,-10.97262669,-3.100491285,11.49972019
43.41375277,1.192312479,-10.9151659,-2.561795712,11.2749835
43.41875762,0.720654726,-10.93192482,-2.178723574,11.17019068
43.42373277,0.08858546615,-10.89122391,-1.948880196,11.06457137
43.42873762,-0.4118026793,-10.86728191,-1.963245392,11.05087011
43.43374131,-0.6584054828,-10.78827286,-2.178723574,11.02575011
43.43874931,-0.8092401624,-10.71165848,-2.614468336,11.05576509
43.443753,-0.7900865674,-10.53688145,-2.722207308,10.91148569
43.44875646,-0.4046200812,-10.50575733,-2.85867691,10.8952599
43.45376131,0.2753331959,-10.38844109,-2.7509377,10.75003139
43.45873547,1.386242747,-10.29985619,-2.499546528,10.68908037
43.46329393,2.08295536,-10.3309803,-2.370259762,10.80212888
43.46874562,3.409343243,-10.35252857,-1.807622313,11.04834683
43.47375031,4.252102375,-10.53448772,-1.312022567,11.43578635
43.47875547,4.915296078,-10.994174,-0.8451532125,12.07254246
43.48376162,5.485116005,-11.71722317,-0.4932055473,12.94693277
43.48873454,5.679046631,-12.32056236,-0.5530605912,13.57769139
43.49329216,5.61679697,-12.91193008,-0.8140285611,14.10421884
43.49874439,5.284003258,-13.41471195,-1.221042871,14.46948972
43.50330162,4.762067318,-13.84806252,-1.702277422,14.74258692
43.50872293,3.871424198,-14.32690334,-2.458845139,15.04307163
43.513758,3.028665066,-14.67166805,-2.987963676,15.27607877
43.51873462,2.018311977,-15.05952835,-3.402160645,15.57041022
43.52373954,0.9983820915,-15.38274574,-3.665522814,15.84492635
43.52874354,-0.09337386489,-15.50485039,-3.895366192,15.98696288
43.53374785,-1.113303781,-15.34683323,-4.175487995,15.94363307
43.538753,-1.965639591,-15.24388218,-4.419696331,15.99291714
43.54375762,-2.365471363,-15.21515179,-4.369418144,16.00587747
43.54873216,-2.099714994,-15.1720562,-3.483563423,15.70781036
43.5537367,-1.690306425,-15.28458405,-2.796427488,15.62996008
43.55874108,-1.091755986,-15.49048519,-2.173935175,15.68033982
43.56374747,-0.5841852427,-15.69399261,-1.752555609,15.80234564
43.56875116,-0.1675941199,-15.84243298,-1.587355733,15.92264013
43.57375585,-0.0287304204,-15.56231117,-1.556231141,15.63995556
43.57876077,-0.3303998411,-14.97094345,-1.393425345,15.0392801
43.58373547,-0.9864110947,-14.41069984,-1.201889277,14.49433733
43.58874046,-1.958456993,-13.96298409,-0.7158663273,14.11782359
43.59374477,-3.172317266,-13.541605,0.586579442,13.92058685
43.59875154,-3.790021181,-13.5128746,1.608903527,14.12623839
43.60375608,-4.115632534,-13.74032402,2.41574955,14.54547288
43.60876016,-4.467580318,-13.91749477,3.05021286,14.93183623
43.61373431,-4.994304657,-13.96777248,3.426102638,15.22432023
43.61873954,-6.366182327,-13.98932076,3.651157618,15.79747842
43.6237447,-7.630321026,-14.04678154,3.79480958,16.42968199
43.6287487,-8.269572258,-14.20719242,3.687070608,16.84709564
43.6337537,-8.870517731,-14.40830612,3.086126089,17.19911464
43.63875824,-9.576807022,-14.7937727,1.659181833,17.70095556
43.6432857,-9.725247383,-15.09544182,0.5339069963,17.96490626
43.64873854,-9.102754593,-15.71314621,-1.340752959,18.20880895
43.65374316,-8.480262756,-16.2039566,-2.37744236,18.44275734
43.65874785,-7.927201748,-16.53914452,-3.191470861,18.61637223
43.66375339,-7.520187378,-16.50323296,-3.885789394,18.54748704
43.66875793,-7.108384609,-16.15128517,-4.05338335,18.10588471
43.67373216,-6.79953289,-15.5551281,-3.950432777,17.42990467
43.6787377,-6.215347767,-14.85123348,-3.588908434,16.49454296
43.68329524,-4.979939461,-14.14733791,-3.306392431,15.35835922
43.68874662,-4.326322556,-12.85207462,-3.811569214,14.0861971
43.69330385,-4.077325344,-12.05241108,-3.60566783,13.22444839
43.698726,-2.786850691,-11.72679996,-1.640028119,12.16445915
43.70373208,-1.158793569,-11.6023016,0.8667010069,11.69219293
43.70873585,0.962469101,-11.93270111,4.86980629,12.92403636
43.7137407,2.645592928,-12.16493893,5.078101635,13.44514846
43.7187457,3.775655985,-12.14339066,2.513911724,12.96291892
43.72375054,3.969586372,-11.90875912,0.4189853072,12.5599247
43.72875577,3.952826977,-11.43231297,-0.7733271718,12.12108311
43.73376016,4.137180328,-10.98220348,-0.3471592367,11.74076548
43.73873424,3.773261786,-10.52730465,0.5913678408,11.19872152
43.74374039,3.16034627,-9.935936928,1.106121182,10.48494803
43.74874531,2.140416384,-9.26556015,1.256955862,9.592284672
43.753749,1.33835876,-8.386888504,1.333570361,8.5970642
43.75875554,0.7493851185,-7.699752808,1.719036818,7.924825483
43.76375893,0.4094084799,-6.976703644,2.183511972,7.321866809
43.76873331,0.1436520964,-6.272808552,2.583343744,6.785457092
43.7737377,-0.174776718,-5.42765522,2.501940727,5.979104907
43.77874254,-0.3974374831,-4.843470097,2.358288765,5.401729818
43.78374877,-0.739808321,-4.355052948,2.389413357,5.02226032
43.78875239,-1.007958889,-3.964797974,2.33913517,4.712447075
43.79375739,-1.285686255,-3.670311213,2.020706177,4.382627864
43.79873247,-1.45088625,-3.56736064,1.716642618,4.21639594
43.8037377,-1.587355733,-3.543418407,1.350329757,4.110827494
43.80874139,-1.800439715,-3.581725836,0.9935936928,4.130081302
43.81374716,-2.030282974,-3.629609823,0.8116343617,4.237318346
43.81875208,-2.315192938,-3.744531393,0.7781155705,4.470693183
43.82375677,-2.647987127,-3.797203779,0.8523358107,4.707129561
43.82873147,-3.038241863,-3.79241538,0.8882488012,4.939869833
43.83373577,-3.404554844,-3.687070608,0.9528923035,5.108178452
43.83874139,-3.598485231,-3.538630009,1.010353088,5.147019687
43.84374685,-3.7181952,-3.406949043,1.177947283,5.178787226
43.84830262,-3.861847401,-3.284844637,1.343147159,5.244817816
43.8537247,-3.938461781,-3.143586874,1.381454349,5.225134998
43.85876077,-3.931279182,-2.932897091,1.316810966,5.078467532
43.86373424,-3.366247654,-3.05021286,1.690306425,4.846912169
43.86873916,-3.064578056,-3.047818661,1.721431017,4.652328664
43.87374377,-2.901772499,-2.944868088,1.651999116,4.45214923
43.8787497,-2.844311714,-2.870647907,1.575384736,4.337345456
43.88375462,-2.693476915,-2.777273893,1.470039845,4.138729916
43.88875916,-2.497152328,-2.782062292,1.37427175,3.98299676
43.893733,-2.209848166,-2.817975283,1.218648672,3.782792381
43.89873824,-1.987187386,-2.906560898,1.029506683,3.668363936
43.90374408,-1.788468719,-3.01190567,0.8906430602,3.614338277
43.90874777,-1.711854219,-3.162740469,0.6177040339,3.648962923
43.91375308,-1.754949808,-3.217807055,0.3351882398,3.680554608
43.91875924,-1.862688899,-3.205836058,-0.03112462163,3.707824632
43.92373277,-1.965639591,-3.23456645,-0.4788403511,3.815160181
43.92873639,-2.039859772,-3.38300705,-1.168370485,4.119569659
43.93329424,-2.066195965,-3.507505417,-1.757344007,4.433961882
43.93874716,-2.011129379,-3.801992416,-2.904166698,5.189794979
43.94375277,-1.812410712,-4.115632534,-3.991134167,6.012687892
43.94875639,-1.522712231,-4.513070107,-5.078101635,6.962296355
43.95376139,-1.144428372,-5.118803024,-6.849811077,8.627385032
43.95873554,-1.017535686,-5.679046631,-8.425195694,10.21131098
43.96329362,-1.182735682,-6.31829834,-9.813833237,11.73162736
43.96874562,-1.568202138,-7.019799232,-11.31499767,13.40768479
43.97375024,-2.255337954,-8.063671112,-12.72996998,15.23684602
43.97875577,-2.78924489,-9.004592896,-13.34767437,16.34083815
43.98376016,-3.227383852,-10.05325317,-13.18486881,16.89155622
43.98873431,-3.287238836,-11.04924107,-12.34689808,16.89193771
43.99329124,-3.045424461,-12.23197651,-11.40118885,16.99655749
43.9987457,-3.560178041,-14.54238129,-10.6350441,18.36463678
44.00375124,-3.995922565,-17.05150414,-10.59673691,20.46978318
44.00875362,-4.510675907,-19.66597366,-12.14817905,23.55153862
44.01375947,-4.61362648,-22.34029579,-15.36598682,27.50432541
44.018286,-3.8642416,-24.56929779,-18.21987534,30.83093599
44.02373924,-2.293645144,-25.16784859,-18.19832802,31.14258424
44.02874231,-1.764526606,-23.77921104,-15.48569679,28.4318701
44.03374785,-1.074996591,-21.00911903,-12.5695591,24.50576496
44.03875301,-0.6296750307,-17.11614799,-10.84333992,20.27158192
44.04375854,-0.1268926859,-11.46583176,-11.21204662,16.03718769
44.04828477,0.7134721279,-7.309497833,-12.2607069,14.29205145
44.05328877,1.611297727,-4.098873138,-12.49055004,13.24427732
44.05829462,1.984793186,-1.771709204,-11.22162342,11.53270088
44.06374754,1.716642618,-0.2442085743,-8.805873871,8.974960409
44.06875124,0.5243301988,-0.349553436,-6.847416878,6.876352788
44.07330877,-1.362300754,-1.592144132,-4.94402647,5.369747109
44.0787327,-3.588908434,-3.23456645,-3.742137194,6.111159844
44.08373647,-5.789179802,-5.018246651,-2.049436569,7.930800242
44.0887417,-7.137115479,-7.55131197,-0.4333505034,10.39944818
44.09329824,-8.080430984,-9.730035782,1.297657371,12.71419977
44.09875147,-8.990227699,-12.07395935,3.97916317,15.57043442
44.10375616,-10.11550236,-14.60941887,6.205770969,18.82206421
44.10876016,-10.48660374,-17.72427559,6.335057735,21.54650226
44.11373431,-9.516951561,-20.32677269,4.273650169,22.84762878
44.11874008,-7.417236805,-23.06573868,-0.4070142806,24.23240317
44.123745,-4.551377296,-25.79034042,-6.569689274,27.00032429
44.12874931,-0.349553436,-27.66500092,-12.23676491,30.2524855
44.13375331,2.913743496,-25.08165741,-11.25993061,27.64716038
44.13875954,3.869029999,-20.59013367,-8.391676903,22.56863396
44.14373401,2.60010314,-15.35401535,-3.450044632,15.95020789
44.14829093,1.158793569,-9.825803757,5.13556242,11.14734154
44.15374254,-1.426944256,-3.955221176,10.74517727,11.53857786
44.15830231,-4.350264549,-1.644816518,10.42914295,11.41916134
44.16372324,-7.24724865,0.6512228847,7.062894821,10.14057136
44.16875739,-9.028534889,1.441309452,2.319981337,9.43260985
44.17373208,-9.768342972,1.692700624,-3.222595453,10.42453266
44.17873708,-8.492233276,1.11569798,-1.982398987,8.79162748
44.18374254,-6.366182327,-0.03112462163,1.288080573,6.495259635
44.18874654,-4.321534157,-1.606509328,3.696647406,5.909461205
44.19375216,-2.128445387,-3.622427225,5.027823448,6.552195616
44.19875547,-0.2896983922,-6.270414352,8.015787125,10.18110331
44.20376193,-0.01197100803,-8.121131897,11.47540855,14.05837573
44.20873524,-0.3471592367,-9.758766174,13.85763931,16.95252796
44.21374039,-1.30005157,-11.08036518,14.51604462,18.30792664
44.218298,-1.740584612,-12.12423706,13.58709431,18.29305581
44.22375147,-1.26653266,-13.37161636,11.51850414,17.69407152
44.22875639,-0.8307880163,-14.39154625,9.337387085,17.17537801
44.2337607,-0.02154781483,-15.41147614,6.667851925,16.79209071
44.23873493,1.649604917,-16.36676216,3.205836058,16.75916122
44.24373978,5.082890034,-17.60695839,-4.551377296,18.88268493
44.24874416,7.062894821,-17.99242592,-10.23042393,21.86946381
44.25374993,5.954379559,-17.32444382,-11.81538582,21.79895253
44.25875454,3.227383852,-15.8448267,-10.11310768,19.07221766
44.26375893,1.201889277,-13.72116947,-6.181828976,15.09735205
44.26873331,0.3471592367,-12.31577396,-3.265691042,12.74611885
44.27373831,-0.2968810201,-11.12106705,-1.335964561,11.20495747
44.27874347,-0.9816226959,-10.10113716,-0.3016694188,10.1532044
44.28374785,-1.793257117,-9.29189682,-0.1675941199,9.464840484
44.28875278,-2.770091295,-8.520963669,-0.5913678408,8.979417774
44.29375762,-3.529053211,-7.874529362,-0.2633621991,8.633179535
44.29873247,-4.429273129,-7.079654217,-0.4046200812,8.360842164
44.30373739,-5.260061264,-6.361393929,-0.2322375625,8.257694079
44.30874324,-5.940014362,-5.707777023,0.2681505978,8.242232338
44.31374716,-6.397306919,-5.458779812,0.2130839527,8.412444212
44.31875362,-6.576871872,-5.291185856,-0.3327940404,8.447641283
44.32375731,-6.083666325,-5.341464043,-0.9911994934,8.156268173
44.32873031,-5.374982834,-5.559336185,-1.434126854,7.864691928
44.33373516,-4.273650169,-6.02620554,-1.584961534,7.555881288
44.33874047,-3.162740469,-6.521805286,-1.55862534,7.413918291
44.34374631,-2.087743998,-6.971915245,-1.391031146,7.409537424
44.34875054,-1.197100878,-7.28555584,-1.067813993,7.460067099
44.35330754,-0.5315127969,-7.493851185,-0.7182605267,7.546933789
44.35872908,0.2178723514,-7.793126583,-0.5027823448,7.812367144
44.36373485,0.6584054828,-8.046912193,-0.4668693244,8.087290065
44.36873954,0.9864110947,-8.305485725,-0.6081272364,8.385935769
44.37374447,1.345541358,-8.556877136,-0.758961916,8.695208512
44.37874939,1.496376038,-8.865729332,-0.9074024558,9.036795729
44.38375493,1.532289028,-9.030928612,-0.9959878922,9.213987906
44.38875885,1.570596337,-9.162610054,-0.9552865028,9.345200274
44.39373308,1.501164436,-9.260771751,-0.8212111592,9.417524933
44.39874008,1.460463047,-9.31823349,-0.55784899,9.448472002
44.40374416,1.297657371,-9.284713745,-0.6392518282,9.396726392
44.4087487,0.9265560508,-9.11233139,-0.7374141216,9.188953644
44.41375216,0.5961562395,-8.834604263,-0.7469909191,8.88614822
44.41875701,0.07422025502,-8.540117264,-0.4884171486,8.554394358
44.42373278,-0.3184288144,-8.319850922,-0.1723825186,8.327726701
44.4282897,-0.6679822803,-8.125920296,0.06943184882,8.153625069
44.43329424,-0.9002198577,-7.953537941,0.1053448766,8.005014623
44.43874631,-1.070208192,-7.855375767,-0.1604115069,7.929565301
44.44375247,-1.237802267,-7.738059998,-0.3734954596,7.845331468
44.44875731,-1.201889277,-7.716512203,-0.5650315881,7.82996546
44.45373147,-1.108515382,-7.742848396,-0.8571242094,7.868619291
44.45873578,-1.043871999,-7.841010571,-1.199495077,8.000618973
44.46374108,-0.8571242094,-8.058882713,-1.570596337,8.255121159
44.46874562,-0.6703764796,-8.403648376,-1.934514999,8.649454257
44.47375054,-0.4189853072,-8.83699894,-2.276885748,9.135223459
44.47875639,-0.1699883193,-9.275136948,-2.631227732,9.642635573
44.48331239,0.14844051,-9.773131371,-2.916137695,10.19999953
44.48873493,0.390254885,-10.37407589,-3.27287364,10.88510226
44.49373916,0.5482721925,-10.71644688,-3.435679436,11.26706391
44.49874478,0.691924274,-11.05881786,-3.682282209,11.67627569
44.50374931,0.7685387731,-11.25035381,-3.897760391,11.93120484
44.5087537,0.7158663273,-11.32936287,-3.971980572,12.02678499
44.51376016,0.5482721925,-11.33415127,-3.828328609,11.97579589
44.51873247,0.2394201756,-11.2982378,-3.579331636,11.85407586
44.52374047,-0.01675941236,-11.25993061,-3.038241863,11.66264258
44.52874324,-0.1149216816,-11.3078146,-2.511517525,11.58393708
44.53374808,-0.0359130241,-11.30542088,-2.391807556,11.55571609
44.53875208,0.1532289088,-11.3030262,-2.772485495,11.63909602
44.54375854,0.5458779931,-11.29105568,-3.299209833,11.77585269
44.54873154,1.067813993,-11.36527538,-3.816357613,12.0363739
44.55373739,2.205059767,-11.33654499,-3.921702385,12.19669178
44.55874324,3.246537447,-11.24556541,-3.438073635,12.19930724
44.56374847,4.223371983,-11.21204662,-2.746149302,12.29179386
44.56830447,5.094861031,-11.13782597,-1.654393315,12.35903691
44.57372654,5.777208805,-11.07557678,-0.4884171486,12.50132369
44.57828316,6.256049156,-11.20486355,0.4932055473,12.84252194
44.58373701,6.538564682,-11.47062016,1.139639974,13.25242371
44.58874162,6.495469093,-11.78186703,1.290474772,13.51550349
44.59374501,6.129156113,-12.15536213,1.079784989,13.65596276
44.59874993,5.355829239,-12.71560478,0.3854664862,13.80290173
44.60375639,4.594472885,-13.15853214,-0.4309563041,13.94424156
44.60876047,3.730166197,-13.63497829,-1.379060149,14.20311867
44.61373401,2.679111719,-14.14494324,-2.365471363,14.58946584
44.61873924,1.419761658,-14.68363857,-3.229778051,15.10153738
44.62374593,-0.1843535304,-15.181633,-4.01507616,15.70467457
44.6287497,-1.850717902,-15.1624794,-4.675876141,15.97465981
44.63330724,-3.737348795,-14.97094345,-5.327098846,16.32405911
44.63828254,-5.212177277,-14.81532001,-5.762843609,16.72934146
44.64328747,-5.825092793,-14.77701283,-5.609614372,16.84516511
44.64873824,-5.612008572,-14.92305946,-4.534617901,16.5757384
44.65374347,-4.903325081,-15.03319263,-2.93768549,16.08320471
44.65874808,-3.943250179,-15.24627686,-1.436521053,15.8133416
44.66375462,-2.683900118,-15.44499493,-0.2513911724,15.67846886
44.66875762,-1.845929503,-15.59822369,0.4525041282,15.71358641
44.6737327,-1.268926859,-15.51442719,0.1915361285,15.56741187
44.67873701,-1.173158884,-15.08825874,-0.7685387731,15.15330015
44.68374254,-1.173158884,-15.08825874,-0.7685387731,15.15330015
44.68874662,-2.537853718,-13.84327412,-1.8579005,14.19608164
44.69375147,-3.215412855,-13.63497829,-0.3280056417,14.01281915
44.69875708,-3.909731388,-13.517663,1.704671621,14.1745941
44.70376139,-4.551377296,-13.38837624,3.366247654,14.53599934
44.70873608,-5.023035049,-13.28303146,4.175487995,14.8021791
44.71374008,-5.444414616,-13.19444561,4.084507942,14.8464895
44.71874631,-6.119579315,-13.01009178,3.658340216,14.83560556
44.72375062,-7.230489254,-12.86643982,3.045424461,15.06983273
44.72875516,-8.540117264,-12.96220779,1.869871497,15.63486019
44.73375978,-9.469067574,-13.247118,0.5937620401,16.29422994
44.73873401,-10.08916569,-13.87679291,-0.6679822803,17.1698237
44.74373955,-10.26633644,-14.72673512,-2.542642117,18.1311726
44.74874378,-9.928754807,-15.80891418,-3.725377798,19.03629112
44.75374931,-9.380482674,-16.56308746,-4.19464159,19.49164794
44.75875462,-8.956708908,-17.04911041,-4.596867085,19.79964614
44.76331147,-8.678980827,-17.29571342,-4.522646904,19.87261297
44.76873247,-8.547300339,-17.16403198,-4.218583584,19.63305336
44.77373793,-8.216899872,-16.62773132,-3.521870613,18.87862455
44.77874224,-7.821856976,-15.70117474,-3.141192675,17.82064606
44.78374724,-6.744466305,-14.62378407,-3.040636063,16.38866541
44.78875216,-5.573701382,-13.61343098,-2.765302896,14.96791736
44.79331031,-3.244143248,-13.18726254,-1.436521053,13.6562056
44.7987337,-1.549048543,-12.72039318,-0.8906430602,12.84527925
44.80373701,-0.2537853718,-12.11705494,1.946485996,12.27502485
44.80874132,1.74776721,-12.19366932,4.570530891,13.13887416
44.81374624,3.332728863,-12.19845772,4.295197964,13.3550806
44.81875216,3.624821424,-11.91833591,3.052607059,12.82592964
44.82375678,3.557783842,-11.52329254,1.616086125,12.16781949
44.8287617,3.634398222,-11.14500904,0.5506663918,11.73555753
44.83373639,3.569754839,-10.60152531,-0.2298433632,11.18875848
44.83874101,2.645592928,-9.746794701,-0.8690952063,10.1367892
44.84374439,1.848323703,-8.803479195,-0.1268926859,8.996313033
44.84875032,1.472434044,-8.185775757,0.6033388376,8.339005007
44.85375462,0.9840168953,-7.575253963,1.067813993,7.713169814
44.85876078,0.107739076,-6.758831501,1.319205165,6.88721375
44.86328778,-0.316034615,-5.798756599,1.465251446,5.989358712
44.86873947,-0.4932055473,-4.726154327,2.408566952,5.327380332
44.8732967,-0.4620809257,-4.01747036,3.375824451,5.267805767
44.87830347,-1.046266198,-3.330334663,3.260902643,4.776953839
44.88327701,-1.443703651,-2.801215887,2.817975283,4.227537744
44.88828132,-1.419761658,-2.252943754,2.30801034,3.523973674
44.89328654,-1.340752959,-2.030282974,1.764526606,3.005531832
44.89829124,-1.161187768,-2.061407566,1.034295082,2.582155011
44.90374355,-0.9002198577,-2.217030764,0.4309563041,2.431325674
44.90874785,-0.8188169599,-2.398990154,0.2418143749,2.546387474
44.91375185,-0.7637503147,-2.621650934,0.2609679997,2.743077188
44.91831024,-0.7900865674,-2.85867691,0.248996973,2.976284589
44.92328501,-0.9576807022,-3.045424461,0.2106897533,3.199398795
44.92828847,-1.429338455,-3.205836058,0.1675941199,3.514040557
44.93329462,-1.841141105,-3.246537447,0.1795651317,3.73658261
44.93829924,-2.26730895,-3.239354849,0.2896983922,3.964597694
44.94327301,-2.422932148,-3.141192675,0.4716577232,3.995015973
44.94872655,-2.487575531,-2.944868088,0.7661445141,3.930299924
44.95373093,-2.573766708,-2.743755102,0.9720458984,3.885529611
44.95828908,-2.650381327,-2.521094322,1.130063176,3.828508919
44.96374047,-2.63841033,-2.281674147,1.343147159,3.737818919
44.96829855,-2.561795712,-2.142810583,1.467645645,3.648070477
44.97374932,-2.384624958,-2.049436569,1.501164436,3.484267657
44.97875555,-2.109291792,-2.020706177,1.517923832,3.291877591
44.98331308,-1.843535304,-2.068590164,1.458068848,3.13107848
44.98873401,-1.455674648,-2.133233786,1.319205165,2.899996092
44.99373947,-1.027112484,-2.288856745,1.070208192,2.72748434
44.99874378,-0.8978256583,-2.590526342,0.7374141216,2.839136705
45.00374932,-0.9864110947,-2.777273893,0.5195417404,2.99268788
45.00875485,-1.158793569,-2.8993783,0.3711012602,3.144346229
45.01375832,-1.33835876,-3.100491285,0.05506663769,3.377466908
45.01873332,-1.479616642,-3.332728863,-0.4501099288,3.674091184
45.02329001,-1.594538331,-3.598485231,-1.163581967,4.104335689
45.02874385,-1.582567334,-3.907337189,-2.027888775,4.678048328
45.03330039,-1.522712231,-4.314351559,-3.086126089,5.518736825
45.03872439,-1.484405041,-4.900930882,-5.02064085,7.171430567
45.04375793,-1.491587639,-5.487510204,-7.048529625,9.056454704
45.04873247,-1.549048543,-6.167463779,-8.971074104,10.9962417
45.0537367,-1.592144132,-7.252037048,-11.55681133,13.7363333
45.05874201,-1.620874524,-8.300697327,-13.71159267,16.11013917
45.06374724,-1.347935557,-9.50976944,-15.64610767,18.35901224
45.06875116,-0.8092401624,-10.99178028,-17.03713989,20.29133409
45.0737567,-0.5698199868,-13.18726254,-17.96848297,22.29562666
45.07876101,-0.624886632,-15.39471722,-17.78891945,23.53366645
45.08373585,-1.022324085,-18.16480827,-16.37155151,24.47515281
45.08874016,-1.441309452,-21.1623497,-15.01164436,25.985994
45.09374562,-2.693476915,-24.92842865,-15.51203251,29.48397065
45.09874962,-3.974374771,-27.32502365,-18.20072174,33.07142035
45.10375462,-4.491522312,-28.24679184,-18.48802567,34.05674845
45.10875955,-4.967968464,-27.05687332,-16.70913315,32.18618081
45.11373485,-5.669469833,-22.75928116,-13.62779617,27.12645564
45.11874108,-5.530605793,-17.91341782,-11.63103199,22.06261642
45.12374293,-4.718971729,-12.55758762,-10.56561184,17.07611943
45.12874939,-3.167528868,-6.31590414,-10.32858658,12.51413541
45.13375339,-2.157175779,-2.22900176,-9.909601212,10.38373981
45.13875885,-1.546654344,0.7685387731,-9.009381294,9.173425904
45.14328562,-1.165976286,2.523488522,-7.541735172,8.037740007
45.14873824,-1.278503656,2.837129116,-4.927267075,5.827678272
45.15329516,-1.951274395,1.960851192,-3.481169224,4.446453455
45.15874785,-3.914519787,-0.6224924326,-1.314416766,4.175961377
45.16375339,-5.468356609,-2.906560898,-0.282515794,6.199260878
45.16875762,-6.866570473,-5.801150799,1.089361787,9.054824667
45.17373185,-7.809885979,-7.967903137,2.353500366,11.40266475
45.17873678,-8.327033043,-10.01973438,3.263296843,13.43069852
45.18374139,-8.195352554,-11.9662199,3.588908434,14.94103363
45.18874655,-7.343016624,-14.63096619,2.327163935,16.53483464
45.19375178,-6.31590414,-16.95334244,0.05985504389,18.09171212
45.19831093,-5.23851347,-19.14643097,-2.683900118,20.0307554
45.20373147,-3.892971992,-21.14080048,-5.286397457,22.13672681
45.20873578,-1.879448295,-23.56133842,-9.39484787,25.43486113
45.21374078,-0.02633621916,-24.64351845,-12.24634171,27.51865877
45.21874478,1.831564307,-23.26924706,-11.24317074,25.90794038
45.22330378,2.640804529,-20.02270889,-5.805939198,21.01408218
45.2287247,1.687912226,-14.47055531,3.335123062,14.9455366
45.23375985,-0.3136404157,-10.00536919,8.209717751,12.94624457
45.23873455,-2.882618904,-6.643909931,9.485827446,11.93448588
45.24373862,-6.31829834,-4.321534157,7.323863029,10.59412672
45.24829709,-8.133103371,-2.686294317,5.394136429,10.12226533
45.25374993,-9.909601212,-1.453280449,1.905784607,10.19530457
45.25830693,-10.02212811,-1.177947283,-0.04070143029,10.09119756
45.26372816,-8.662221909,-1.680729628,-0.3591302633,8.831076663
45.26873308,-6.859387875,-2.738966703,0.2370259613,7.389812036
45.2737377,-4.659116745,-4.158728123,1.534683347,6.430990703
45.27874509,-2.736572504,-5.75805521,3.859453201,7.452476628
45.28330047,-1.472434044,-7.225700855,6.885724068,10.08920268
45.28872139,-0.3040636182,-8.817844391,10.39562416,13.63509575
45.29375732,0.2059013397,-10.01255131,12.03086376,15.6536022
45.2987327,0.107739076,-11.10430717,12.42111874,16.66137558
45.30373732,-0.0359130241,-12.22000504,10.65659142,16.21396785
45.30874132,-0.1556231081,-12.80179691,8.892065048,15.58778508
45.31374624,0.04070143029,-13.25430107,7.156269073,15.06287956
45.31875185,0.8020575643,-13.77384281,4.759673119,14.59508583
45.32375709,2.202665567,-14.4801321,-0.09097966552,14.64698736
45.32876109,3.524264812,-14.95897198,-4.675876141,16.06409359
45.33373585,3.928884983,-15.02600956,-7.4363904,17.21966906
45.33874078,3.248931646,-14.68363857,-8.54251194,17.29564422
45.34374501,1.975216389,-13.89834118,-7.92001915,16.11806659
45.34874993,1.146822572,-13.15613842,-6.10042572,14.5469713
45.35375578,0.6081272364,-12.38759995,-4.27125597,13.11739603
45.35876201,-0.06703764945,-11.6860981,-2.322375536,11.91481477
45.36328747,-0.4716577232,-10.9343195,-1.388636947,11.0322308
45.36829185,-1.125274777,-10.12268448,-0.7637503147,10.21363299
45.37329709,-1.544260144,-9.536105156,-0.7900865674,9.692588804
45.37874901,-2.401384354,-8.683769226,-0.5961562395,9.029390735
45.38375432,-2.932897091,-7.979874134,0.1268926859,8.502727697
45.38875885,-3.476380825,-7.410054207,0.3974374831,8.194637487
45.39373247,-4.065354347,-6.938396454,-0.4860229492,8.05634344
45.39873801,-4.213795185,-6.43082571,-0.9241618514,7.743750016
45.40374324,-3.964797974,-6.251260757,-1.065419793,7.478837033
45.40874778,-3.42131424,-6.224924564,-1.118092179,7.190633288
45.41375339,-2.650381327,-6.39251852,-0.9481038451,6.984820335
45.4187577,-2.020706177,-6.495469093,-1.331176162,6.931551209
45.42373209,-1.517923832,-6.591237068,-1.362300754,6.899591451
45.42873762,-1.024718285,-6.7636199,-1.309628367,6.965036121
45.43374162,-0.5937620401,-6.907271862,-1.271321058,7.0483484
45.4387487,0.06224924326,-7.158663273,-1.256955862,7.268443634
45.44375208,0.5051765442,-7.223306656,-1.173158884,7.335370758
45.44830939,0.7565677166,-7.32146883,-1.470039845,7.505818922
45.45373055,0.8499416113,-7.498639584,-1.89860189,7.781817621
45.45828932,0.921767652,-7.759607792,-1.975216389,8.059940972
45.46374039,1.098938584,-8.152256966,-1.908178806,8.444412709
45.46874539,1.230619669,-8.485051155,-1.889025092,8.779460899
45.47374962,1.290474772,-8.798690796,-1.790862918,9.071354632
45.47875516,1.221042871,-9.0740242,-1.515529633,9.280392823
45.48376039,1.110909581,-9.282320023,-1.326387763,9.442186696
45.48873486,0.9121908545,-9.35654068,-1.261744261,9.485196056
45.49373886,0.5458779931,-9.296685219,-1.278503656,9.400048428
45.49874416,0.1268926859,-9.244012833,-1.199495077,9.322374346
45.50374908,-0.2442085743,-9.097966194,-0.8810662031,9.143790481
45.50875455,-0.5961562395,-8.918401718,-0.5243301988,8.9536704
45.51375947,-0.9385270476,-8.482656479,-0.2585737705,8.538334402
45.51873524,-1.122880578,-8.066065788,-0.2418143749,8.147438388
45.52373893,-1.149216771,-7.694964409,-0.3806780577,7.789614382
45.52829608,-1.11569798,-7.388506413,-0.5458779931,7.492182044
45.53329924,-1.086967587,-7.158663273,-0.691924274,7.273700406
45.53872262,-1.058237195,-6.921637058,-0.6200982332,7.029469919
45.54331024,-1.086967587,-6.940790653,-0.5123591423,7.04404609
45.54873209,-1.113303781,-7.019799232,-0.3926490843,7.118370591
45.55373578,-0.9935936928,-7.261613846,-0.3064578176,7.335678596
45.55874078,-0.940921247,-7.54891777,-0.3854664862,7.617091092
45.56374755,-0.8283938169,-7.929595947,-0.6871358752,8.002304913
45.56875209,-0.720654726,-8.360552788,-1.098938584,8.463205785
45.57375647,-0.4668693244,-9.03571701,-1.745373011,9.214579524
45.57876232,-0.2202665508,-9.607931137,-2.298433542,9.881480397
45.58328932,-0.07900865376,-10.12986755,-2.810792685,10.51289753
45.58874047,0.03351882473,-10.53927612,-3.193865061,11.01263995
45.59374478,0.05746084079,-10.97262669,-3.574543238,11.54032918
45.59875247,-0.0191536136,-11.20007515,-3.775655985,11.81937512
45.60375486,-0.1628057212,-11.23838234,-3.799597979,11.86442953
45.60876016,-0.490811348,-11.17373943,-3.473986626,11.71161525
45.61373455,-0.7924807668,-11.09712505,-3.045424461,11.53467903
45.61874009,-1.034295082,-11.05163479,-2.645592928,11.41085272
45.62374378,-1.343147159,-10.96304989,-2.351106167,11.29248455
45.62874939,-1.45088625,-10.89122391,-2.219424963,11.20935664
45.63330655,-1.393425345,-10.90319443,-2.331952572,11.23651573
45.63828132,-1.012747288,-10.96065521,-2.79163909,11.35582972
45.64373332,-0.4812345505,-10.97741508,-3.148375273,11.43011354
45.64829093,0.08619125932,-11.06360626,-3.282450438,11.54059328
45.65374316,1.314416766,-10.94868469,-2.746149302,11.36409802
45.65874786,2.310404539,-10.86009884,-1.980004787,11.27830372
45.66375278,3.19865346,-10.84573364,-1.199495077,11.37102065
45.66875762,4.074931145,-10.91277122,-0.3639186621,11.65444449
45.67373216,4.642356873,-11.14740276,0.1723825186,12.07666268
45.67873709,5.145139217,-11.52089882,0.5027823448,12.62760299
45.68374193,5.430049419,-11.95903778,0.5650315881,13.14622691
45.68874686,5.339069843,-12.51209831,0.2442085743,13.60580423
45.69375147,4.94642067,-12.9430542,-0.1675941199,13.85704937
45.69875701,4.443638325,-13.37879944,-0.7493851185,14.11735719
45.7037617,3.591302633,-13.78102493,-1.788468719,14.35314332
45.70873578,2.7533319,-14.27423096,-2.825158119,14.80932221
45.71329339,1.754949808,-14.62617779,-3.744531393,15.19955397
45.71874539,0.6607996821,-14.87038708,-4.316745758,15.49836643
45.72330255,-0.5075707436,-15.00925064,-4.699818134,15.73605806
45.72827732,-1.745373011,-14.98770237,-4.932055473,15.87459355
45.73328201,-2.961627483,-15.01643276,-5.099649429,16.13291401
45.73873486,-3.433285236,-15.1529026,-5.006275654,16.32362401
45.74373947,-3.315969467,-15.28218937,-4.261679173,16.20811139
45.74874378,-2.782062292,-15.44499493,-3.529053211,16.08545789
45.75374816,-1.982398987,-15.60301208,-2.609679937,15.94347268
45.75875547,-1.110909581,-15.71793461,-1.810016513,15.86076128
45.76375978,-0.1963245422,-15.7418766,-1.398213744,15.80506957
45.76873278,0.248996973,-15.49766731,-1.345541358,15.55796173
45.77373739,0.2873041928,-14.92305946,-1.407790542,14.99206863
45.77829609,-0.2035071403,-14.23352909,-1.508347034,14.31467346
45.78330016,-1.048660398,-13.70201588,-1.41018486,13.81425166
45.78872201,-2.035071373,-13.42428875,-0.5530605912,13.58892637
45.7937577,-2.683900118,-13.39076996,0.8092401624,13.68104198
45.7987327,-3.114856482,-13.57512379,2.073378563,14.08137832
45.8032897,-3.490746021,-13.80975533,3.078943491,14.57307596
45.8082937,-3.861847401,-13.90791798,4.237737179,15.04335282
45.81329986,-4.711789131,-13.76905441,4.879383087,15.34914315
45.81872139,-6.198588371,-13.6014595,5.35343504,15.87707357
45.82375616,-7.058106422,-13.65173817,5.09725523,16.19162846
45.82876139,-7.644686222,-13.9151001,3.919308186,16.35335485
45.83373516,-8.075642586,-14.19282722,2.205059767,16.47770119
45.83874139,-8.470685959,-14.73152351,-0.09337386489,16.99349947
45.84374563,-8.341399193,-15.36359215,-1.8602947,17.58065984
45.84875116,-8.018181801,-16.1345253,-3.078943491,18.2782395
45.8533087,-7.671022415,-16.7139225,-3.490746021,18.71857628
45.85872962,-7.299921036,-17.12572479,-3.493140221,18.94152384
45.86373455,-7.022193432,-17.08262825,-3.809175014,18.85834571
45.86873947,-6.806715488,-16.77856636,-4.139574528,18.57384565
45.87374439,-6.380547523,-16.24705315,-4.249708176,17.9649142
45.87874809,-5.264849663,-15.43541813,-3.97676897,16.78646676
45.88375393,-4.357447147,-14.70758057,-3.97676897,15.84660731
45.88875893,-4.118026733,-13.89834118,-3.67988801,14.95538724
45.8937327,-2.509123325,-13.63976669,-1.37427175,13.93655474
45.89873793,-0.05746084079,-13.76665974,3.15795207,14.12433656
45.90374262,1.977610588,-14.01805115,4.534617901,14.86537793
45.90874809,3.416525841,-13.73553562,2.521094322,14.37683916
45.91375216,3.447650433,-13.27584839,1.048660398,13.75623977
45.91875924,3.387795448,-12.49533844,0.08619125932,12.94673973
45.92373247,3.438073635,-11.83932781,-0.383072257,12.33437383
45.92873647,3.79241538,-11.35330486,-0.04788403213,11.97005592
45.93374139,3.476380825,-10.73560047,0.6847416759,11.30518519
45.93874632,2.839523315,-9.703699112,0.8379706144,10.14528777
45.94375124,2.197877169,-8.877699852,1.067813993,9.207846949
45.94875709,1.584961534,-7.987056732,1.568202138,8.292432469
45.95328324,0.8882488012,-6.976703644,1.987187386,7.308371458
45.95873578,0.1388636976,-5.784391403,2.63601613,6.358226802
45.96374109,-0.3854664862,-4.876988888,2.997540474,5.737495439
45.96829832,-0.8451532125,-3.876212597,2.978386879,4.960856423
45.97375055,-1.45088625,-2.774879694,2.832340717,4.222224788
45.97875516,-1.721431017,-2.149993181,2.691082716,3.850678071
45.98375986,-1.728613615,-1.831564307,2.372653961,3.460089545
45.98828632,-1.951274395,-1.812410712,1.757344007,3.190699346
45.99329216,-1.982398987,-1.893813491,1.240196466,3.009073372
45.99829855,-1.920149803,-2.063801765,0.8810662031,2.953393074
46.00374909,-1.843535304,-2.236184359,0.6751648784,2.97573361
46.00830601,-1.877054095,-2.298433542,0.55784899,3.019490739
46.01372878,-1.994369984,-2.535459518,0.5051765442,3.265160018
46.01828539,-2.059013367,-2.782062292,0.4548983276,3.490893744
46.02329062,-2.145204782,-2.880224705,0.4285621047,3.616802923
46.02829547,-2.219424963,-3.057395458,0.5482721925,3.817606128
46.0333007,-2.291250944,-3.203441858,0.739808321,4.007391543
46.03872232,-2.310404539,-3.19625926,0.9361328483,4.05344139
46.04375709,-2.200271368,-3.184288263,1.127668977,4.031441821
46.04852109,-2.286462545,-3.100491285,1.326387763,4.074341871
46.05329001,-2.549824715,-3.047818661,1.458068848,4.232820505
46.0587417,-2.827552319,-2.901772499,1.549048543,4.337613069
46.06374747,-2.93768549,-2.760514498,1.539471745,4.315137261
46.06875116,-2.885013103,-2.631227732,1.570596337,4.208732925
46.0737567,-2.310404539,-2.825158119,2.025494576,4.173980811
46.07876255,-2.121262789,-2.908955097,1.879448295,4.061293078
46.08373586,-2.039859772,-2.877830505,1.539471745,3.848754287
46.08874009,-1.838746905,-2.882618904,1.247379065,3.639565422
46.0937454,-1.711854219,-2.93529129,1.043871999,3.554722011
46.09875055,-1.70946002,-2.987963676,0.8427590132,3.544068742
46.10375486,-1.757344007,-3.05021286,0.6081272364,3.572376686
46.10875978,-1.994369984,-3.107673883,0.1675941199,3.696381526
46.11373424,-2.233790159,-3.19625926,-0.3447650373,3.914684491
46.11873893,-2.442085743,-3.301604033,-0.9289502501,4.210382468
46.12374478,-2.521094322,-3.483563423,-1.640028119,4.602262806
46.12874909,-2.523488522,-3.813963413,-2.837129116,5.381785285
46.13330593,-2.410961151,-4.153939724,-3.847482204,6.153947369
46.13872816,-2.178723574,-4.534617901,-5.008669853,7.099040049
46.14373332,-2.011129379,-4.972756863,-6.416460514,8.363248037
46.14873824,-1.999158382,-5.631162167,-8.341399193,10.26087531
46.15374378,-2.037465572,-6.301538944,-9.864110947,11.88113394
46.15875001,-2.080561161,-7.024587631,-11.23598862,13.41346362
46.16375309,-2.473210335,-8.166622162,-12.62223148,15.23585293
46.16831055,-2.770091295,-8.923190117,-13.32612705,16.27520783
46.17373147,-2.968810081,-10.31422138,-13.73074722,17.42786319
46.1787367,-3.052607059,-11.51850414,-13.05318737,17.67427645
46.1837417,-3.004723072,-13.31894398,-11.61666679,17.92678378
46.18874601,-2.968810081,-15.52639771,-11.08036518,19.30433505
46.19375063,-3.371036053,-18.11931801,-11.32936287,21.63395554
46.19875616,-4.168305397,-20.89659309,-13.22078133,25.07651155
46.20376163,-4.417302132,-24.28678131,-18.86391449,31.06778998
46.20828816,-3.256114244,-25.79273415,-21.2700882,33.58993996
46.2137407,-1.477222443,-26.04173279,-20.02749634,32.88547768
46.21874563,-0.4381389022,-24.16946602,-15.92383575,28.94691
46.22375024,0.7733271718,-19.54147339,-11.8872118,22.88608795
46.22875516,1.053448796,-14.60941887,-10.26633644,17.88693764
46.23376078,1.26413846,-9.684545517,-10.39083576,14.2603624
46.23873555,1.458068848,-5.640739441,-10.82179165,12.29044672
46.24373863,1.419761658,-2.11647439,-10.12029076,10.43625757
46.24874447,1.043871999,-0.3639186621,-8.571242332,8.642239332
46.25374909,0.2873041928,0.248996973,-6.856993675,6.867525424
46.25875424,-1.563413739,-0.3663128614,-5.343858242,5.579898614
46.26375855,-3.493140221,-2.466027737,-4.278438568,6.048831125
46.2687337,-5.372588634,-4.398148537,-3.08373189,7.597224595
46.27373893,-6.581660271,-6.344634533,-1.132457376,9.211682744
46.27874232,-7.383718014,-8.676587105,2.059013367,11.57765052
46.2833004,-7.809885979,-10.07480049,4.61362648,13.55660257
46.28827547,-8.870517731,-12.55758762,7.745242596,17.21533835
46.29372786,-9.33020401,-14.54716969,8.159439087,19.11149651
46.29828447,-9.30386734,-16.60378838,6.141127586,19.99902958
46.30373647,-8.161833763,-19.57020378,1.07739079,21.23132538
46.30874193,-6.303933144,-22.2924118,-3.842693806,23.48313209
46.31374624,-3.722983599,-24.87336159,-8.633491516,26.59101163
46.3187537,-0.2633621991,-26.55169678,-12.6437788,29.40964304
46.32375678,1.685518026,-24.19101334,-12.44745445,27.25775522
46.32873116,1.956062794,-20.15439034,-9.466673851,22.35270778
46.33373609,0.8786720037,-15.21275806,-1.74776721,15.33801691
46.3387404,-0.5339069963,-9.083600998,7.086836815,11.53343487
46.34374509,-2.470816135,-5.532999992,8.791508675,10.67752996
46.34875001,-4.98233366,-3.174711466,7.089231014,9.22819798
46.35375455,-6.998251438,-1.738190413,3.936067581,8.215196717
46.3587604,-8.056488991,-0.6823474765,-0.141257897,8.086567055
46.36373455,-7.625532627,-0.4141969085,-0.9169792533,7.691629078
46.36873955,-5.997475147,-0.8379706144,0.9337386489,6.127297182
46.37374347,-3.505111217,-1.786074519,3.05021286,4.97791777
46.3787494,-1.800439715,-3.38300705,5.336675644,6.570116193
46.38375393,-0.490811348,-4.917690277,7.656657219,9.113120937
46.38831147,0.09337386489,-6.519411087,10.44111347,12.30968278
46.3932854,-0.5482721925,-7.951143742,12.38759995,14.73003468
46.39874016,-1.082179189,-9.730035782,13.42907715,16.61880926
46.40374286,-1.316810966,-10.82658005,12.88080502,16.87791351
46.40874755,-1.146822572,-11.74595356,11.53765774,16.50455007
46.4137534,-0.6991068721,-12.95023727,8.937555313,15.75046954
46.4187577,-0.07422025502,-14.00847435,6.258443356,15.3431084
46.42373147,1.455674648,-15.25106525,3.313575268,15.67462156
46.42873647,3.675099611,-16.37873459,-1.549048543,16.85730866
46.43374224,5.997475147,-17.21670532,-9.157821655,20.40221429
46.43874716,5.382165432,-16.7929306,-11.52808094,21.06814831
46.44375116,3.277662039,-15.41147614,-10.3166151,18.83319443
46.4487564,1.618480325,-13.68525696,-7.39808321,15.64088782
46.45331432,0.7015010715,-12.06438255,-4.663905144,12.95351077
46.4582884,0.02633621916,-10.46505547,-2.650381327,10.79548983
46.46373986,-0.4405331016,-9.641449928,-2.001552582,9.856867599
46.4687447,-0.7948749661,-9.21528244,-1.498770237,9.370142416
46.47375093,-1.405396342,-8.827422142,-1.350329757,9.040017202
46.47875709,-2.48996973,-8.130708694,-1.417367458,8.620748439
46.48376009,-3.529053211,-7.477091789,-1.048660398,8.334315018
46.48873424,-4.663905144,-7.000645638,-0.9911994934,8.470155073
46.49373986,-5.099649429,-6.732495308,-0.9193734527,8.495773356
46.49874501,-5.190629482,-6.519411087,-0.6871358752,8.361669155
46.50374878,-5.331887245,-6.133944988,-1.00317049,8.189056951
46.50875424,-4.86741209,-6.021417141,-1.343147159,7.858321012
46.51375924,-4.321534157,-6.045359135,-1.278503656,7.540331301
46.51828593,-3.620033026,-6.133944988,-1.149216771,7.214611522
46.52329063,-2.853888512,-6.227318764,-0.8978256583,6.908709687
46.52876932,-1.807622313,-6.449979305,-0.7134721279,6.736376915
46.53374716,-0.9816226959,-6.710947514,-0.7852981687,6.827671115
46.53875155,-0.2298433632,-6.950367451,-0.8236053586,7.002768128
46.54375801,0.3926490843,-7.153874874,-0.7948749661,7.208600782
46.5487324,0.8810662031,-7.438784599,-0.8810662031,7.542418155
46.55328963,1.07739079,-7.627926826,-1.012747288,7.7699225
46.55874347,1.328781962,-7.99423933,-1.216254473,8.194681136
46.56374693,1.601720929,-8.303091049,-1.345541358,8.562552917
46.56875178,1.78128612,-8.614337921,-1.302445769,8.892477891
46.57330878,1.886630893,-8.803479195,-1.051054597,9.064509795
46.57873024,1.848323703,-9.006986618,-0.9193734527,9.240527907
46.5837364,1.608903527,-9.121908188,-0.8667010069,9.303168825
46.58874017,1.108515382,-9.11233139,-1.039083481,9.238132073
46.5932977,0.5985504389,-8.987833023,-1.031900883,9.066654538
46.59875055,0.07661445439,-8.805873871,-0.8714894056,8.849224722
46.60375586,-0.55784899,-8.676587105,-0.7062895298,8.723141876
46.60876009,-0.9911994934,-8.451532364,-0.6009446383,8.530651217
46.61328655,-1.307234168,-8.233659744,-0.5363011956,8.354018969
46.61829178,-1.563413739,-7.987056732,-0.5913678408,8.160089073
46.62329709,-1.697489023,-7.836222172,-0.6775590777,8.046547907
46.62874847,-1.697489023,-7.694964409,-0.873883605,7.928279687
46.63330724,-1.63763392,-7.603984833,-0.9696516991,7.838536509
46.63873086,-1.563413739,-7.51061058,-1.065419793,7.745234222
46.64373309,-1.388636947,-7.546523571,-1.242590666,7.77318224
46.64873801,-1.163581967,-7.706935406,-1.443703651,7.926856664
46.65374232,-0.940921247,-7.972691536,-1.460463047,8.159785257
46.65874778,-0.720654726,-8.238448143,-1.371877551,8.382924254
46.66375309,-0.4620809257,-8.712499619,-1.527500629,8.857450342
46.66875678,-0.1987187415,-9.155426979,-1.877054095,9.347976486
46.67373217,0.01675941236,-9.665391922,-2.317587137,9.939380867
46.67829032,0.1987187415,-10.20408726,-2.741360903,10.56777865
46.68329517,0.3854664862,-10.67574501,-3.114856482,11.1275535
46.68874655,0.5219359994,-11.11149025,-3.399766445,11.63168279
46.69375178,0.5434837937,-11.32217979,-3.598485231,11.89269633
46.69875609,0.4812345505,-11.47540855,-3.653551817,12.05259429
46.70376132,0.2418143749,-11.47062016,-3.378218651,11.96018236
46.7087367,-0.004788403399,-11.34851646,-2.999934673,11.7383328
46.7137407,-0.2849099934,-11.17373943,-2.626439333,11.48180344
46.71874755,-0.6344634295,-11.00135708,-2.571372509,11.31566869
46.72375055,-0.8116343617,-10.82897472,-2.777273893,11.20886677
46.72875486,-0.9050082564,-10.6446209,-3.064578056,11.11389367
46.7337604,-0.6584054828,-10.699687,-3.694253206,11.33862013
46.73873463,-0.0287304204,-10.72602367,-4.118026733,11.48941049
46.74373916,0.6488286853,-10.699687,-3.806780815,11.37523014
46.74874409,1.304839969,-10.68771648,-3.138798475,11.2152551
46.75374878,2.19308877,-10.47463226,-2.011129379,10.88908632
46.75875432,3.181894064,-10.26633644,-0.7230489254,10.77241447
46.76375886,3.890577793,-10.26873112,0.1197100878,10.98170136
46.7687327,4.5370121,-10.44111347,0.6847416759,11.40483233
46.77329086,5.075707436,-10.84573364,0.9002198577,12.00846118
46.77874263,5.461174011,-11.55202293,0.7350199223,12.79898081
46.78374716,5.463568211,-12.17930412,0.383072257,13.35412936
46.7887527,5.286397457,-12.74672985,-0.248996973,13.80170712
46.79375832,4.747702122,-13.2183876,-1.177947283,14.09446722
46.79873463,3.801992416,-13.8025732,-2.367865562,14.5111323
46.80373732,2.782062292,-14.28141308,-3.165134668,14.89015472
46.80874194,1.644816518,-14.70279217,-3.675099611,15.24414235
46.81374694,0.6607996821,-14.99009705,-4.09169054,15.55254311
46.8187524,-0.921767652,-14.98291397,-4.769249916,15.75065432
46.82375678,-2.293645144,-14.68603325,-5.102043629,15.71531832
46.82876201,-3.308786631,-14.45379543,-5.240907669,15.72664569
46.83373586,-3.773261786,-14.37239265,-5.070919037,15.70087243
46.83873955,-3.646369219,-14.4897089,-4.467580318,15.59509366
46.84374509,-3.213018656,-14.67885017,-3.936067581,15.53334347
46.84875055,-2.609679937,-14.80095482,-3.596091032,15.45349681
46.85375432,-2.020706177,-14.83207989,-3.270479441,15.32220229
46.85875924,-1.879448295,-14.68363857,-2.968810081,15.09819198
46.86373424,-2.085349798,-14.37718105,-2.511517525,14.74312515
46.86873947,-2.497152328,-13.98453236,-1.271321058,14.26250932
46.87374417,-2.901772499,-13.77144814,1.295263171,14.13332141
46.87875094,-2.987963676,-13.97016716,2.870647907,14.57168888
46.88375363,-3.174711466,-14.36042213,3.538630009,15.12687737
46.88875924,-3.397372246,-14.82729149,3.715801001,15.65879587
46.89373309,-3.744531393,-15.1720562,4.175487995,16.17552177
46.89873794,-4.079719543,-15.28697777,4.592078686,16.47491995
46.90329524,-4.903325081,-15.31091976,4.314351559,16.64573489
46.90874686,-6.050147533,-15.25345898,3.430891037,16.76434637
46.9137527,-7.299921036,-15.24388218,1.958456993,17.01470966
46.91875794,-8.317456245,-15.42105293,0.5434837937,17.52952728
46.92373178,-8.880094528,-15.94059467,-0.8834604025,18.26852867
46.92873701,-8.765172005,-16.65406609,-2.279279947,18.9573541
46.93374194,-8.233659744,-17.25979996,-3.335123062,19.41177203
46.93874601,-7.702147007,-17.50640297,-3.615244627,19.46451148
46.9433044,-7.297526836,-17.42260551,-3.672705412,19.24291677
46.9487254,-6.947973251,-17.12572479,-3.330334663,18.77913499
46.95376101,-6.457161903,-16.41704178,-3.153163671,17.92084378
46.95873894,-5.705382824,-15.57667637,-2.961627483,16.85097852
46.96374017,-5.001487255,-14.63336086,-3.055001259,15.76334855
46.96874532,-3.955221176,-13.62300777,-2.63841033,14.42883656
46.97374963,-2.104503393,-13.223176,-1.139639974,13.43800943
46.97875494,-1.240196466,-12.68687439,-0.4261679053,12.75446934
46.98376009,-0.1316810995,-12.48576164,1.908178806,12.63141837
46.98873463,1.924938202,-12.5408287,3.191470861,13.08293766
46.99373917,2.698265314,-12.39717674,2.092532396,12.8588226
46.9982974,2.85867691,-12.19606304,1.170764685,12.58120333
47.00330132,3.150769472,-11.92551899,0.5003881454,12.34486694
47.00872355,3.210624456,-11.50653362,0.04070143029,11.94613251
47.0137577,3.167528868,-11.08275986,-0.490811348,11.53697105
47.01873363,2.978386879,-10.66856289,-0.6703764796,11.09677553
47.02373832,2.353500366,-10.10592556,-0.1604115069,10.37759256
47.02874232,1.522712231,-9.378087997,0.6751648784,9.524864022
47.03374817,0.9481038451,-8.760383606,0.9576807022,8.863429029
47.03875432,0.4812345505,-8.149862289,1.309628367,8.268432045
47.0437577,-0.107739076,-7.467514992,1.587355733,7.635121877
47.04873217,-0.4405331016,-6.7612257,1.726219416,6.992000848
47.05373709,-0.8092401624,-6.098031521,1.731007814,6.390402657
47.05874201,-1.256955862,-5.365406036,1.704671621,5.768312172
47.06374624,-1.740584612,-4.551377296,1.508347034,5.100958818
47.06875155,-1.9321208,-3.974374771,1.350329757,4.62083716
47.07375678,-2.025494576,-3.462015629,1.26653266,4.206219855
47.07876201,-2.11647439,-3.088520288,1.170764685,3.922895788
47.08373524,-2.138022184,-2.695871115,1.098938584,3.6119975
47.08874071,-1.831564307,-2.707842112,1.582567334,3.632018183
47.0937454,-1.527500629,-2.794033289,1.55862534,3.54530579
47.09875124,-1.345541358,-2.796427488,1.268926859,3.352709892
47.10375517,-1.551442742,-2.748543501,0.921767652,3.288027002
47.10876009,-1.826775908,-2.67432332,0.962469101,3.378677583
47.11373486,-2.078166962,-2.552218914,1.168370485,3.49251899
47.11874224,-2.296039343,-2.444479942,1.343147159,3.612661504
47.12374447,-2.480392933,-2.26730895,1.498770237,3.679585738
47.12874878,-2.734178305,-2.149993181,1.678335428,3.861995791
47.13330655,-2.959233284,-2.085349798,1.766920805,4.02836872
47.13872847,-3.086126089,-1.977610588,1.790862918,4.079498482
47.1432854,-3.260902643,-1.922544003,1.824381709,4.202145894
47.14873824,-3.45722723,-1.838746905,1.829170108,4.32195252
47.15374317,-3.476380825,-1.826775908,1.774103403,4.309266381
47.1583004,-3.445256233,-1.812410712,1.699883223,4.247849582
47.16327517,-3.301604033,-1.891419291,1.601720929,4.128385406
47.16872724,-3.064578056,-2.035071373,1.434126854,3.948401447
47.17373147,-2.82276392,-2.133233786,1.204283476,3.73751003
47.17873732,-2.686294317,-2.26730895,0.9097966552,3.631060037
47.18374009,-2.664746523,-2.336740971,0.691924274,3.611092853
47.18874686,-2.698265314,-2.444479942,0.4094084799,3.663841317
47.19375147,-2.758120298,-2.604891539,0.1221042871,3.795734048
47.19875678,-2.767697096,-2.920926094,-0.3734954596,4.041219534
47.20373001,-2.810792685,-3.232172251,-0.8283938169,4.362766243
47.20873494,-2.813186884,-3.670311213,-1.398213744,4.831170305
47.21329217,-2.700659513,-4.173093796,-1.989581585,5.354130043
47.21874563,-2.449268341,-4.824316502,-3.004723072,6.188804881
47.22375055,-2.262520552,-5.406107426,-4.005499363,7.098522515
47.22875486,-2.090138197,-6.054935932,-5.365406036,8.35574705
47.23375947,-2.025494576,-6.792350292,-6.792350292,9.817060317
47.23873455,-2.159569979,-7.977479935,-8.798690796,12.07149072
47.24329124,-2.26970315,-9.093177795,-10.98699188,14.44130969
47.24874347,-2.317587137,-10.3166151,-13.06276417,16.80593839
47.2537487,-2.353500366,-11.6956749,-13.45780754,17.9844477
47.25875463,-2.214636564,-13.31176186,-12.11705494,18.13644505
47.26375801,-1.965639591,-14.5639286,-10.67335129,18.16293432
47.26873332,-2.197877169,-15.80412579,-10.62307262,19.16900435
47.27373763,-3.232172251,-17.36035728,-11.43710136,21.03892179
47.27874478,-4.05577755,-19.52950287,-12.47618484,23.52670827
47.28374901,-4.596867085,-21.00433159,-15.15050793,26.30306109
47.28875332,-4.860229492,-21.90215683,-20.75294113,30.56159142
47.2937574,-4.185064793,-22.57971573,-23.04898071,32.53634647
47.2987324,-2.030282974,-21.97877121,-20.14720726,29.88475185
47.30373701,0.490811348,-19.91975784,-16.16086197,25.65562527
47.30874263,2.106897593,-16.39788818,-12.93108368,20.98910859
47.31374655,3.349488258,-10.85770512,-11.288661,16.01695037
47.31875178,4.216189384,-6.811503887,-11.46583176,13.98707032
47.3237564,4.649539471,-3.847482204,-11.48738003,12.97617958
47.3287604,4.486733913,-1.884236693,-10.50575733,11.5780856
47.33328817,3.751713991,-0.9959878922,-8.628703117,9.461599613
47.33874078,1.862688899,-1.328781962,-6.418854713,6.814467497
47.3437454,-0.1053448766,-2.576161146,-5.269638062,5.866582403
47.34875055,-2.092532396,-4.139574528,-4.000710964,6.125394462
47.35375609,-4.259284973,-6.181828976,-1.884236693,7.739952576
47.35876194,-5.439626217,-7.864952564,0.174776718,9.564390159
47.36373524,-6.035782337,-9.603142738,2.650381327,11.64798438
47.36874017,-6.600813866,-11.63103199,4.570530891,14.13298983
47.37374478,-7.079654217,-14.32211494,4.90811348,16.71328987
47.3787484,-6.50983429,-16.5175972,4.288015366,18.26461156
47.38375401,-6.086060524,-19.1009407,3.189076662,20.2991694
47.38831148,-5.592854977,-21.57415199,1.278503656,22.32394751
47.3937337,-4.809951305,-23.72414398,-1.340752959,24.24393239
47.39873832,-4.273650169,-24.3250885,-3.667917013,24.96853283
47.40374324,-2.7533319,-23.84146118,-7.558494568,25.16201399
47.40874778,-0.5722141862,-21.35388565,-10.07240677,23.61713868
47.41375301,-1.130063176,-17.44415283,-4.934449673,18.16381855
47.41875801,-3.078943491,-12.5408287,2.767697096,13.20652963
47.4237324,-5.046977043,-7.95593214,5.954379559,11.14555828
47.42873678,-7.991845131,-4.036623955,3.983951569,9.799785286
47.43374194,-10.49618053,-2.054224968,0.3112462163,10.69983739
47.43830101,-11.65976238,-1.094150186,-2.944868088,12.07557334
47.44372201,-11.14500904,-0.6224924326,-2.906560898,11.5345923
47.44875701,-9.315838814,-0.6775590777,1.261744261,9.425281836
47.4537607,-7.65426302,-1.067813993,3.502717018,8.485104337
47.45873517,-6.081272125,-1.829170108,4.529829502,7.800454427
47.46329301,-4.436455727,-2.961627483,5.712565422,7.815803251
47.46874563,-2.580949545,-4.560954094,9.114726067,10.51388768
47.4737497,-1.63763392,-5.884947777,12.87122822,14.24720924
47.47875555,-0.921767652,-7.393294811,16.07706451,17.71955042
47.48376009,-0.7661445141,-8.983044624,17.64526558,19.81508177
47.48873494,-0.8834604025,-10.93910789,16.94137192,20.18550634
47.49373948,-0.9840168953,-12.43308926,15.09065342,19.57748243
47.49874448,-1.015141487,-13.72356415,12.65096188,18.69260714
47.50374909,-0.1580173075,-14.8823576,7.931990147,16.86493418
47.50875371,1.8579005,-16.29733086,2.288856745,16.56181308
47.51375801,5.631162167,-17.62132454,-5.597643375,19.32756263
47.51873524,9.246406555,-18.91898155,-11.52808094,24.00667714
47.52373832,10.94150162,-19.4935894,-14.03241634,26.39365821
47.52874386,9.437943459,-18.79208946,-11.8967886,24.16093918
47.5337484,7.204153061,-17.20233917,-8.492233276,20.49239665
47.53875217,5.046977043,-15.4426012,-5.240907669,17.07082372
47.54375763,3.804386616,-13.30697346,-2.774879694,14.11555374
47.5487324,3.442862034,-12.00452709,-2.391807556,12.71545174
47.55328994,2.233790159,-10.86249352,-1.991975784,11.2672779
47.55874201,0.8044517636,-9.749189377,-1.453280449,9.889684535
47.56374601,-0.9002198577,-8.461109161,-0.6320692301,8.53230775
47.56875186,-2.233790159,-7.357381821,-0.4357447028,7.701347881
47.57375671,-3.356670856,-6.488286495,-0.2920926213,7.310979345
47.5787614,-4.216189384,-5.822698593,0.2681505978,7.193884665
47.58373555,-5.556941986,-5.027823448,0.03830722719,7.494002956
47.5887414,-5.94959116,-4.764461517,-0.7110779285,7.655283165
47.59329832,-5.999869347,-4.697423935,-1.125274777,7.702627287
47.59875217,-5.473145008,-4.848258495,-0.8786720037,7.364305209
47.60375648,-4.783615112,-5.209783077,-0.9528923035,7.136723127
47.6087604,-3.746925592,-5.691017628,-1.04147768,6.892881023
47.61373463,-2.463633537,-6.342240334,-1.113303781,6.894414258
47.61873948,-1.074996591,-7.012616634,-1.295263171,7.211803964
47.62374378,-0.2035071403,-7.864952564,-1.235408068,7.963989395
47.62830171,0.4189853072,-8.425195694,-1.043871999,8.499949407
47.63372355,0.7709329724,-8.858546257,-0.8164227605,8.929430304
47.63875863,0.8212111592,-9.220070839,-0.7852981687,9.289821702
47.64373278,0.825999558,-9.39484787,-0.9265560508,9.476494493
47.64873855,0.6320692301,-9.564835548,-1.11569798,9.650407896
47.65374232,0.4548983276,-9.722852707,-1.359906554,9.828028443
47.65874778,0.3806780577,-9.629479408,-1.465251446,9.747756217
47.6637524,0.1963245422,-9.524134636,-1.503558636,9.644084843
47.6687574,-0.03112462163,-9.373299599,-1.549048543,9.500487645
47.67373309,-0.3423708379,-9.129091263,-1.477222443,9.254172638
47.67873924,-0.586579442,-8.798690796,-1.288080573,8.91180042
47.68329463,-0.7733271718,-8.528146744,-1.106121182,8.634282012
47.68829924,-1.017535686,-8.257601738,-0.8427590132,8.362631649
47.69327332,-1.290474772,-7.893682957,-0.5985504389,8.020836514
47.69872594,-1.498770237,-7.51061058,-0.3136404157,7.665112773
47.70328378,-1.563413739,-7.295132637,-0.06464344263,7.461059006
47.70873578,-1.529894829,-7.122750282,0.1604115069,7.286966558
47.71329248,-1.493981838,-7.089231014,0.3447650373,7.253140081
47.71829801,-1.393425345,-7.149086475,0.4836287498,7.299655361
47.72374994,-1.185129881,-7.357381821,0.605733037,7.476798285
47.72875517,-0.9792284966,-7.625532627,0.6751648784,7.717738264
47.73376048,-0.7015010715,-8.166622162,0.4477157295,8.208914098
47.73873517,-0.4955997467,-8.621520042,0.1005564705,8.636338261
47.74329248,-0.2992752194,-9.119514465,-0.4836287498,9.137231884
47.74874386,-0.03112462163,-9.667786598,-1.192312479,9.741081844
47.75374932,0.3782838583,-10.32858658,-2.226607561,10.57263357
47.75830717,0.6153098345,-10.67574501,-2.79163909,11.05184991
47.76328171,0.9433154464,-11.10909557,-3.545812607,11.69934338
47.76828632,1.230619669,-11.35091019,-3.895366192,12.06364226
47.77329032,1.37427175,-11.44667816,-3.94085598,12.18381753
47.77829586,1.371877551,-11.40597725,-3.687070608,12.06535763
47.78330101,1.242590666,-11.25274754,-2.93768549,11.69608288
47.78827555,1.000776291,-11.03726959,-2.037465572,11.26828022
47.79372655,0.5650315881,-10.76433086,-0.9959878922,10.82506681
47.79873248,0.2394201756,-10.51533413,-0.4620809257,10.52820463
47.80373763,-0.0718260482,-10.37407589,-0.3854664862,10.38148323
47.80829425,-0.2418143749,-10.29746151,-0.7158663273,10.3251466
47.81374655,-0.05506663769,-10.26154804,-1.434126854,10.36142463
47.81830378,0.1699883193,-10.24239445,-1.833958507,10.40667785
47.82327863,0.5817909837,-10.18732834,-1.989581585,10.39608457
47.82828348,1.118092179,-10.16338634,-1.879448295,10.39600298
47.83373586,1.872265697,-10.21127033,-1.340752959,10.46771413
47.83829517,2.509123325,-10.40520096,-1.012747288,10.75125871
47.84374594,3.148375273,-10.77869606,-0.8930372596,11.26454931
47.84874932,3.900154591,-11.42752457,-0.7972691655,12.10103969
47.85375586,4.323928356,-12.01171017,-0.9361328483,12.80054226
47.85876017,4.580107689,-12.50730991,-1.314416766,13.38423995
47.86373432,4.685452938,-12.89277649,-1.874659896,13.84527012
47.86873917,4.5394063,-13.11783123,-2.650381327,14.13181612
47.87374386,4.235342979,-13.12261963,-3.337517262,14.18732877
47.87874932,3.713406801,-13.09867764,-4.019864559,14.19591691
47.88375401,3.064578056,-13.15135002,-4.548983097,14.24931203
47.88875924,1.977610588,-13.32612705,-4.819528103,14.30819545
47.89373309,0.758961916,-13.49372101,-5.006275654,14.41247119
47.89828971,-0.517147541,-13.48893261,-5.319916248,14.50931609
47.90329494,-1.687912226,-13.35006905,-5.64552784,14.59264801
47.90874748,-2.391807556,-13.38358784,-5.686229229,14.73683716
47.91330563,-2.571372509,-13.5128746,-5.209783077,14.70889446
47.91828078,-2.363077164,-13.55836391,-4.448426723,14.46381229
47.92328563,-1.853112102,-13.65413189,-3.627215624,14.24872048
47.92873678,-1.094150186,-13.76187134,-3.05021286,14.13824833
47.93374294,-0.5722141862,-13.81215,-2.734178305,14.09179363
47.93874663,-0.14844051,-13.72116947,-2.497152328,13.94734011
47.94375217,0.1843535304,-13.53921032,-2.717418909,13.8104514
47.94875671,0.1149216816,-12.98375607,-3.205836058,13.37417337
47.95376224,-0.3471592367,-12.48576164,-2.703053713,12.77972076
47.95873494,-1.053448796,-12.05480576,-1.391031146,12.18043775
47.96374017,-1.778891921,-11.79862595,0.5410895944,11.94423747
47.9687454,-2.102109194,-12.03565216,1.762132406,12.34426574
47.97375001,-2.123656988,-12.69884586,3.062183857,13.2343332
47.97875524,-2.334346771,-13.50090313,4.163516521,14.31986138
47.9837604,-3.124433279,-14.26225948,4.989516258,15.42949777
47.98873424,-4.185064793,-14.68842697,5.31273365,16.17064603
47.99373924,-5.377377033,-15.02840424,5.104437828,16.75781618
47.99874594,-6.646304131,-15.35641003,4.46279192,17.31788668
48.00374909,-8.169015884,-15.8544035,2.767697096,18.04868632
48.00875363,-9.349357605,-16.44337654,0.6512228847,18.92667987
48.01375894,-10.07240677,-17.11375427,-2.023100376,19.96063372
48.01873278,-10.11550236,-17.70033264,-4.410119534,20.85843517
48.02373801,-9.91438961,-18.12650108,-6.169857979,21.56228908
48.02874324,-9.651026726,-18.05467415,-6.428431511,21.45782625
48.03374778,-9.25358963,-17.6763916,-6.021417141,20.84085424
48.03830594,-8.760383606,-17.04911041,-5.183446884,19.85660113
48.04328009,-7.982268333,-16.3212738,-4.211400986,18.65037492
48.04873186,-6.849811077,-15.21515179,-3.38300705,17.02543663
48.05373709,-5.98789835,-14.1808567,-3.263296843,15.7353338
48.05874132,-4.663905144,-13.29979038,-2.954444885,14.40017986
48.06374686,-3.387795448,-12.61504841,-2.018311977,13.21704156
48.06875148,-2.521094322,-12.06677628,-1.237802267,12.38931639
48.07375648,-1.74776721,-11.47540855,0.1699883193,11.60898737
48.07876294,-0.2298433632,-11.19049835,2.288856745,11.4244889
48.08373702,1.343147159,-11.52329254,3.60327363,12.14799968
48.0887414,2.748543501,-11.6908865,2.901772499,12.3552257
48.09374448,3.411737442,-11.84172153,1.012747288,12.36494959
48.09830263,3.394978046,-11.77468395,-0.5530605912,12.2668225
48.10372478,2.868253708,-11.47540855,-0.7852981687,11.85447485
48.10875955,3.100491285,-11.3173914,-0.1268926859,11.73509676
48.11373455,3.265691042,-11.08994198,0.3280056417,11.5654286
48.11873894,2.952050686,-10.7188406,0.3519476354,11.1234893
48.12374386,2.236184359,-10.31422138,0.2873041928,10.55775672
48.12874902,1.223437071,-9.684545517,0.5123591423,9.774954324
48.13375402,0.4692635238,-8.884882927,0.7948749661,8.932702788
48.13875863,-0.1460463107,-7.826645374,1.022324085,7.894482496
48.14373278,-0.605733037,-6.995857239,1.161187768,7.117393347
48.14829063,-1.072602391,-6.172252178,1.283292055,6.394842558
48.15374317,-1.383848548,-5.449203014,1.352723956,5.782621585
48.15874994,-1.556231141,-4.721365929,1.63763392,5.23402297
48.16375309,-1.56101954,-4.27125597,2.090138197,5.004906318
48.16875763,-1.620874524,-3.876212597,2.19308877,4.739398345
48.17373271,-1.651999116,-3.526659012,1.951274395,4.355903652
48.17873709,-1.699883223,-3.124433279,1.63523972,3.914804622
48.18374225,-1.848323703,-2.853888512,1.570596337,3.745364202
48.18874717,-2.106897593,-2.446874142,1.422155857,3.52827689
48.19375148,-2.382230759,-2.092532396,1.391031146,3.462467742
48.19875678,-2.56658411,-1.941697598,1.44849205,3.529259522
48.20331402,-2.67432332,-1.917755604,1.379060149,3.568136583
48.2082884,-2.731784105,-1.905784607,1.276109457,3.566947534
48.21329278,-2.784456491,-1.97042799,1.256955862,3.635343513
48.21874502,-2.949656487,-2.025494576,1.192312479,3.771566082
48.22375063,-3.055001259,-2.066195965,1.233013868,3.888768656
48.22830817,-3.153163671,-2.078166962,1.295263171,3.992358419
48.23328286,-3.246537447,-2.070984364,1.362300754,4.084708677
48.23873578,-3.292027235,-2.049436569,1.455674648,4.142055317
48.24329186,-3.229778051,-2.135627985,1.534683347,4.165048154
48.2487444,-3.08133769,-2.205059767,1.546654344,4.092562791
48.25330202,-2.882618904,-2.341529369,1.472434044,3.995036113
48.25872317,-2.619256735,-2.468421936,1.371877551,3.851708804
48.26331248,-2.485181332,-2.518700123,1.22822547,3.745465841
48.26873309,-2.391807556,-2.578555346,1.067813993,3.675584005
48.27373825,-2.341529369,-2.624045134,0.8451532125,3.616995522
48.27829486,-2.255337954,-2.643198729,0.6153098345,3.528690266
48.28374871,-2.257732153,-2.681505919,0.3399766386,3.521847893
48.28875278,-2.372653961,-2.7509377,-0.09337386489,3.633987304
48.29331063,-2.432508945,-2.774879694,-0.4812345505,3.721376597
48.29873209,-2.487575531,-2.863465309,-1.142034173,3.961276013
48.30328878,-2.540247917,-3.019088268,-1.89620769,4.377597178
48.30829486,-2.557007313,-3.236960649,-2.992752075,5.096348264
48.31329986,-2.49236393,-3.550601006,-4.180276394,6.024396749
48.31872294,-2.138022184,-4.024652958,-5.973533154,7.513459165
48.32330971,-1.769315004,-4.508281708,-7.723694801,9.116498282
48.32873086,-1.312022567,-5.604825974,-9.821015358,11.38366462
48.33373517,-1.137245774,-6.715735912,-11.19768143,13.10658255
48.33873978,-0.9648633003,-8.030152321,-11.78186703,14.29079068
48.34374532,-1.403002143,-9.39484787,-12.31337929,15.5515559
48.34875032,-1.984793186,-11.00135708,-12.81137371,17.00295733
48.35375555,-1.984793186,-12.49533844,-12.9382658,18.09617663
48.35876017,-2.26730895,-14.46337223,-12.53843403,19.27542876
48.36328748,-2.226607561,-17.07305145,-11.99495029,20.98393909
48.36873894,-2.257732153,-20.74815178,-12.40196514,24.27739476
48.37374409,-3.519476414,-23.6571064,-15.16008472,28.31737216
48.37874879,-4.630385876,-26.08482742,-19.29008293,32.77142039
48.38375402,-4.553771496,-27.19334221,-21.13122368,34.73821109
48.38875925,-3.991134167,-26.02497292,-18.17917442,31.99548015
48.39373309,-3.41892004,-22.91490364,-14.35563374,27.25556903
48.3982924,-2.475604534,-18.11213493,-11.33415127,21.50909191
48.40374355,-0.6775590777,-12.79461384,-10.40998936,16.50845565
48.40874786,0.7805097699,-6.622362137,-11.23838234,13.06775089
48.4133054,1.479616642,-2.755726099,-11.48498535,11.90328443
48.41872725,1.678335428,0.1771709323,-10.31900978,10.45610646
48.42373248,1.22583127,2.439691544,-7.836222172,8.298260966
48.42873648,0.3375824392,3.112462282,-5.793968201,6.585700485
48.43374171,-0.7158663273,2.485181332,-4.625597477,5.299504021
48.43874602,-2.073378563,0.6177040339,-4.058171749,4.598827555
48.44375148,-4.000710964,-2.30801034,-3.579331636,5.843305136
48.4487564,-5.307945251,-5.015852451,-2.983175278,7.888751064
48.45376102,-6.162675381,-7.886500359,-1.072602391,10.06607827
48.45873578,-6.804321289,-10.38604736,1.8602947,12.55505732
48.46374071,-6.912060261,-12.78503704,5.044582844,15.38445856
48.46874571,-6.696582317,-14.51604462,6.813898087,17.37782993
48.47375094,-7.117961884,-16.22071648,6.02620554,18.71075032
48.47875678,-7.752425194,-18.2557888,3.241749048,20.09683702
48.48376078,-7.637503624,-21.59809303,-1.838746905,22.98238618
48.48873494,-6.138733387,-24.83744812,-5.98550415,26.2756377
48.49373948,-3.529053211,-28.36410713,-11.10430717,30.66402498
48.49829678,-0.8834604025,-30.82534599,-15.69878101,34.60396196
48.50374871,1.786074519,-29.31939316,-15.03319263,32.99717803
48.50875402,2.518700123,-24.70337296,-9.91438961,26.7375318
48.51375825,1.881842494,-18.84236717,-0.5937620401,18.9454133
48.51873394,0.1221042871,-12.658144,8.662221909,15.3387616
48.52373794,-2.573766708,-6.184223175,11.84411621,13.60705626
48.52874317,-5.822698593,-2.588132143,9.121908188,11.12705962
48.53374717,-8.54251194,-0.1364694983,5.025429249,9.912016611
48.53830471,-10.33337498,1.508347034,0.7637503147,10.47077188
48.54328048,-10.88643551,2.217030764,-1.687912226,11.23738186
48.54873155,-9.334992409,1.980004787,-0.4381389022,9.552720446
48.55373679,-7.51061058,1.182735682,1.503558636,7.750407961
48.55874348,-5.293580055,-0.2609679997,3.320757866,6.254400603
48.56374748,-3.299209833,-1.800439715,5.185841084,6.40463242
48.56875148,-1.807622313,-3.629609823,8.339004517,9.272570422
48.57330909,-1.496376038,-5.341464043,11.66455078,12.91635104
48.57873055,-2.015917778,-7.10359621,14.06114674,15.88209215
48.58328871,-2.360682964,-8.157045364,14.54716969,16.84429752
48.58874109,-2.628833532,-9.821015358,13.94622517,17.25862986
48.59374594,-2.667140722,-10.97502041,12.88559341,17.13485425
48.59875025,-2.257732153,-12.48815632,11.16416264,16.90236463
48.60375579,-1.711854219,-13.83369732,9.196128845,16.69941353
48.60831248,-0.4285621047,-15.42823601,6.167463779,16.62082252
48.61373455,1.939303398,-17.18079185,0.8236053586,17.30950121
48.61873955,6.7612257,-19.35233307,-10.19690514,22.8954983
48.62374471,9.181763649,-20.48478889,-14.36760426,26.65256858
48.62874902,8.303091049,-19.83356667,-13.17050362,25.21455637
48.63375463,4.826710701,-17.56147003,-8.58081913,20.13287915
48.6383134,3.124433279,-15.99566174,-5.650316238,17.24961887
48.64373363,1.312022567,-13.39555836,-1.642422318,13.55949623
48.64873709,0.7996633649,-11.64060879,-0.383072257,11.67432991
48.65374263,0.5195417404,-10.32379818,-0.423773706,10.34554574
48.65874786,-0.06703764945,-9.684545517,-1.063025594,9.742943053
48.66375186,-0.9457096457,-8.901641846,-1.41257906,9.062503731
48.66831032,-1.944091797,-8.113949776,-1.419761658,8.463533366
48.67373155,-3.253720045,-7.187393665,-0.9145850539,7.9424044
48.67829002,-3.998316765,-6.737283707,-0.8882488012,7.884574474
48.68374194,-4.884171486,-6.028599739,-0.3088520169,7.764955601
48.68830009,-5.343858242,-5.494692802,-0.1508347094,7.66623904
48.69327302,-5.501875401,-5.267243862,-0.2466027737,7.620715436
48.69827825,-5.391742229,-5.015852451,-1.074996591,7.442128577
48.70328325,-4.762067318,-5.176264286,-1.769315004,7.252687273
48.70828817,-3.878606796,-5.406107426,-1.975216389,6.940538017
48.7137404,-2.686294317,-5.856217384,-1.67115283,6.656140848
48.71874694,-1.762132406,-6.291962147,-1.304839969,6.663070285
48.72375063,-0.9959878922,-6.653486729,-0.9481038451,6.794098795
48.72875548,-0.3950432837,-7.000645638,-0.6823474765,7.044905721
48.73375986,-0.141257897,-7.496245384,-0.6775590777,7.528129579
48.73873494,0.1197100878,-7.841010571,-0.7038952708,7.873451964
48.74373925,0.390254885,-8.185775757,-0.7469909191,8.229047275
48.74874356,0.720654726,-8.506598473,-0.8475474119,8.579038257
48.75374932,0.8140285611,-8.678980827,-0.8930372596,8.76269743
48.75830602,0.7326257229,-8.863334656,-0.9792284966,8.94730854
48.7637284,0.5363011956,-9.016563416,-1.027112484,9.09070926
48.76873309,0.3782838583,-9.203310966,-1.108515382,9.277544814
48.77373763,0.14844051,-9.260771751,-1.07739079,9.324414133
48.77874263,-0.1005564705,-9.284713745,-0.962469101,9.335007643
48.78374817,-0.3351882398,-9.222464561,-0.9600749016,9.278359098
48.78875279,-0.6991068721,-8.944737434,-0.8786720037,9.014939971
48.79375732,-0.9289502501,-8.712499619,-0.8188169599,8.800060192
48.79828717,-1.132457376,-8.497021675,-0.7350199223,8.603609204
48.80329025,-1.18752408,-8.231265068,-0.7302315235,8.348483463
48.80829402,-1.18752408,-7.896077156,-0.6751648784,8.013369797
48.81374694,-1.086967587,-7.560888767,-0.5339069963,7.657257614
48.81875279,-1.010353088,-7.51300478,-0.4357447028,7.593150047
48.82375709,-0.8667010069,-7.539340973,-0.4596867263,7.60290371
48.82876171,-0.7493851185,-7.656657219,-0.6679822803,7.722187394
48.83373525,-0.6703764796,-7.826645374,-0.9361328483,7.910886622
48.83874071,-0.5961562395,-8.075642586,-1.26653266,8.196066765
48.84374532,-0.4022258818,-8.456320763,-1.640028119,8.623273087
48.84874971,-0.2801215947,-9.081207275,-2.149993181,9.336448166
48.85375548,-0.09576806426,-9.674968719,-2.67432332,10.03823672
48.85875979,0.09816227108,-10.26633644,-3.330334663,10.79344378
48.86373456,0.349553436,-10.82179165,-4.108449936,11.58070477
48.86873856,0.5506663918,-11.26471901,-4.563348293,12.16639945
48.8732964,0.6655880809,-11.47301483,-4.788403511,12.4499753
48.87875117,0.5841852427,-11.53047562,-4.680664539,12.45799987
48.88375456,0.2968810201,-11.45386124,-4.146757126,12.18501827
48.88875894,-0.1125274822,-11.2934494,-3.517082214,11.82896991
48.89328625,-0.538695395,-11.18810463,-2.925714493,11.57685982
48.89873894,-0.8307880163,-11.11388397,-2.45405674,11.41188066
48.90374194,-0.9576807022,-11.10670185,-2.217030764,11.36623085
48.90874871,-0.8906430602,-11.0229044,-2.449268341,11.3268081
48.91375248,-0.4309563041,-10.96304989,-2.892195702,11.3463202
48.91875771,0.1795651317,-10.81939793,-3.320757866,11.3189685
48.92373217,1.165976286,-10.57040024,-3.351882458,11.15024564
48.92873671,2.26730895,-10.3261919,-2.849100113,10.9493516
48.93374171,3.385401249,-10.12747288,-2.011129379,10.86606138
48.93874632,4.458003521,-9.983820915,-0.8427590132,10.9663448
48.94375179,5.568912983,-10.0556469,0.5434837937,11.50757146
48.94875771,6.129156113,-10.23760605,1.312022567,12.00402164
48.95331402,6.423643112,-10.55603504,1.668758631,12.46907463
48.95873802,6.435614109,-10.9989624,1.403002143,12.82040241
48.96374132,6.011840343,-11.62624359,0.4189853072,13.09531645
48.96874509,5.482721806,-12.08832455,-0.624886632,13.28827724
48.97330286,4.86980629,-12.48336792,-1.608903527,13.49585338
48.97872471,3.890577793,-12.87362289,-2.487575531,13.67679765
48.98376048,3.028665066,-13.36203957,-3.332728863,14.10049627
48.98873425,1.929726601,-13.82412052,-3.763684988,14.45667588
48.99373925,0.3303998411,-14.14494324,-3.871424198,14.66889596
48.99874471,-1.877054095,-14.13776112,-3.859453201,14.77480966
49.00374809,-3.392583847,-14.10424232,-3.833117008,15.00440144
49.00875394,-4.355052948,-14.07790565,-3.845088005,15.22953104
49.01375886,-4.711789131,-14.2143755,-4.024652958,15.50636189
49.01873363,-4.441244125,-14.48731422,-4.062960148,15.68803901
49.02373763,-3.715801001,-14.77701283,-3.811569214,15.70653829
49.02874202,-2.889801502,-15.02840424,-3.232172251,15.64131785
49.03374809,-1.908178806,-15.30373764,-2.45166254,15.61589515
49.03830717,-0.8212111592,-15.59343529,-1.67115283,15.70421484
49.04328009,0.3327940404,-15.81370258,-0.8786720037,15.84159101
49.04873179,1.086967587,-15.8448267,-0.1101332754,15.8824482
49.0537374,1.539471745,-15.57428169,0.2633621991,15.65239864
49.05874194,1.56101954,-14.88475227,0.3184288144,14.96977051
49.06374656,1.237802267,-14.05156994,0.09816227108,14.10632511
49.06875094,0.6655880809,-13.35246277,-0.1388636976,13.36976262
49.07375709,0.05027823523,-12.95981407,-0.2274491638,12.96190734
49.07876102,-0.7517793179,-12.91432381,0.2082955539,12.93786376
49.08373579,-1.405396342,-13.17289734,0.9457096457,13.28136777
49.08874048,-2.042253971,-13.46738434,2.166752577,13.79260885
49.09374625,-3.040636063,-13.64216137,3.375824451,14.37881168
49.09830294,-3.627215624,-13.71398735,3.938461781,14.72214738
49.10372509,-4.65193367,-13.5320282,4.113238335,14.88875427
49.10875986,-5.442020416,-13.31655025,4.355052948,15.03038865
49.11373394,-6.126761913,-13.17768574,4.503493309,15.2141403
49.11829425,-6.572083473,-13.26627159,4.189853191,15.38639376
49.12374471,-7.366958618,-13.71398735,3.256114244,15.904333
49.1287494,-8.149862289,-14.40591145,1.956062794,16.66663498
49.13375394,-8.971074104,-15.49766731,-0.1221042871,17.9073385
49.13875863,-9.114726067,-16.29254341,-1.910573006,18.76633932
49.14373333,-8.805873871,-16.80490112,-3.325546265,19.26155171
49.14873863,-8.233659744,-16.88391113,-3.79480958,19.1640337
49.15374317,-7.316680431,-16.4984436,-3.7181952,18.42708413
49.15874817,-6.708553314,-15.94538307,-3.75650239,17.70229474
49.1637534,-6.212953568,-15.26543045,-3.706224203,16.89290551
49.16831032,-5.738901615,-14.67406178,-3.351882458,16.10894772
49.17373217,-5.324704647,-13.70919895,-3.021482468,15.01412574
49.1787364,-4.898536682,-12.82095051,-2.576161146,13.96456372
49.18374202,-3.804386616,-12.46900272,0.2130839527,13.03820506
49.18874625,-1.829170108,-12.60307789,4.077325344,13.37191151
49.19375209,0.4740519226,-12.88798809,4.812345505,13.76530535
49.19875802,0.9959878922,-12.51449203,2.908955097,12.88668004
49.20373086,0.6440402865,-11.97819138,1.666364431,12.11068235
49.20873556,0.6440402865,-11.5927248,1.036689281,11.65679119
49.21374102,1.086967587,-11.08036518,0.5291185975,11.1461185
49.21829802,1.37666595,-10.66377449,0.5434837937,10.76599601
49.22330286,1.268926859,-10.27830791,0.8475474119,10.39096365
49.22872448,1.070208192,-9.828198433,0.9959878922,9.936338455
49.23375986,0.7781155705,-9.157821655,1.017535686,9.24697465
49.23873394,0.4118026793,-8.506598473,1.185129881,8.598623835
49.24373925,0.05027823523,-7.721300602,1.515529633,7.86878904
49.24874409,-0.3854664862,-6.569689274,1.984793186,6.873776659
49.25330202,-0.7422025204,-5.997475147,2.209848166,6.434594132
49.2587244,-1.295263171,-5.27442646,2.456450939,5.960824807
49.26375856,-1.623268723,-4.850652695,2.439691544,5.667091647
49.26873371,-1.802833915,-4.364629745,1.936909199,5.104098371
49.27373802,-1.805228114,-4.108449936,1.352723956,4.687010937
49.2787444,-1.833958507,-3.857059002,0.895431459,4.363726097
49.28374756,-1.845929503,-3.64158082,0.5674257874,4.121958106
49.2887524,-1.89860189,-3.485957623,0.3687070608,3.98654419
49.29375794,-1.920149803,-3.473986626,0.5674257874,4.009679584
49.29828448,-1.948880196,-3.519476414,0.6464344859,4.074644253
49.3037364,-1.996764183,-3.536235809,0.6153098345,4.107388111
49.30874225,-2.037465572,-3.543418407,0.586579442,4.129304471
49.31374594,-2.006340981,-3.555389643,0.6631938815,4.135943153
49.31875148,-2.056619167,-3.552995205,0.7661445141,4.176174654
49.32375586,-2.159569979,-3.548206806,0.921767652,4.254781973
49.32831432,-2.286462545,-3.53384161,1.007958889,4.328039812
49.33373548,-2.501940727,-3.505111217,1.084573388,4.44092462
49.3382931,-2.758120298,-3.433285236,1.156399369,4.553233422
49.34374571,-3.114856482,-3.320757866,1.223437071,4.714505485
49.34875002,-3.263296843,-3.19625926,1.252167463,4.736359667
49.35330756,-3.313575268,-3.076549292,1.235408068,4.687341431
49.35873094,-3.232172251,-2.997540474,1.235408068,4.578036637
49.36373456,-3.035847664,-2.913743496,1.249773264,4.389556402
49.36873956,-2.79163909,-2.86107111,1.144428372,4.157967412
49.37374386,-2.509123325,-2.815581083,1.039083481,3.911890998
49.37830163,-2.310404539,-2.772485495,0.9313444495,3.727203702
49.38372325,-2.106897593,-2.71263051,0.7541735172,3.516555054
49.38875986,-2.149993181,-2.626439333,0.5291185975,3.435203158
49.39373333,-2.240972757,-2.518700123,0.1987187415,3.377173129
49.39873802,-2.207453966,-2.506729126,-0.0718260482,3.340913484
49.40374356,-2.147598982,-2.549824715,-0.457292527,3.364952291
49.40874786,-2.252943754,-2.609679937,-1.017535686,3.594657676
49.4137524,-2.391807556,-2.705447912,-1.649604917,3.970061482
49.41831086,-2.391807556,-2.901772499,-2.420537949,4.472139419
49.42328417,-2.346317768,-3.181894064,-3.315969467,5.159971939
49.4282894,-2.126051188,-3.684676409,-4.572925091,6.245684732
49.4337411,-1.786074519,-4.09408474,-5.868188381,7.374769618
49.43874933,-1.549048543,-4.764461517,-7.235277653,8.800504966
49.4437521,-1.33835876,-5.731719017,-9.361329079,11.0579514
49.4487574,-1.331176162,-6.617573261,-10.85052204,12.77881585
49.45373094,-1.441309452,-7.649474621,-12.18648624,14.46036936
49.45873556,-1.78368032,-8.896853447,-13.13937855,15.96805515
49.46374102,-2.679111719,-10.85291672,-13.13459015,17.2476346
49.46874571,-3.442862034,-12.46181965,-12.2607069,17.81783325
