Time (s),Acceleration x (m/s^2),Acceleration y (m/s^2),Acceleration z (m/s^2),Absolute acceleration (m/s^2)
20.00454885,0.1532289088,-8.434772491,-0.09097966552,8.436654751
20.00955408,0.3016694188,-8.74601841,-0.5147533417,8.766345502
20.01455839,0.356736064,-8.963891029,-1.017535686,9.028509394
20.01953285,0.3854664862,-9.181763649,-1.606509328,9.329214347
20.02453869,0.4453215301,-9.337387085,-2.394201756,9.64973113
20.02954277,0.6823474765,-9.617507935,-3.488351822,10.25332411
20.03454739,0.9169792533,-9.871294022,-4.201824188,10.76747989
20.03955508,1.206677675,-10.10592556,-4.769249916,11.23973074
20.04455846,1.640028119,-10.29267311,-5.128379822,11.61589823
20.04953223,2.018311977,-10.57279491,-4.991910458,11.86493765
20.05453716,2.331952572,-10.77390766,-4.350264549,11.85073376
20.05909408,2.578555346,-10.96783829,-3.390189648,11.76587482
20.06410023,2.67432332,-11.20486355,-2.523488522,11.7927506
20.06952123,2.645592928,-11.40597725,-1.862688899,11.85601488
20.07410946,2.523488522,-11.50174522,-1.829170108,11.91654316
20.07953108,2.288856745,-11.54962921,-2.056619167,11.95250947
20.084088,2.00873518,-11.51611042,-2.346317768,11.92312976
20.08954054,1.740584612,-11.42034245,-2.56658411,11.83390089
20.09409816,1.687912226,-11.34133339,-2.734178305,11.78773183
20.09907223,1.651999116,-11.27908421,-2.8969841,11.76177531
20.10407754,1.654393315,-11.17852783,-2.892195702,11.66453161
20.10952977,1.606509328,-11.19049835,-2.834734917,11.65520689
20.11453531,1.580173135,-11.27668953,-2.602497339,11.68048228
20.11954216,1.56101954,-11.42752457,-2.346317768,11.76988984
20.12409777,1.48679924,-11.66455078,-2.135627985,11.95128545
20.12952,1.395819545,-11.99734497,-1.984793186,12.24026154
20.13455416,1.347935557,-12.28704357,-2.001552582,12.52176436
20.13955962,1.211466074,-12.60068321,-2.197877169,12.8481723
20.14453354,0.8307880163,-13.07234097,-2.710236311,13.37616118
20.14953846,0.4812345505,-13.47935581,-3.368641853,13.90224326
20.1545437,0.1316810995,-13.86003399,-3.991134167,14.42383562
20.15910054,-0.2801215947,-14.09466553,-4.42448473,14.775457
20.16407531,-0.7565677166,-14.16409683,-4.65193367,14.92764284
20.16952762,-1.175553083,-14.21198082,-5.02064085,15.11850384
20.17408393,-1.240196466,-14.15691471,-4.90571928,15.03404147
20.17908923,-1.029506683,-14.00607967,-4.292803764,14.68530953
20.18454185,-0.4022258818,-13.9198885,-3.165134668,14.28086688
20.189099,0.117315881,-14.03241634,-2.173935175,14.20029808
20.19452116,0.6105214357,-14.25028896,-1.436521053,14.33551759
20.19911108,1.240196466,-14.4897089,-1.046266198,14.58027518
20.20453139,1.611297727,-14.47773743,-0.5482721925,14.57744023
20.20953539,1.273715258,-14.25268269,-0.4860229492,14.3177349
20.21409323,0.4764461517,-13.85045719,-0.4884171486,13.86725339
20.21954608,-0.3136404157,-13.70201588,-0.4094084799,13.71171852
20.2245507,-0.8403648138,-14.16649151,0.007182605099,14.19139691
20.2295557,-1.285686255,-14.89911747,0.5027823448,14.9629369
20.23453108,-2.094926596,-15.59822369,1.15400517,15.78052685
20.23953416,-2.942473888,-16.15367889,2.097320795,16.55289246
20.24409193,-3.727771997,-16.55111694,2.806004286,17.19620354
20.24954308,-4.596867085,-16.74744034,3.655946016,17.74750366
20.25454954,-5.202600479,-16.65885544,4.38617754,17.9950846
20.2591067,-5.789179802,-16.3404274,4.683058739,17.95703788
20.26452923,-6.80192709,-15.8448267,4.280832767,17.76654931
20.26953346,-7.630321026,-15.65089607,3.49553442,17.75925414
20.27453808,-8.327033043,-15.81849098,2.281674147,18.021381
20.27954516,-8.32463932,-16.22071648,0.3112462163,18.23480565
20.28454762,-7.671022415,-16.58942413,-1.091755986,18.30971079
20.28955323,-6.591237068,-16.71152878,-2.111685991,18.08808497
20.29455808,-5.31273365,-16.63970184,-2.497152328,17.64484588
20.29953316,-3.878606796,-16.12255478,-2.686294317,16.79870651
20.30453716,-2.700659513,-15.48330212,-3.165134668,16.03260065
20.30954216,-2.554613113,-14.4944973,-4.261679173,15.32248053
20.31454585,-2.501940727,-13.78341961,-4.474762917,14.70598064
20.31955162,-1.386242747,-13.14177322,-2.683900118,13.48447968
20.32455631,-0.3854664862,-12.70602798,-0.5003881454,12.72171843
20.32953108,1.738190413,-13.07473564,3.385401249,13.61730368
20.33408793,4.036623955,-13.37401104,3.361459255,14.36864338
20.33954062,4.50109911,-13.12980175,1.039083481,13.91873851
20.34454523,4.723760128,-13.05558205,-0.3734954596,13.88890317
20.34955016,4.419696331,-12.89517021,-0.7062895298,13.64983426
20.35455477,4.244919777,-12.80419064,-0.2729389966,13.49226213
20.35953046,4.077325344,-12.55758762,0.5746083856,13.21543657
20.36453508,3.452438831,-12.16972733,1.000776291,12.68948976
20.369539,2.461239338,-11.52808094,1.165976286,11.84541472
20.37409654,1.460463047,-10.72602367,1.247379065,10.89662749
20.37954923,0.5554547906,-9.943120003,1.632845521,10.09159799
20.38455416,-0.02394201607,-9.246406555,2.104503393,9.482907884
20.38955839,-0.5315127969,-8.396465302,2.504334927,8.778087994
20.39453385,-1.079784989,-7.536946774,2.693476915,8.076281334
20.39953839,-1.719036818,-6.488286495,2.784456491,7.266783826
20.40454362,-2.08295536,-5.741295815,2.908955097,6.764850362
20.40954831,-2.511517525,-5.073313236,3.16034627,6.48336456
20.414552,-2.86107111,-4.359841347,3.284844637,6.163128163
20.41955785,-3.229778051,-3.529053211,3.210624456,5.761405404
20.4245317,-3.552995205,-3.090914488,2.887407303,5.524006538
20.42953723,-3.766079187,-2.853888512,2.439691544,5.317906253
20.43409416,-3.579331636,-2.78924489,1.9321208,4.931996838
20.43954893,-3.385401249,-2.920926094,1.367089152,4.675647935
20.44410431,-3.241749048,-2.97599268,1.113303781,4.539263666
20.44907877,-3.241749048,-3.019088268,0.9768342972,4.53630203
20.45453139,-3.256114244,-3.136404276,0.8355764151,4.597553665
20.459536,-3.16034627,-3.38061285,0.6488286853,4.673040814
20.46454054,-2.949656487,-3.610456228,0.6272808313,4.704184181
20.4695467,-2.681505919,-3.823540211,0.7134721279,4.724296372
20.47455046,-2.513911724,-3.991134167,0.7733271718,4.779847174
20.479556,-2.516305923,-4.09408474,0.8379706144,4.878065201
20.48453131,-2.576161146,-4.153939724,0.8714894056,4.96500909
20.48953416,-2.741360903,-4.211400986,0.9792284966,5.119555284
20.49453908,-2.997540474,-4.218583584,1.072602391,5.285089615
20.4995437,-2.995146275,-4.113238335,1.137245774,5.213727913
20.50454923,-3.023876667,-4.019864559,1.18991828,5.16904698
20.50910616,-3.057395458,-3.871424198,1.221042871,5.0819817
20.514528,-3.007117271,-3.751713991,1.223437071,4.961341595
20.51953539,-2.923320293,-3.658340216,1.18752408,4.831093884
20.524539,-2.85867691,-3.581725836,1.101332784,4.713144125
20.529543,-2.813186884,-3.543418407,0.9672574997,4.626599348
20.53454739,-2.882618904,-3.529053211,0.7302315235,4.61486147
20.53955385,-2.949656487,-3.485957623,0.4692635238,4.59048823
20.5441107,-3.055001259,-3.447650433,0.0023942017,4.606444608
20.54953254,-3.186682463,-3.450044632,-0.5841852427,4.732760873
20.55408854,-3.232172251,-3.507505417,-1.201889277,4.918746745
20.55954147,-3.203441858,-3.620033026,-2.04704237,5.249482004
20.56454639,-3.016694069,-3.761290789,-2.755726099,5.553537416
20.56955131,-2.782062292,-3.971980572,-3.517082214,5.990523146
20.57455723,-2.513911724,-4.163516521,-4.38378334,6.547684962
20.57953016,-2.418143749,-4.283226967,-4.970362663,6.992707447
20.58453562,-2.473210335,-4.376600742,-5.509057999,7.457957056
20.58954085,-2.657563925,-4.481945515,-6.078877926,8.006449803
20.59454608,-3.028665066,-4.838681698,-6.718130112,8.815833758
20.59955193,-3.337517262,-5.300762653,-7.264008045,9.591815212
20.60455631,-3.445256233,-6.06211853,-8.4012537,10.91788145
20.60952946,-3.481169224,-7.24485445,-9.595960617,12.5175443
20.61453408,-3.38300705,-9.011775017,-8.860940933,13.0833138
20.61954,-2.880224705,-10.28549004,-6.95276165,12.74472025
20.62454493,-3.205836058,-11.74355888,-5.38934803,13.31291224
20.62954946,-4.474762917,-13.69243908,-5.19781208,15.31416473
20.63455439,-5.130774021,-16.39788818,-6.797138691,18.47746393
20.6395587,-5.027823448,-18.73462868,-9.083600998,21.41908325
20.64453385,-4.46279192,-21.01869583,-13.39555836,25.3208031
20.6495387,-3.464409828,-23.22615051,-20.40817451,31.11189146
20.6545427,-1.304839969,-24.82787132,-26.65704155,36.45166205
20.65910023,1.611297727,-24.75365067,-25.35938454,35.47446808
20.664523,3.277662039,-22.73773384,-21.27487564,31.31082787
20.66955754,3.952826977,-19.12727737,-16.09621811,25.30940178
20.674532,4.173093796,-13.2183876,-13.55836391,19.38993849
20.67953808,4.378994942,-8.712499619,-12.97178459,16.22807573
20.68454246,5.104437828,-5.439626217,-12.46900272,14.52999821
20.68954608,5.255272865,-3.062183857,-11.18092155,12.72823121
20.694552,4.357447147,-1.886630893,-9.720458984,10.81822743
20.7007997,4.247313976,-2.406172752,-6.888118267,8.442482845
20.704531,3.56736064,-3.332728863,-5.458779812,7.323347639
20.70953531,1.549048543,-4.455609322,-3.938461781,6.145200323
20.71454116,-0.9050082564,-5.798756599,-1.704671621,6.111507456
20.71954646,-1.8579005,-7.036558628,0.4333505034,7.29059286
20.72454985,-2.904166698,-8.597578049,2.873042107,9.518765858
20.729555,-4.216189384,-10.55603504,4.723760128,12.30934761
20.73452946,-5.264849663,-13.42189503,5.485116005,15.425706
20.73953631,-5.724536419,-15.8256731,5.015852451,17.5607808
20.74453931,-5.513846397,-18.27254677,3.60566783,19.42393647
20.74954462,-4.848258495,-20.90616989,1.326387763,21.50192676
20.75454862,-3.909731388,-23.50387764,-1.56101954,23.87791963
20.75910824,-2.794033289,-25.07447433,-4.158728123,25.57011742
20.76408124,-0.758961916,-24.21974373,-5.410895824,24.82840718
20.76953385,1.084573388,-21.14080048,-5.590460777,21.89435991
20.77453877,0.739808321,-16.85039139,-5.307945251,17.68211778
20.77954331,-1.802833915,-10.95107841,0.1292868853,11.09923618
20.78454862,-4.254496574,-6.39491272,4.364629745,8.834344492
20.78955324,-6.58405447,-3.423708439,3.878606796,8.373478573
20.79455808,-9.895236015,-1.161187768,1.829170108,10.12965528
20.79953324,-12.56716442,0.1268926859,-1.661576033,12.67716681
20.80453747,-14.01326275,0.8834604025,-6.299144745,15.38932291
20.8095427,-13.12740803,1.072602391,-4.177882195,13.81788758
20.81454708,-11.04684639,0.6296750307,0.5291185975,11.07742173
20.81955377,-8.832210541,-0.1628057212,3.897760391,9.655412203
20.82455662,-5.394136429,-2.001552582,4.685452938,7.419999312
20.829531,-2.286462545,-4.077325344,4.972756863,6.825013095
20.83453693,-0.1532289088,-6.35421133,8.367734909,10.50801923
20.83954424,0.85473001,-8.595184326,13.15374374,15.73622355
20.84454493,0.383072257,-10.43153667,16.35239792,19.40011906
20.84910277,-0.09337386489,-11.91115379,17.03713989,20.78818027
20.85407785,-0.1340752989,-13.48653793,15.27261257,20.37541107
20.85953008,0.3399766386,-14.5974474,13.20402241,19.68622011
20.86453477,0.8690952063,-15.5407629,10.21845245,18.61954373
20.86953877,2.070984364,-16.55111694,4.86980629,17.37652041
20.87454462,4.319139957,-17.37951088,-1.865083098,18.00502439
20.87910339,7.074865818,-18.23184586,-10.02931118,21.97819402
20.88452362,7.95832634,-18.62210083,-14.15212631,24.7062801
20.88952947,5.707777023,-18.04030991,-13.85285091,23.45064985
20.89453316,3.907337189,-16.18240929,-10.11071396,19.4772737
20.8990917,3.062183857,-14.32450867,-6.148310184,15.88616494
20.90454454,2.580949545,-12.58631802,-2.798821688,13.14952868
20.909548,1.786074519,-11.22162342,-1.484405041,11.45942201
20.91455231,0.3663128614,-10.04846478,-0.9672574997,10.10155515
20.91955939,-0.6153098345,-9.129091263,-0.1460463107,9.150969512
20.92453254,-1.364694953,-8.28633213,0.4405331016,8.40950426
20.92953693,-2.327163935,-7.544129372,0.9385270476,7.950497656
20.9345427,-3.576937437,-6.823474884,0.758961916,7.741467181
20.9395477,-4.38617754,-5.990292549,0.06943184882,7.424754475
20.94455193,-4.884171486,-5.657498837,-0.3974374831,7.484676395
20.94955724,-5.394136429,-5.430049419,-0.7015010715,7.685977379
20.95453047,-5.544970989,-5.477933407,-0.9959878922,7.857890911
20.95953662,-5.188235283,-5.841852188,-1.084573388,7.888049301
20.96454062,-4.503493309,-6.177040577,-0.940921247,7.70211757
20.96954516,-3.560178041,-6.629544735,-0.7829039693,7.565624211
20.974551,-2.466027737,-7.12993288,-0.6392518282,7.571385512
20.97955662,-1.125274777,-7.778761387,-0.5123591423,7.876413139
20.98453047,-0.1867477298,-8.233659744,-0.5291185975,8.252756751
20.98953439,0.4716577232,-8.590395927,-0.6272808313,8.626172062
20.99453931,0.8283938169,-8.875306129,-0.7445967197,8.944927025
20.99954616,1.027112484,-9.059659004,-0.8475474119,9.157003764
21.00454893,1.15161097,-9.210494041,-1.036689281,9.339921465
21.00955385,1.108515382,-9.30386734,-1.285686255,9.457470221
21.01411108,0.9648633003,-9.31823349,-1.580173135,9.500388608
21.01908639,0.6584054828,-9.366117477,-1.836352706,9.567123164
21.02453839,0.3878606856,-9.301473618,-1.953668594,9.512342947
21.02954331,0.181959331,-9.193734169,-1.89860189,9.38949127
21.03454739,-0.06703764945,-9.009381294,-1.735796213,9.175316553
21.03955385,-0.390254885,-8.827422142,-1.59932673,8.979617282
21.04455777,-0.8283938169,-8.609549522,-1.493981838,8.777389192
21.049532,-1.283292055,-8.216899872,-1.326387763,8.421614246
21.05409016,-1.553836942,-8.010998726,-1.134851575,8.238834743
21.05954339,-1.798045516,-7.80509758,-0.9504981041,8.065727652
21.064547,-1.877054095,-7.750030994,-0.8283938169,8.017016203
21.069551,-1.936909199,-7.611167431,-0.5817909837,7.875275719
21.07455662,-1.939303398,-7.546523571,-0.2944868207,7.797284025
21.07953324,-1.845929503,-7.58722496,0.04788403213,7.808695871
21.08408947,-1.687912226,-7.678205013,0.2729389966,7.866280926
21.08909324,-1.508347034,-7.860164165,0.5770025849,8.024351903
21.09454493,-1.295263171,-8.154650688,0.7829039693,8.293911813
21.09955224,-1.125274777,-8.403648376,0.6105214357,8.500605025
21.10455562,-0.9361328483,-8.690952301,0.2202665508,8.74399874
21.1095307,-0.6943184733,-8.908824921,-0.1915361285,8.937892688
21.1145347,-0.5410895944,-9.143456459,-0.6895300746,9.185370199
21.11954085,-0.5075707436,-9.260771751,-1.007958889,9.329281999
21.1245437,-0.4453215301,-9.418789864,-1.362300754,9.527212452
21.12954824,-0.3040636182,-9.516951561,-1.745373011,9.680451882
21.1345547,-0.06464344263,-9.643844604,-2.26970315,9.90754611
21.1395597,0.2753331959,-9.785101891,-3.062183857,10.25675374
21.14453408,0.5793967843,-9.892841339,-3.691859007,10.57515169
21.14953747,0.8810662031,-9.971850395,-4.070142746,10.80648601
21.15454339,1.101332784,-10.0508585,-4.060565948,10.89591145
21.159551,1.307234168,-10.17535686,-3.670311213,10.89577592
21.16455324,1.446097851,-10.3309803,-3.191470861,10.90897975
21.169111,1.606509328,-10.50096893,-2.681505919,10.95635408
21.17453162,1.719036818,-10.61349583,-2.262520552,10.98728267
21.17953839,1.8579005,-10.67095661,-1.893813491,10.99580096
21.18454185,2.011129379,-10.7092638,-1.790862918,11.04265197
21.18954793,2.138022184,-10.69489861,-1.838746905,11.06042428
21.19455162,2.296039343,-10.59194851,-1.879448295,10.99970435
21.19955754,2.557007313,-10.51533413,-1.9321208,10.99288993
21.20453193,2.959233284,-10.22563553,-1.874659896,10.80902555
21.20953539,3.323152065,-10.19690514,-1.845929503,10.88244778
21.21454085,3.60327363,-10.24718285,-1.616086125,10.98180639
21.21954554,3.828328609,-10.50815105,-1.419761658,11.27355586
21.22455016,4.024652958,-10.86488724,-1.010353088,11.63032327
21.22955539,4.019864559,-11.37724686,-0.7517793179,12.08992263
21.23453008,3.943250179,-11.74834728,-0.7374141216,12.41437334
21.23953685,3.737348795,-12.17212105,-0.962469101,12.76928556
21.244539,3.390189648,-12.58871269,-1.419761658,13.1142974
21.2495437,2.774879694,-13.10585976,-2.037465572,13.55045325
21.25455016,2.176329374,-13.58948898,-2.470816135,13.98268761
21.25955593,1.498770237,-14.00607967,-2.801215887,14.36187281
21.26452916,0.7829039693,-14.28859615,-3.002328873,14.62159011
21.26953347,-0.2202665508,-14.4849205,-3.325546265,14.86340127
21.27453816,-1.067813993,-14.55435181,-4.082113743,15.15364761
21.27954462,-1.704671621,-14.49689102,-4.508281708,15.27711879
21.28454947,-1.879448295,-14.64533138,-4.57771349,15.45876832
21.28955293,-1.640028119,-14.88475227,-3.943250179,15.48530802
21.29455847,-0.8164227605,-15.35880375,-2.604891539,15.59951469
21.29953262,-0.03351882473,-15.8400383,-1.74776721,15.93620491
21.30453724,0.653617084,-16.24944687,-1.089361787,16.29903212
21.30954177,1.07739079,-16.52478027,-0.8810662031,16.58328712
21.314547,1.175553083,-16.55351067,-1.103726983,16.6318626
21.31955477,0.6320692301,-16.21592903,-1.213860273,16.27357744
21.32455716,-0.3280056417,-15.64850235,-1.314416766,15.70703361
21.32908401,-1.532289028,-15.19599819,-1.534683347,15.3499682
21.334536,-2.616862535,-14.95418358,-1.209071875,15.22949214
21.33954208,-3.835511208,-14.592659,-0.3016694188,15.09131695
21.34454701,-4.510675907,-14.27901936,0.5913678408,14.98620388
21.34955131,-4.932055473,-14.11860752,1.288080573,15.01064293
21.35455531,-5.453991413,-14.00847435,1.807622313,15.1410328
21.35953016,-6.224924564,-13.85045719,2.657563925,15.41581968
21.36453531,-6.780379295,-13.78102493,3.430891037,15.73725532
21.3695397,-7.419631004,-13.68765068,3.969586372,16.06736822
21.37409716,-8.037335396,-13.52963352,3.758896589,16.17958736
21.37955008,-8.786720276,-13.39795303,2.796427488,16.26442761
21.38455416,-9.423578262,-13.50090313,1.331176162,16.51817915
21.38911224,-9.270348549,-13.65892029,-0.0191536136,16.50775068
21.39453324,-8.312667847,-14.04678154,-1.359906554,16.37870154
21.39954054,-7.254431248,-14.31493187,-2.272097349,16.2082224
21.40454454,-6.421248913,-14.46097851,-2.645592928,16.04217875
21.409548,-6.028599739,-14.36042213,-2.430114746,15.76296915
21.41455254,-5.379771233,-14.17846203,-2.238578558,15.32912124
21.41911193,-4.582501888,-14.05875206,-2.157175779,14.94326739
21.42453231,-3.881000996,-13.80496693,-2.181117773,14.50505275
21.42953685,-3.466804028,-12.98375607,-2.56658411,13.68152059
21.43454124,-1.673547029,-12.9382658,-1.367089152,13.11748506
21.43954862,-0.6200982332,-12.8401041,-0.5458779931,12.86665372
21.44455254,0.3974374831,-12.68687439,1.862688899,12.82904315
21.44955693,2.786850691,-13.14416695,3.462015629,13.87520139
21.45408331,3.368641853,-13.12501335,2.135627985,13.71767583
21.45953601,3.181894064,-12.71081638,-0.3327940404,13.10725199
21.46454147,3.236960649,-12.44266605,-1.144428372,12.90765544
21.46954524,3.059789658,-12.2702837,-0.9457096457,12.6813462
21.47455101,2.499546528,-11.72679996,-0.538695395,12.00232323
21.47955685,2.358288765,-11.27908421,0.4955997467,11.53364147
21.48453008,1.9321208,-10.78108978,0.9983820915,10.99826143
21.48953478,1.139639974,-10.22324085,1.201889277,10.35654241
21.49409193,0.4548983276,-9.727641106,1.472434044,9.848959132
21.49909839,-0.1987187415,-9.057265282,1.690306425,9.215784249
21.50451939,-0.8571242094,-8.008605003,1.877054095,8.270172192
21.50955408,-1.350329757,-7.141903877,2.149993181,7.579752775
21.51455878,-1.869871497,-6.260837555,2.226607561,6.903063634
21.51953562,-2.662352324,-5.31273365,2.149993181,6.319472242
21.52453839,-3.062183857,-4.742913723,1.984793186,5.984279785
21.52954362,-3.354276657,-4.254496574,1.788468719,5.705307472
21.5340997,-3.545812607,-3.828328609,1.632845521,5.467638565
21.53952301,-3.56496644,-3.41892004,1.37666595,5.127690425
21.54455785,-3.584120035,-3.239354849,1.04147768,4.942065562
21.54953231,-3.483563423,-3.15795207,0.6081272364,4.741064663
21.55453785,-3.294421434,-3.141192675,0.1987187415,4.5562916
21.55954401,-2.746149302,-3.260902643,-0.1364694983,4.265377587
21.56454678,-2.389413357,-3.392583847,-0.5075707436,4.180496311
21.56955108,-2.207453966,-3.497928619,-0.5961562395,4.178966368
21.57455654,-2.068590164,-3.667917013,-0.5985504389,4.253344932
21.57953254,-1.910573006,-3.854664803,-0.653617084,4.351545156
21.5845357,-1.726219416,-4.089296341,-0.5674257874,4.474835199
21.58909385,-1.613691926,-4.185064793,-0.3950432837,4.502757838
21.59454578,-1.673547029,-4.199429989,-0.1604115069,4.523461478
21.59955201,-1.841141105,-4.216189384,0.1149216816,4.602093055
21.60455601,-1.968033791,-4.101267338,0.3519476354,4.562610866
21.60952978,-2.19308877,-3.909731388,0.4716577232,4.507560192
21.61453501,-2.396595955,-3.766079187,0.5913678408,4.502970191
21.61954085,-2.535459518,-3.660734415,0.691924274,4.506472082
21.62454401,-2.557007313,-3.53384161,0.7805097699,4.431198306
21.62954985,-2.48996973,-3.414131641,0.8236053586,4.305179428
21.63410616,-2.420537949,-3.356670856,0.7781155705,4.210903352
21.6390827,-2.221819162,-3.390189648,0.653617084,4.105737635
21.64453316,-2.039859772,-3.435679436,0.5291185975,4.030494705
21.64953878,-1.81959331,-3.514688015,0.2513911724,3.965746989
21.65409539,-1.740584612,-3.56496644,0.1101332754,3.968721438
21.65910085,-1.711854219,-3.588908434,-0.1604115069,3.97950254
21.66452301,-1.778891921,-3.581725836,-0.4405331016,4.023342621
21.66955785,-1.769315004,-3.584120035,-0.7565677166,4.06802
21.67408516,-1.802833915,-3.646369219,-1.130063176,4.221760461
21.67953839,-1.924938202,-3.768473387,-1.798045516,4.597797997
21.68454208,-2.059013367,-3.938461781,-2.542642117,5.120160757
21.68954739,-2.178723574,-4.146757126,-3.387795448,5.780967832
21.69455162,-2.291250944,-4.388571739,-4.469974518,6.67008733
21.69910924,-2.248155355,-4.472368717,-5.317522049,7.30289841
21.70453131,-2.300827742,-4.86980629,-6.730101109,8.61992358
21.70953624,-2.365471363,-5.346252441,-8.025363922,9.928964499
21.71454093,-2.480392933,-6.050147533,-9.141061783,11.2390233
21.71954701,-2.67432332,-7.192182064,-10.00536919,12.60900078
21.72455101,-2.798821688,-8.468291283,-10.24239445,13.58131084
21.72955654,-2.844311714,-9.708487511,-10.15380955,14.3333418
21.7345307,-2.504334927,-10.98220348,-9.907206535,15.00110756
21.73953539,-2.173935175,-13.18965721,-9.536105156,16.42042487
21.74453962,-1.89620769,-15.61498356,-9.339780807,18.29357321
21.74954455,-1.702277422,-18.53830338,-9.91438961,21.09174155
21.75410247,-1.292868972,-21.69386101,-11.6023016,24.63551335
21.75907655,-1.175553083,-24.75365067,-16.13213158,29.56976184
21.76408093,-0.85473001,-27.17179489,-22.23974037,35.12325516
21.76953354,1.254561663,-27.89723778,-22.39296913,35.79490002
21.77453808,1.946485996,-26.1710186,-19.44570541,32.66261596
21.77954462,1.699883223,-22.67308998,-16.50562668,28.09616209
21.78454862,1.316810966,-16.75222969,-13.5272398,21.57214424
21.78955354,1.060631394,-11.72919369,-12.67250919,17.30004083
21.79455716,1.149216771,-7.362170219,-12.40435886,14.47032717
21.7995347,0.9864110947,-3.969586372,-11.65257931,12.34962458
21.80453747,0.05985504389,-1.304839969,-10.52730465,10.60803154
21.80954247,-0.3687070608,0.05506663769,-7.661445618,7.670510165
21.8145467,-1.70946002,-0.1053448766,-5.904101372,6.147500639
21.81955193,-3.629609823,-1.386242747,-4.216189384,5.733409923
21.82455654,-4.728548527,-3.806780815,-1.984793186,6.386717102
21.82953078,-6.133944988,-6.945579052,0.4979939461,9.279781649
21.83408831,-6.818686485,-8.791508675,2.597708941,11.42511277
21.83954185,-8.719682693,-12.00213337,6.339846134,16.13312495
21.84454516,-9.895236015,-14.68842697,7.824251175,19.36193402
21.84955008,-10.41477776,-17.26698303,7.457938194,21.49970095
21.85455478,-9.30386734,-20.08735275,4.273650169,22.54612547
21.85953039,-7.340622425,-21.81835938,0.007182605099,23.02011284
21.86453447,-4.522646904,-22.50310135,-3.890577793,23.28047467
21.8695397,-1.221042871,-20.55422211,-6.143521786,21.48743475
21.87454424,3.296815634,-17.0084095,-7.558494568,18.9020059
21.87955131,4.853046894,-14.23352909,-7.977479935,17.02309022
21.88455447,3.998316765,-10.66616821,-3.948038578,12.05573266
21.88955878,2.027888775,-6.842628479,1.991975784,7.409579267
21.89453285,-0.4070142806,-3.892971992,5.181052685,6.493396529
21.89953939,-3.368641853,-1.881842494,5.497087002,6.716177828
21.90454247,-5.20020628,-0.9026140571,3.598485231,6.387953776
21.90954793,-6.598419666,-0.5123591423,1.07739079,6.705402665
21.91455324,-7.469909191,-0.5195417404,-0.356736064,7.496447663
21.9195587,-7.139509678,-1.046266198,1.678335428,7.408379121
21.92453224,-6.253654957,-1.953668594,3.773261786,7.560590307
21.92953716,-5.152322292,-3.385401249,4.668693542,7.733308866
21.93454124,-3.97916317,-5.257667065,4.958391666,8.249996995
21.93954801,-2.904166698,-7.371747017,6.215347767,10.07012344
21.94410431,-2.755726099,-9.301473618,8.511386871,12.90562452
21.94952616,-2.398990154,-11.14261436,10.63743782,15.59064117
21.95453131,-1.82198751,-12.23676491,10.79545593,16.41949825
21.95953785,-1.256955862,-13.08670616,9.603142738,16.28072992
21.96409354,-0.5267243981,-14.05875206,7.611167431,15.99549367
21.96954608,0.8762778044,-15.41865921,4.185064793,16.00055255
21.97455101,2.439691544,-16.53196335,0.9576807022,16.73843061
21.97955654,4.407725334,-17.4609127,-2.746149302,18.21682879
21.98452893,6.112396717,-17.92299461,-5.765237808,19.79477448
21.98953408,6.296750546,-17.49443245,-8.07324791,20.27021376
21.9945397,5.23851347,-16.22071648,-8.142680168,18.8906566
21.99909747,3.634398222,-14.4897089,-7.082048416,16.53226918
22.00455047,2.631227732,-12.68208599,-5.521028996,14.07978784
22.00955385,0.895431459,-11.13782597,-3.588908434,11.73598008
22.01455816,0.03351882473,-10.21605873,-1.850717902,10.3823955
22.01953447,-0.3711012602,-9.399636269,-0.6105214357,9.426749946
22.02453878,-0.356736064,-8.83699894,-0.1843535304,8.846117629
22.0295437,-1.144428372,-8.461109161,-0.1460463107,8.539403613
22.03454801,-1.611297727,-7.869740963,-0.06464344263,8.033260979
22.0395547,-2.327163935,-7.419631004,-0.3208230138,7.782643743
22.0445587,-3.505111217,-6.849811077,-0.6177040339,7.719279417
22.0495317,-4.333505154,-6.473921299,-0.7134721279,7.823040737
22.05453724,-5.267243862,-6.416460514,-0.9983820915,8.361315102
22.05954308,-4.963180065,-6.557718277,-1.096544385,8.296941301
22.06454678,-4.211400986,-6.833051682,-1.137245774,8.10677627
22.06955262,-3.749319792,-6.938396454,-1.582567334,8.043833888
22.07455624,-2.875436306,-7.161057472,-1.762132406,7.915427259
22.07953108,-2.051830769,-7.438784599,-1.462857246,7.854010259
22.08453747,-1.441309452,-7.788338184,-0.9050082564,7.972115438
22.08954155,-1.103726983,-8.116343498,-0.3711012602,8.199448834
22.09454524,-0.758961916,-8.391676903,-0.0287304204,8.425977087
22.09955254,-0.4141969085,-8.65743351,0.181959331,8.66924583
22.10455539,-0.09816227108,-8.827422142,0.1388636976,8.829060008
22.10952893,0.2059013397,-8.942343712,-0.08858546615,8.945152531
22.11453532,0.4477157295,-8.999804497,-0.3926490843,9.019484667
22.11954185,0.586579442,-8.997409821,-0.8140285611,9.05318184
22.12454524,0.423773706,-8.920795441,-1.122880578,9.001168604
22.12954924,0.2394201756,-8.832210541,-1.441309452,8.952242065
22.13410639,0.107739076,-8.736441612,-1.63523972,8.888814808
22.13908216,-0.14844051,-8.700529099,-1.805228114,8.887074306
22.14408555,-0.4094084799,-8.700529099,-1.946485996,8.925000259
22.14909078,-0.7493851185,-8.655038834,-1.977610588,8.909669966
22.15454393,-1.053448796,-8.63109684,-1.951274395,8.911400495
22.15954855,-1.395819545,-8.552088737,-1.788468719,8.847889824
22.16455139,-1.704671621,-8.396465302,-1.493981838,8.697040682
22.16955755,-1.867477298,-8.228871346,-1.280897856,8.53478145
22.17453232,-1.927332401,-8.090007782,-1.086967587,8.387152952
22.17909047,-1.946485996,-7.991845131,-0.8882488012,8.273293314
22.18454208,-1.924938202,-7.824251175,-0.4932055473,8.072641776
22.18954639,-1.752555609,-7.563282967,0.107739076,7.764425806
22.19455162,-1.522712231,-7.455543995,0.5793967843,7.63148016
22.19955724,-1.268926859,-7.378929615,1.00556469,7.554464771
22.20453078,-0.9313444495,-7.419631004,1.328781962,7.594997579
22.20953562,-0.6344634295,-7.498639584,1.719036818,7.719276328
22.21453993,-0.4189853072,-7.623138428,1.853112102,7.856323099
22.21954701,-0.3040636182,-7.759607792,1.97042799,8.011651155
22.22455039,-0.1939303428,-7.95593214,2.030282974,8.213191472
22.22955532,-0.1316810995,-8.121131897,2.025494576,8.370946869
22.23452978,-0.09816227108,-8.461109161,1.745373011,8.639810821
22.23953539,-0.1795651317,-8.779537201,1.386242747,8.890117325
22.2445397,-0.3615244627,-9.0740242,0.9433154464,9.130085386
22.24954401,-0.5889736414,-9.40681839,0.4453215301,9.435752934
22.25454916,-0.9265560508,-9.794678688,-0.04309562966,9.838500595
22.25955562,-1.161187768,-10.07240677,-0.4884171486,10.15087614
22.26455962,-1.273715258,-10.27830791,-1.024718285,10.40749786
22.26953447,-1.273715258,-10.27830791,-1.024718285,10.40749786
22.27453839,-1.388636947,-10.62307262,-2.535459518,11.00938416
22.27954485,-1.335964561,-10.73560047,-3.078943491,11.24801368
22.28454793,-1.230619669,-10.81700325,-3.442862034,11.41819964
22.28955293,-1.051054597,-10.86488724,-3.629609823,11.50324119
22.29455724,-0.8499416113,-10.85770512,-3.706224203,11.50427134
22.29908516,-0.691924274,-10.80263805,-3.624821424,11.41556299
22.30453716,-0.3878606856,-10.75714779,-3.440467834,11.30059659
22.30909416,-0.08619125932,-10.72123528,-3.248931646,11.20302957
22.31409962,0.2394201756,-10.74038887,-3.047818661,11.16702618
22.31952062,0.720654726,-10.7284174,-2.650381327,11.07442117
22.32455655,1.26413846,-10.75954247,-2.166752577,11.04810467
22.32953101,1.74776721,-10.80503273,-1.592144132,11.06066659
22.33453532,2.360682964,-10.94629002,-1.106121182,11.25244832
22.33954062,3.095702887,-10.97262669,-0.7805097699,11.42764666
22.34454585,3.744531393,-11.10430717,-0.6967126727,11.73935951
22.3495507,4.225766182,-11.2838726,-0.7924807668,12.0752187
22.35455693,4.558559895,-11.53526402,-0.9576807022,12.44025468
22.35953039,4.568136692,-11.81059742,-1.127668977,12.71336783
22.36453501,4.30956316,-12.16015053,-1.292868972,12.96584381
22.36953932,3.878606796,-12.44027233,-1.424550056,13.10852048
22.37454485,3.165134668,-12.75151825,-1.498770237,13.22367602
22.37954855,2.537853718,-12.91671848,-1.606509328,13.26134194
22.38455439,1.750161409,-13.04121685,-1.774103403,13.27719265
22.38955939,0.895431459,-13.19923401,-2.099714994,13.39516252
22.39453324,-0.2130839527,-13.44104862,-2.650381327,13.70152232
22.39953839,-0.9816226959,-13.65652657,-3.201047659,14.06097461
22.40454216,-1.551442742,-13.85285091,-3.634398222,14.40546089
22.40954793,-1.805228114,-13.97016716,-4.024652958,14.64999148
22.41455262,-1.905784607,-13.97016716,-4.400542736,14.7703203
22.41955778,-1.644816518,-13.95819569,-4.845864296,14.86670942
22.42453224,-1.393425345,-13.84806252,-4.886565685,14.75089807
22.42953685,-0.9337386489,-13.88876438,-4.75249052,14.70903838
22.43454155,-0.07900865376,-13.98213768,-4.113238335,14.57481204
22.43954824,0.6177040339,-14.13057804,-3.19865346,14.50124746
22.44455193,1.319205165,-14.22874069,-2.018311977,14.43159545
22.44955716,1.829170108,-14.29098988,-0.8571242094,14.43304946
22.45453039,1.881842494,-14.23113537,0.2777273953,14.35770447
22.45953601,1.742978811,-13.99889755,0.6177040339,14.12050516
22.46454024,1.534683347,-13.54878712,0.5650315881,13.64712959
22.46909809,1.067813993,-13.06994724,0.1628057212,13.11450546
22.47407255,0.2059013397,-12.74194145,-0.6344634295,12.75938914
22.47952485,-1.249773264,-12.46660805,-1.271321058,12.59343109
22.48452924,-2.604891539,-12.33492756,-1.055842996,12.65111466
22.48953409,-3.541024208,-12.45224285,-0.2920926213,12.94922865
22.4945397,-3.883395195,-12.9334774,0.4501099288,13.5114098
22.49954516,-4.570530891,-13.31415558,1.405396342,14.14678869
22.50410247,-5.559336185,-13.55357552,2.205059767,14.81444959
22.50952401,-6.562506676,-13.6254015,2.978386879,15.41391735
22.51411232,-7.048529625,-13.65892029,3.500322819,15.76388699
22.51908732,-7.134721279,-13.76665974,3.928884983,15.9956652
22.52409162,-7.175422668,-13.76187134,3.60327363,15.93296501
22.52909593,-7.39808321,-13.70680428,3.107673883,15.88287618
22.53410085,-7.723694801,-13.8217268,2.324769735,16.0031293
22.5390747,-7.886500359,-14.37478733,0.9265560508,16.42223812
22.5445277,-7.563282967,-15.05473995,-0.4070142806,16.85271803
22.54908524,-7.180211067,-15.67244434,-1.482010841,17.3025229
22.55408885,-6.691793919,-15.92383575,-2.097320795,17.39963809
22.55954216,-5.621585369,-15.77778912,-2.296039343,16.90599444
22.5645467,-4.345476151,-15.52639771,-2.422932148,16.30407277
22.56955132,-2.813186884,-14.98530865,-2.691082716,15.48274594
22.57455693,-2.755726099,-14.27901936,-2.928108692,14.83436013
22.57953132,-1.613691926,-14.08748245,-1.661576033,14.27662419
22.58408885,-0.7086837292,-13.8025732,-0.5841852427,13.83309553
22.58954001,-0.2705447972,-13.45301914,1.953668594,13.59682829
22.59409816,1.908178806,-13.69243908,3.790021181,14.33486292
22.59907408,3.208230257,-13.77384281,2.796427488,14.41636202
22.60452485,3.335123062,-13.6014595,1.393425345,14.07353476
22.60952985,2.509123325,-12.95023727,-0.09337386489,13.19140114
22.61453409,2.319981337,-12.66772079,-0.4141969085,12.88506976
22.61954001,2.070984364,-12.22239971,-0.3040636182,12.40034216
22.62454462,1.810016513,-11.63342571,0.2873041928,11.77689676
22.62910124,1.369483352,-10.9247427,0.6177040339,11.02755848
22.63407632,0.7038952708,-9.885659218,0.8595184088,9.947889154
22.63908055,0.2202665508,-9.22725296,1.084573388,9.293385496
22.64453355,-0.2992752194,-8.525752068,1.434126854,8.650707128
22.64953839,-0.895431459,-7.534552574,1.97042799,7.839251651
22.65454332,-1.400607944,-6.754043102,2.19308877,7.237985852
22.65954732,-1.855506301,-6.02620554,2.384624958,6.741253076
22.66455355,-2.322375536,-5.341464043,2.217030764,6.232165888
22.66955747,-2.63841033,-4.580107689,2.176329374,5.716205477
22.67453201,-2.911349297,-4.067748547,2.166752577,5.451362187
22.67953816,-2.93768549,-3.651157618,2.011129379,5.099567566
22.68454208,-2.913743496,-3.339911461,1.661576033,4.733470676
22.68954708,-2.932897091,-3.27287364,0.9768342972,4.501976505
22.6945517,-2.853888512,-3.442862034,0.4501099288,4.494505264
22.69955632,-2.667140722,-3.694253206,-0.1221042871,4.558075892
22.70453109,-2.614468336,-3.849876404,-0.5722141862,4.688754854
22.70953686,-2.609679937,-4.060565948,-0.5363011956,4.856567118
22.71454032,-2.56658411,-4.213795185,-0.4022258818,4.950273681
22.71909839,-2.365471363,-4.46279192,-0.3112462163,5.060517829
22.72452116,-1.956062794,-4.71657753,-0.1029506698,5.1071405
22.72955624,-1.656787634,-4.795586109,0.3327940404,5.084618301
22.73452886,-1.618480325,-4.778826714,0.7757213712,5.104743575
22.7395347,-1.89620769,-4.673481941,1.029506683,5.14751601
22.7445397,-2.291250944,-4.467580318,1.113303781,5.142815386
22.74954462,-2.571372509,-4.242525578,1.055842996,5.072059176
22.75410155,-2.808398485,-4.036623955,0.8906430602,4.997467365
22.75907809,-2.97359848,-3.904942989,0.7781155705,4.969540372
22.76452832,-3.01190567,-3.742137194,0.5506663918,4.83512151
22.76953355,-2.930502892,-3.622427225,0.4836287498,4.684412766
22.77453847,-2.738966703,-3.576937437,0.4094084799,4.523719193
22.77954332,-2.466027737,-3.541024208,0.3208230138,4.327016599
22.78454709,-2.205059767,-3.521870613,0.1771709323,4.158996361
22.78955286,-2.070984364,-3.500322819,0.06464344263,4.067605542
22.79455747,-1.936909199,-3.471592426,-0.06224924326,3.975857918
22.79953255,-1.850717902,-3.462015629,-0.2250549644,3.932093425
22.80453747,-1.795651317,-3.488351822,-0.5219359994,3.957951398
22.80954124,-1.81959331,-3.550601006,-0.9289502501,4.096417445
22.81454709,-1.939303398,-3.600879431,-1.604115129,4.393223838
22.81955109,-2.070984364,-3.629609823,-2.463633537,4.851034313
22.82455601,-2.221819162,-3.586514235,-3.483563423,5.471268488
22.82908339,-2.394201756,-3.557783842,-4.345476151,6.105177384
22.83453624,-2.533065319,-3.596091032,-5.300762653,6.888132935
22.83954393,-2.659958124,-3.708618402,-6.323086739,7.798118592
22.84454586,-2.851494312,-4.120420933,-7.261613846,8.8226937
22.84955009,-2.959233284,-4.599261284,-8.068459511,9.747322959
22.85455501,-2.892195702,-5.23851347,-9.009381294,10.81553377
22.85952924,-2.576161146,-6.179434776,-9.935936928,11.98102095
22.86453355,-1.640028119,-7.757213593,-10.33816338,13.02849481
22.86953909,-0.7948749661,-9.172186852,-10.20648193,13.74529415
22.87454424,0.1101332754,-10.6350441,-9.478644371,14.24643785
22.87954978,0.3998316824,-12.34210968,-9.301473618,15.45978487
22.88455409,-0.1963245422,-14.90629959,-9.217676163,17.52717503
22.88955839,-0.3806780577,-17.30768394,-9.555258751,19.77381625
22.89408555,-0.5482721925,-19.86708641,-10.53448772,22.49393599
22.8995387,-1.201889277,-22.35944939,-12.81376743,25.79887886
22.90409624,-1.505952835,-24.11200523,-16.62533569,29.32675361
22.90910093,-0.9528923035,-24.61478806,-19.74498177,31.56992397
22.91407501,-0.3208230138,-23.51584816,-18.85912704,30.14572465
22.91908124,0.1292868853,-20.87025642,-16.93897629,26.87960632
22.92408578,0.08379705995,-17.08023453,-14.8823576,22.65449185
22.92953632,-0.3998316824,-11.54244614,-13.36443424,17.66340938
22.93409416,-0.1532289088,-7.450755596,-13.31655025,15.26000487
22.93954639,0.9457096457,-3.608062029,-12.92150688,13.44908244
22.94455132,1.403002143,-1.733402014,-11.77707863,11.98635385
22.94955686,0.85473001,-0.4548983276,-10.05325317,10.09977204
22.95453078,0.5315127969,0.0359130241,-7.220912457,7.240536741
22.95953562,-0.3351882398,-0.6368576288,-4.513070107,4.570091966
22.96454155,-0.5147533417,-2.303221941,-2.434903145,3.390952025
22.96954524,-1.446097851,-4.089296341,-0.7493851185,4.40171803
22.97410309,-2.849100113,-5.750872612,0.586579442,6.444686392
22.97907724,-3.742137194,-7.417236805,2.592920542,8.70300118
22.98453009,-5.245696068,-9.715670586,6.397306919,12.76076479
22.98953478,-6.643909931,-11.62145519,7.829039574,15.50785674
22.99454024,-7.991845131,-13.6014595,7.4363904,17.440447
22.99954639,-8.590395927,-16.3212738,5.109226227,19.13852328
23.00454924,-8.123526573,-18.82321358,1.956062794,20.5944467
23.0095547,-7.094019413,-21.4185276,-2.45405674,22.69583289
23.01455878,-5.54018259,-23.89173889,-6.758831501,25.43994131
23.01953324,-2.643198729,-25.34501839,-9.643844604,27.24628773
23.02453747,0.3208230138,-24.32269478,-10.97502041,26.68609154
23.02954301,2.262520552,-21.59330559,-11.5975132,24.61487676
23.03454793,2.736572504,-18.14326096,-9.229647636,20.53906382
23.03955263,0.8834604025,-12.80179691,-0.007182605099,12.83224681
23.04455786,-1.510741234,-8.305485725,6.596025467,10.71312206
23.04953193,-3.572149038,-4.886565685,8.796297073,10.67771582
23.05408986,-5.430049419,-2.743755102,7.122750282,9.367347562
23.0590947,-8.008605003,-1.235408068,3.799597979,8.949912401
23.06454732,-10.05325317,-0.1268926859,-1.00317049,10.10397705
23.0695507,-9.691728592,0.1675941199,-1.905784607,9.878750217
23.07455624,-8.025363922,-0.1388636976,0.1723825186,8.028416092
23.07953263,-5.736507416,-1.146822572,2.762908697,6.469650981
23.08408832,-3.746925592,-2.243366957,3.873818398,5.837689241
23.08954062,-1.508347034,-3.653551817,5.42765522,6.714387004
23.09454555,0.1915361285,-5.35343504,8.540117264,10.08114853
23.09955132,1.019929886,-7.608773232,12.83770943,14.95795676
23.10410824,0.8164227605,-9.21528244,14.46097851,17.16705787
23.10952924,0.4501099288,-10.59434223,14.27183628,17.77998867
23.11453439,0.2370259613,-11.69806957,12.50252151,17.12349431
23.1195397,-0.0143652102,-12.87362289,9.555258751,16.03225943
23.12454432,0.2609679997,-13.836092,6.852205276,15.44209387
23.12954947,1.383848548,-14.71476364,3.181894064,15.11832516
23.13455409,3.904942989,-15.60780048,-3.964797974,16.57020334
23.13955939,5.882553577,-16.60857773,-9.33020401,19.93745213
23.14453293,6.335057735,-16.96052551,-11.83453941,21.62981057
23.14953778,5.260061264,-16.54154015,-11.14022064,20.6251136
23.1545437,3.725377798,-15.11698914,-7.900865555,17.4592519
23.15954924,2.583343744,-13.74750614,-5.23611927,14.9360147
23.16455286,1.33835876,-12.51688671,-3.394978046,13.03800341
23.16955809,0.3854664862,-11.41555405,-2.612074137,11.71692749
23.17453201,-0.5698199868,-10.30943298,-1.810016513,10.48261718
23.17953747,-1.44849205,-9.382876396,-0.8906430602,9.535708875
23.18409478,-2.322375536,-8.583212852,-0.3711012602,8.899589156
23.18954678,-3.186682463,-7.91762495,0.5698199868,8.553854382
23.19455201,-4.149151325,-6.974309444,0.2561795712,8.119241154
23.19955747,-4.809951305,-6.483498096,0.0,8.072879234
23.20453101,-5.207388878,-6.215347767,0.0143652102,8.108492656
23.2095357,-5.408501625,-6.047753334,0.2082955539,8.116070309
23.21454024,-5.420472622,-6.011840343,-0.3064578176,8.100473082
23.21954639,-5.094861031,-6.162675381,-0.7733271718,8.033318846
23.22455047,-4.730942726,-6.27999115,-1.168370485,7.948911719
23.22955532,-3.928884983,-6.505045891,-1.350329757,7.718494005
23.23452986,-2.652775526,-6.710947514,-1.180341482,7.312129685
23.23953747,-1.716642618,-6.993463039,-0.9648633003,7.265421416
23.24454024,-0.9600749016,-7.314286232,-0.8595184088,7.426930644
23.24954393,-0.4309563041,-7.666234016,-0.806845963,7.720613171
23.25454924,0.007182605099,-7.999027729,-0.8475474119,8.04380711
23.2591067,0.2777273953,-8.204929352,-0.8475474119,8.25326207
23.26452763,0.4740519226,-8.38928318,-0.8355764151,8.444109512
23.26953386,0.5554547906,-8.61912632,-0.8667010069,8.680382433
23.27453878,0.7110779285,-8.832210541,-0.921767652,8.908604294
23.27954401,0.8499416113,-9.047688484,-0.9864110947,9.140901186
23.28454832,0.8403648138,-9.165003777,-0.9337386489,9.250695926
23.28955316,0.787692368,-9.191340446,-0.7326257229,9.254076881
23.29455693,0.6368576288,-9.169792175,-0.5243301988,9.206823466
23.29953255,0.4860229492,-9.153033257,-0.4141969085,9.175281749
23.30453755,0.2202665508,-9.129091263,-0.3375824392,9.137985913
23.30954178,-0.1101332754,-9.028534889,-0.2274491638,9.032070898
23.31454732,-0.4979939461,-8.74601841,0.01197100803,8.76019288
23.31955378,-0.7948749661,-8.595184326,0.06464344263,8.632102791
23.32455593,-1.067813993,-8.513781548,0.04548983276,8.580604424
23.32908401,-1.321599364,-8.422801971,0.06943184882,8.526138558
23.33408886,-1.556231141,-8.343792915,0.09337386489,8.488194994
23.33909355,-1.754949808,-8.233659744,0.05746084079,8.418806528
23.34454616,-1.89860189,-8.058882713,0.0023942017,8.279509977
23.34955101,-1.944091797,-7.965508938,-0.06703764945,8.199592648
23.35455478,-1.946485996,-7.948749542,-0.04070143029,8.183708427
23.3595307,-1.800439715,-8.056488991,-0.1580173075,8.25672862
23.3645344,-1.668758631,-8.183381081,-0.383072257,8.360575676
23.36909193,-1.59932673,-8.432378769,-0.7445967197,8.614945268
23.37454516,-1.503558636,-8.825027466,-1.237802267,9.037364262
23.37954978,-1.407790542,-9.198522568,-1.707065821,9.460907216
23.38455386,-1.304839969,-9.607931137,-2.236184359,9.950651665
23.3891117,-1.137245774,-10.03409958,-2.968810081,10.52569787
23.39408547,-0.9935936928,-10.43393135,-3.847482204,11.16500207
23.39954032,-0.7278373241,-10.81700325,-4.730942726,11.8287415
23.4045434,-0.4333505034,-10.95347309,-5.221754074,12.14220248
23.4095474,-0.1244984865,-11.03966427,-5.38934803,12.28555083
23.41455324,-0.0023942017,-11.05402946,-4.970362663,12.12006923
23.41955786,0.2178723514,-11.11149025,-4.106055737,11.84788494
23.42453316,0.605733037,-11.15697956,-3.23456645,11.6321763
23.42908978,1.084573388,-11.23359394,-2.463633537,11.55159826
23.4345424,1.810016513,-11.2838726,-1.680729628,11.55105159
23.43954647,2.33913517,-11.25514221,-1.156399369,11.55365912
23.44410463,3.031059265,-11.20725822,-0.9816226959,11.65133213
23.44952555,4.165910721,-10.99656868,-1.328781962,11.83406086
23.45408424,4.90811348,-10.87685871,-1.862688899,12.07746841
23.45908863,5.501875401,-10.79545593,-2.293645144,12.33180075
23.46409286,5.858611584,-10.86249352,-2.437297344,12.58004425
23.4690987,6.009446144,-11.03008747,-2.197877169,12.75174249
23.47452001,5.839457989,-11.37964058,-1.63763392,12.89485689
23.47955632,5.453991413,-11.69806957,-1.314416766,12.97376374
23.48453009,4.865017891,-11.9901619,-1.163581967,12.99177834
23.4895344,3.881000996,-12.33732128,-1.221042871,12.99086644
23.49453878,3.01190567,-12.68926907,-1.290474772,13.10551221
23.49954401,2.255337954,-13.18965721,-1.56101954,13.47183687
23.50454893,1.292868972,-13.66610336,-1.975216389,13.86850284
23.5091067,0.08140286058,-14.03959846,-2.372653961,14.2389058
23.51452855,-1.589749932,-14.30296135,-3.143586874,14.73038175
23.51953409,-2.729389906,-14.38436413,-3.969586372,15.16961162
23.52453755,-3.512293816,-14.44900703,-4.582501888,15.55986297
23.5295434,-3.543418407,-14.75067711,-4.606443882,15.85426171
23.53454793,-3.047818661,-15.03079796,-3.730166197,15.7837963
23.53955255,-2.319981337,-15.36838055,-2.456450939,15.73542453
23.54455778,-1.18991828,-15.88074017,-1.158793569,15.96736097
23.5495317,-0.2537853718,-16.51520348,-0.4141969085,16.52234584
23.55453663,0.4668693244,-16.89588165,-0.2322375625,16.90392611
23.5595437,0.9313444495,-16.95573616,-0.2968810201,16.9838903
23.56454678,0.8403648138,-16.52238655,-0.5458779931,16.5527476
23.56955132,0.1364694983,-16.09142876,-0.9696516991,16.12119499
23.57455686,-0.9504981041,-15.72751141,-1.395819545,15.81791307
23.57908301,-1.953668594,-15.50245571,-1.479616642,15.69497434
23.58408824,-2.956839085,-15.32528496,-1.11569798,15.64774867
23.58954124,-4.201824188,-14.7698307,0.0287304204,15.35591257
23.59454547,-5.018246651,-14.46097851,0.8619126081,15.3311967
23.59955016,-5.837063789,-14.13057804,1.74776721,15.38828254
23.60455532,-6.727706909,-13.836092,3.129221678,15.7000481
23.60952986,-7.481880188,-13.66849709,4.084507942,16.1086793
23.6145344,-8.310274124,-13.45541382,4.266467571,16.38021864
23.61953963,-8.741230011,-13.33330917,3.773261786,16.38364246
23.62454432,-9.390059471,-13.2423296,2.466027737,16.41992091
23.62954916,-10.01255131,-13.19683933,1.211466074,16.60949735
23.63455409,-10.0604353,-13.43386555,-0.3447650373,16.78689861
23.63956024,-9.279925346,-13.91749477,-1.778891921,16.82195386
23.64453378,-7.967903137,-14.48252583,-2.78924489,16.76338038
23.64953778,-7.072471619,-14.60702419,-2.832340717,16.47443973
23.65454247,-6.536170483,-14.43464184,-2.537853718,16.04746432
23.65910024,-5.530605793,-14.16409683,-2.037465572,15.3414636
23.66452186,-4.273650169,-13.8265152,-1.778891921,14.58084582
23.6695587,-4.144362926,-13.28781986,-2.030282974,14.06641211
23.67408455,-3.399766445,-12.95981407,-1.146822572,13.44731924
23.67953747,-1.522712231,-13.2279644,0.4118026793,13.32168443
23.68454247,0.9959878922,-13.8169384,3.16034627,14.20871448
23.6895467,2.71263051,-13.92946529,1.343147159,14.25455759
23.6945517,3.004723072,-13.56075859,-0.6703764796,13.90582392
23.69955686,3.311181068,-13.25908947,-1.553836942,13.75433688
23.70453078,4.01507616,-13.05318737,-2.126051188,13.82123839
23.70953509,4.532223701,-12.79700851,-1.829170108,13.69855255
23.71454063,4.79319191,-12.40435886,-1.165976286,13.34924373
23.7195464,4.647145271,-12.03804588,-0.2873041928,12.90709307
23.72455047,3.904942989,-11.37485218,0.6153098345,12.04219449
23.72910832,3.263296843,-10.723629,1.060631394,11.25923017
23.73453078,2.813186884,-9.902418137,1.683123827,10.43095447
23.73953447,2.588132143,-8.927978516,3.040636063,9.780219631
23.74453901,1.084573388,-7.407660007,1.297657371,7.598265649
23.74954486,0.1771709323,-6.54574728,1.673547029,6.758620914
23.75454924,-0.3974374831,-5.980715752,1.920149803,6.293956841
23.7595547,-0.9169792533,-5.54257679,2.157175779,6.017841454
23.7645594,-1.249773264,-4.984727859,2.183511972,5.583651993
23.76953324,-2.106897593,-4.237737179,1.948880196,5.118160595
23.77453809,-2.691082716,-3.632004023,1.383848548,4.727411153
23.77954309,-2.985569477,-3.251325846,0.7374141216,4.475323949
23.78454793,-2.97599268,-2.966415882,0.3950432837,4.220451968
23.78910555,-3.117250681,-2.738966703,0.1580173075,4.152608804
23.79452732,-3.323152065,-2.56658411,-0.0359130241,4.199045533
23.79953416,-3.390189648,-2.631227732,-0.117315881,4.29307678
23.8045384,-3.150769472,-2.839523315,-0.2082955539,4.246601931
23.80954155,-2.846705914,-3.052607059,-0.323217243,4.186479882
23.81409901,-2.645592928,-3.244143248,-0.3711012602,4.202540124
23.81952209,-2.410961151,-3.469198227,-0.2992752194,4.235284603
23.82455655,-2.250549555,-3.682282209,-0.1915361285,4.319821947
23.8295314,-2.159569979,-3.900154591,-0.08140286058,4.458875951
23.83453593,-1.989581585,-4.050989151,0.05267243832,4.513504444
23.83909355,-1.991975784,-4.146757126,0.2178723514,4.605543458
23.84454616,-2.173935175,-4.216189384,0.3615244627,4.757409695
23.84910301,-2.365471363,-4.209006786,0.4596867263,4.850000493
23.85452486,-2.468421936,-4.175487995,0.5674257874,4.88362354
23.85952893,-2.619256735,-4.007893562,0.6440402865,4.830994157
23.86453478,-2.659958124,-3.859453201,0.7230489254,4.742737183
23.86954063,-2.693476915,-3.75650239,0.7661445141,4.685414124
23.87454424,-2.633621931,-3.672705412,0.8116343617,4.59167506
23.87955078,-2.466027737,-3.593696833,0.758961916,4.424022255
23.88455409,-2.365471363,-3.615244627,0.7015010715,4.376934114
23.88955909,-2.257732153,-3.665522814,0.5841852427,4.344500474
23.89453232,-2.190694571,-3.758896589,0.3806780577,4.367306041
23.89953809,-2.051830769,-3.871424198,0.1221042871,4.383245861
23.90409655,-2.04704237,-3.921702385,-0.174776718,4.427265404
23.90910086,-2.161964178,-3.888183594,-0.5482721925,4.482484039
23.9145224,-2.257732153,-3.840299606,-0.9983820915,4.56530638
23.91955786,-2.312798738,-3.833117008,-1.59693253,4.753106091
23.92453255,-2.372653961,-3.883395195,-2.149993181,5.033161605
23.92953686,-2.45405674,-4.024652958,-2.887407303,5.52787001
23.9345424,-2.446874142,-4.213795185,-3.75650239,6.152607019
23.9390997,-2.336740971,-4.453215122,-4.606443882,6.819883322
23.94407347,-2.106897593,-4.740519524,-5.858611584,7.825271402
23.94952647,-1.8602947,-5.018246651,-6.80192709,8.655039454
23.95453132,-1.905784607,-5.379771233,-7.903259754,9.748613657
23.95953747,-2.288856745,-5.932831764,-9.272743225,11.2437149
23.96454086,-2.726995707,-6.622362137,-10.11310768,12.39222066
23.96954555,-3.095702887,-7.572859764,-11.07318306,13.76760562
23.97454978,-3.502717018,-8.889671326,-11.56638813,15.00255369
23.97955509,-3.60566783,-10.93192482,-10.46266174,15.55554922
23.98452978,-3.701435804,-12.87841129,-9.191340446,16.24914901
23.98953532,-3.761290789,-15.02361584,-8.178592682,17.51415769
23.99453878,-3.818751812,-18.17917442,-8.501810074,20.4290485
23.99954516,-3.813963413,-20.92532349,-10.48181534,23.71252692
24.00454894,-3.332728863,-23.57570457,-14.4801321,27.86745689
24.0095544,-1.843535304,-25.72809219,-18.78251266,31.90793212
24.01455809,1.345541358,-26.22608566,-19.76892281,32.86987009
24.01953263,3.462015629,-25.01940727,-17.50640297,30.73158697
24.0245384,4.345476151,-22.43367004,-14.91108799,27.28540378
24.02954278,4.098873138,-18.57421684,-13.21599293,23.16170895
24.03454763,3.236960649,-12.62701988,-12.67729759,18.18332807
24.03955447,2.983175278,-8.552088737,-13.37161636,16.15046998
24.04455847,2.904166698,-5.521028996,-13.72116947,15.07270503
24.04953255,2.880224705,-3.493140221,-12.6629324,13.4479582
24.05453747,2.559401512,-2.059013367,-10.13704967,10.65597711
24.05954309,1.695094824,-1.929726601,-7.785943985,8.198665437
24.06454678,0.3399766386,-2.71502471,-5.762843609,6.379444314
24.0695514,-1.276109457,-4.137180328,-3.53384161,5.588627107
24.07455624,-3.236960649,-6.224924564,-0.4932055473,7.033551862
24.07908432,-4.666299343,-7.575253963,1.259350061,8.985810189
24.08453532,-5.803544998,-10.08677197,3.873818398,12.26501415
24.08954024,-6.756437302,-12.40914726,5.68144083,15.22876064
24.09454617,-8.147468567,-15.35880375,7.323863029,18.86565839
24.09910332,-8.434772491,-17.82962036,8.226476669,21.37090704
24.10452463,-7.781155586,-20.39620399,7.611167431,23.11885355
24.10908301,-6.655880928,-22.72336769,4.735731125,24.14703583
24.11453417,-3.8642416,-24.77280426,-3.919308186,25.3768629
24.11954209,-0.3016694188,-24.84941864,-10.32858658,26.91215918
24.12409755,3.181894064,-22.11763573,-10.71644688,24.78218097
24.12951909,4.517858505,-18.00200272,-7.441178799,19.9963569
24.13455378,3.143586874,-12.33492756,-3.066972494,13.09346771
24.13955909,0.7445967197,-7.726089001,1.046266198,7.832084555
24.14453324,-2.331952572,-3.770867586,4.917690277,6.621262932
24.1495387,-4.278438568,-1.244984865,5.712565422,7.244889757
24.15454247,-6.667851925,0.2274491638,5.284003258,8.510738678
24.15954732,-8.66940403,0.4118026793,3.447650433,9.338867232
24.16455347,-9.859322548,0.6584054828,-1.039083481,9.935765364
24.16955724,-10.61349583,0.9983820915,-4.496310711,11.56978265
24.17453255,-9.732429504,0.4309563041,-1.07739079,9.801361044
24.17953747,-8.192957878,-0.517147541,2.736572504,8.653370987
24.18409447,-6.263231754,-2.063801765,4.740519524,8.121568512
24.18909901,-4.314351559,-4.280832767,5.628767967,8.283851
24.19452094,-2.925714493,-7.328651428,8.77235508,11.79928602
24.19910986,-2.719813108,-9.526528358,11.90636539,15.48914661
24.20453017,-2.23139596,-11.47780323,13.85524559,18.12972491
24.20953632,-1.00556469,-13.34288597,14.34366226,19.61592245
24.21454032,-0.8403648138,-14.33169174,12.73236465,19.18897368
24.21954494,-0.85473001,-14.96854877,10.05325317,18.05147958
24.22410301,-0.2633621991,-15.40189934,6.718130112,16.80539006
24.22952463,1.304839969,-15.74427032,2.049436569,15.93062603
24.23452986,3.16034627,-16.06988144,-1.790862918,16.47531693
24.23953409,5.590460777,-16.62294197,-6.27999115,18.62830482
24.24453817,7.230489254,-16.92221832,-10.04846478,20.96695238
24.24954394,6.014234543,-16.14649582,-10.86728191,20.37101275
24.25454924,4.098873138,-14.64293766,-9.31823349,17.8338403
24.25955324,2.78924489,-12.91671848,-7.13232708,15.01637749
24.26455932,1.874659896,-11.43949604,-4.671087742,12.49781901
24.26953286,0.7757213712,-10.24957752,-2.662352324,10.61808377
24.27453847,0.08379705995,-9.481039047,-1.285686255,9.568182299
24.27909694,-0.5961562395,-8.604761124,-0.3615244627,8.632961033
24.28454947,-1.302445769,-7.95832634,-0.1723825186,8.066042328
24.28955201,-2.41335535,-7.163451672,0.1125274822,7.559893275
24.29455778,-3.356670856,-6.660669327,0.5027823448,7.475596645
24.29908424,-3.967192173,-6.402095318,1.060631394,7.605943541
24.30453663,-4.565742493,-6.069301128,1.223437071,7.692803063
24.30909478,-4.558559895,-6.02381134,0.9959878922,7.619630126
24.31410001,-4.446032524,-6.06451273,0.3112462163,7.526114141
24.31907347,-4.003105164,-6.258443356,0.09337386489,7.4297835
24.32407817,-3.361459255,-6.567295074,0.1316810995,7.378760928
24.32953078,-2.37744236,-7.036558628,0.1101332754,7.428157163
24.33453594,-1.527500629,-7.412448406,-0.1292868853,7.569304106
24.33954086,-0.7110779285,-7.776367188,-0.4548983276,7.822049025
24.34454555,-0.1221042871,-8.133103371,-0.8188169599,8.175129425
24.34955071,0.349553436,-8.602366447,-1.383848548,8.719973217
24.35410855,0.6105214357,-8.968679428,-1.663970232,9.142141108
24.35953132,0.8403648138,-9.248801231,-1.766920805,9.453493871
24.3645347,0.9911994934,-9.502586365,-1.757344007,9.714416195
24.36953963,1.26653266,-9.691728592,-1.618480325,9.907229009
24.37454424,1.477222443,-9.780313492,-1.395819545,9.989245735
24.37954832,1.541865945,-9.842563629,-1.209071875,10.03569949
24.38455324,1.44849205,-9.794678688,-0.9074024558,9.942697775
24.38955963,1.230619669,-9.617507935,-0.6153098345,9.715425355
24.39453286,0.85473001,-9.44512558,-0.2944868207,9.488291896
24.39909201,0.4932055473,-9.263166428,-0.0287304204,9.276331679
24.40454394,-0.2849099934,-8.904036522,-0.05027823523,8.908735488
24.40954855,-0.806845963,-8.552088737,-0.1723825186,8.591794802
24.41455232,-1.280897856,-8.276755333,-0.2681505978,8.379575341
24.41955847,-1.647210717,-8.03494072,-0.4860229492,8.216434374
24.42453263,-1.915361404,-7.773972988,-0.6871358752,8.035883339
24.42953747,-2.025494576,-7.632715225,-0.6009446383,7.919728811
24.43454178,-1.963245392,-7.618350029,-0.4932055473,7.882692519
24.43954863,-1.843535304,-7.649474621,-0.4812345505,7.883189144
24.44455286,-1.565807939,-7.769184589,-0.6416460276,7.951332801
24.44955724,-1.350329757,-7.939172745,-0.6799532771,8.081843279
24.45453101,-1.101332784,-8.288725853,-0.6560112834,8.387267789
24.4595357,-0.7972691655,-8.659827232,-0.6488286853,8.720620648
24.46454055,-0.4165911078,-9.095572472,-0.7445967197,9.135502778
24.46954586,-0.1604115069,-9.418789864,-1.046266198,9.47808036
24.47455071,0.06703764945,-9.737217903,-1.508347034,9.853578909
24.47955571,0.2992752194,-10.07001209,-2.066195965,10.2841565
24.48452924,0.4692635238,-10.31900978,-2.767697096,10.6940319
24.48953532,0.4979939461,-10.41956615,-3.292027235,10.93859224
24.4945397,0.5961562395,-10.42195988,-3.701435804,11.0757969
24.49954486,0.6368576288,-10.32858658,-3.801992416,11.02453784
24.50454924,0.7015010715,-10.20169353,-3.562572241,10.8285999
24.50955417,0.7661445141,-10.16578007,-3.074155092,10.64802758
24.5145594,0.7661445141,-10.16338634,-2.501940727,10.49481333
24.51953478,0.739808321,-10.13465595,-2.130839586,10.38263189
24.52453809,0.5841852427,-10.07001209,-2.00873518,10.28501011
24.52954278,0.5243301988,-10.05325317,-2.169146776,10.2979619
24.53454824,0.6943184733,-10.17056847,-2.470816135,10.48939814
24.53955317,1.029506683,-10.44111347,-2.679111719,10.82840589
24.54455717,1.855506301,-10.69489861,-2.346317768,11.10535758
24.54953232,2.710236311,-10.93910789,-1.817199111,11.41541392
24.55453717,3.574543238,-11.10670185,-1.316810966,11.74181317
24.5595424,4.276044369,-11.12585545,-0.8212111592,11.94753542
24.56454701,4.86741209,-11.15458584,-0.3519476354,12.17539949
24.56955132,5.125985622,-11.35809326,-0.08858546615,12.46153516
24.57455686,5.118803024,-11.62145519,0.06943184882,12.69902303
24.57953047,4.891354084,-11.89439392,0.0023942017,12.86086923
24.58453663,4.285621166,-12.18888092,-0.2657563984,12.92307987
24.58954094,3.639186621,-12.39478207,-0.6991068721,12.93688727
24.59454555,2.93768549,-12.53843403,-1.455674648,12.95998891
24.59955255,1.795651317,-12.61983681,-2.662352324,13.02201077
24.60455563,0.672770679,-12.8401041,-3.660734415,13.36868992
24.60953132,-0.4477157295,-13.05079365,-4.374206543,13.77161382
24.61453448,-1.417367458,-13.25908947,-4.94642067,14.22249843
24.61953909,-2.379836559,-13.38358784,-5.398924828,14.62642932
24.62454394,-2.987963676,-13.34767437,-5.590460777,14.77638622
24.62954886,-3.179499865,-13.31894398,-5.446808815,14.73673011
24.63455386,-3.193865061,-13.38358784,-4.90811348,14.60858567
24.63955901,-2.384624958,-13.6254015,-3.885789394,14.36792822
24.64453348,-1.393425345,-13.88397598,-2.679111719,14.20859116
24.64953748,-0.3806780577,-14.21198082,-1.48679924,14.2946104
24.65454278,0.5554547906,-14.57590008,-0.6488286853,14.60090311
24.6595474,1.319205165,-14.97573185,-0.2657563984,15.0360724
24.66455286,1.493981838,-15.26303577,-0.6799532771,15.35104489
24.66955817,1.403002143,-15.38992882,-1.355118155,15.51304835
24.67453224,0.9504981041,-15.25106525,-1.793257117,15.38551946
24.67953901,-0.01675941236,-14.7889843,-1.963245392,14.91873553
24.68454209,-1.072602391,-14.38436413,-1.881842494,14.54653699
24.68954617,-2.138022184,-14.16888523,-1.328781962,14.39076471
24.69455163,-3.311181068,-13.89355278,-0.2585737705,14.28501275
24.69955655,-4.402936935,-13.62300777,1.120486379,14.36062966
24.70453078,-4.884171486,-13.60864258,2.08295536,14.60783991
24.7095354,-5.279214859,-13.58948898,2.724601507,14.83131059
24.71454024,-6.045359135,-13.46499062,3.112462282,15.08442113
24.71954609,-7.484274387,-13.24472427,3.090914488,15.52387956
24.72455048,-8.348581314,-13.18008041,3.052607059,15.89753879
24.72955563,-9.014169693,-13.17050362,2.770091295,16.19848223
24.73452863,-9.469067574,-13.25430107,2.262520552,16.44562972
24.73953501,-9.83777523,-13.46499062,0.8762778044,16.69897172
24.74454001,-9.722852707,-13.836092,-0.5913678408,16.92102309
24.74954401,-9.06205368,-14.35323906,-1.941697598,17.08527079
24.75454863,-8.274360657,-14.84405041,-2.7509377,17.21564797
24.75955532,-7.429207802,-15.27740097,-3.021482468,17.25460707
24.76455994,-7.031770229,-15.33486176,-2.688688517,17.08311516
24.76953324,-6.16506958,-15.18402672,-2.398990154,16.56254522
24.77453786,-5.324704647,-14.95178986,-2.403778553,16.05262131
24.77954371,-4.659116745,-14.29338455,-2.786850691,15.28969416
24.78454824,-4.019864559,-13.65173817,-2.604891539,14.46771323
24.78955263,-2.19308877,-13.69243908,-1.254561663,13.92359333
24.79455755,-0.4525041282,-13.5966711,0.8092401624,13.62824621
24.79953132,1.853112102,-13.94143677,3.021482468,14.38495881
24.80453748,2.832340717,-14.04678154,1.63523972,14.42249058
24.80954155,3.145981073,-13.85763931,-0.3639186621,14.21491474
24.81454701,3.610456228,-13.69243908,-1.221042871,14.21299503
24.81955171,3.780444384,-13.48893261,-1.046266198,14.04769503
24.82455655,3.749319792,-13.09628296,-0.9959878922,13.65877074
24.82953017,3.689464808,-12.5456171,-0.490811348,13.08608249
24.83453501,3.366247654,-11.82256794,0.2705447972,12.29544348
24.83954148,2.849100113,-11.14740276,0.6153098345,11.52217714
24.84454609,2.118868589,-10.35971069,1.051054597,10.62628465
24.84955171,1.307234168,-9.531316757,1.350329757,9.714846924
24.85455471,0.5626373887,-8.420407295,1.723825216,8.613442588
24.8595304,-0.1292868853,-7.431602001,1.936909199,7.680953108
24.8645354,-0.8571242094,-6.404489517,2.023100376,6.77089972
24.86953994,-1.290474772,-5.521028996,1.989581585,6.008786998
24.87454455,-1.872265697,-4.57531929,2.04704237,5.350636215
24.87954924,-2.250549555,-3.916913986,1.924938202,4.910455738
24.88455386,-2.573766708,-3.394978046,1.731007814,4.598536621
24.88955871,-2.796427488,-2.985569477,1.515529633,4.36239176
24.89453355,-2.849100113,-2.669534922,1.149216771,4.069949304
24.89953786,-2.868253708,-2.56897831,0.9097966552,3.956546328
24.90454394,-2.93529129,-2.497152328,0.6488286853,3.908028067
24.90954709,-2.825158119,-2.516305923,0.3280056417,3.797486221
24.91455232,-2.779668093,-2.619256735,0.107739076,3.820820364
24.91955871,-2.63841033,-2.758120298,0.0,3.816862147
24.92453224,-2.554613113,-2.8993783,-0.2513911724,3.872420458
24.92953694,-2.387019157,-3.100491285,-0.4620809257,3.940104751
24.93454155,-2.133233786,-3.311181068,-0.5363011956,3.975201306
24.93954648,-1.991975784,-3.452438831,-0.5075707436,4.018075344
24.9445514,-2.063801765,-3.576937437,-0.3663128614,4.145834568
24.94955717,-1.874659896,-3.493140221,-0.2609679997,3.972968993
24.95453101,-1.965639591,-3.409343243,-0.01197100803,3.935416579
24.95953601,-2.080561161,-3.306392431,0.1364694983,3.908911559
24.96454055,-2.188300371,-3.126827478,0.3112462163,3.829175212
24.96954494,-2.281674147,-3.004723072,0.4596867263,3.800751181
24.97454978,-2.281674147,-2.892195702,0.4979939461,3.717368808
24.97955532,-2.159569979,-2.865859509,0.5506663918,3.630444421
24.98452917,-2.027888775,-2.942473888,0.5243301988,3.611842691
24.98953478,-1.836352706,-3.05021286,0.4429273009,3.587781257
24.99453848,-1.565807939,-3.277662039,0.3351882398,3.647899957
24.99954586,-1.37427175,-3.414131641,0.2777273953,3.690806174
25.00454955,-1.285686255,-3.56496644,0.1628057212,3.79321507
25.0095544,-1.163581967,-3.627215624,-0.2059013397,3.814840958
25.01455878,-1.118092179,-3.689464808,-0.4429273009,3.880523841
25.01953317,-1.127668977,-3.782838583,-0.7493851185,4.017845582
25.02453809,-1.146822572,-3.852270603,-1.142034173,4.178448619
25.02954309,-1.163581967,-3.988739967,-1.726219416,4.499311391
25.03454678,-1.326387763,-4.103661537,-2.365471363,4.91882072
25.03955348,-1.513135433,-4.268861771,-3.263296843,5.582281428
25.04455748,-1.666364431,-4.405331135,-4.314351559,6.387279718
25.04953232,-1.575384736,-4.479551315,-5.784391403,7.483809255
25.05453686,-1.379060149,-4.675876141,-6.87614727,8.428939783
25.05954309,-1.194706678,-4.958391666,-8.228871346,9.681285844
25.06454701,-1.201889277,-5.420472622,-9.727641106,11.20058314
25.06955194,-1.441309452,-6.390124321,-11.62624359,13.3446844
25.07455686,-1.675941229,-7.65426302,-12.85207462,15.0523202
25.07953132,-1.89860189,-9.289502144,-13.63497829,16.60759381
25.08453571,-1.714248419,-10.9103775,-13.73314095,17.62311394
25.08953994,-0.9145850539,-13.33809757,-13.70201588,19.14383848
25.09454432,-0.7900865674,-15.72032833,-12.82813263,20.30551517
25.09955101,-0.9600749016,-18.83279037,-11.78665543,22.23782775
25.1045554,-1.036689281,-22.25410461,-11.45625496,25.05126094
25.10952986,-1.472434044,-26.16862488,-13.85045719,29.64456366
25.11453471,-1.589749932,-27.94991112,-16.38831139,32.4391983
25.11953878,-0.758961916,-27.76795197,-16.62533569,32.37339906
25.12454455,-0.6847416759,-25.50782585,-15.25585365,29.72976827
25.12954917,-0.7541735172,-20.65717316,-13.20641613,24.52951299
25.13455386,-0.7900865674,-15.77539539,-12.36126328,20.05712258
25.13955932,-0.7445967197,-10.75235939,-12.03565216,16.15625513
25.14453386,-0.5554547906,-6.373364925,-12.20085144,13.77639599
25.14953871,-0.4046200812,-2.430114746,-11.9566431,12.20780445
25.15454363,-0.5698199868,-0.3926490843,-11.10909557,11.13062768
25.15954894,-0.7661445141,0.7517793179,-9.696516991,9.755746579
25.16455348,-1.651999116,1.261744261,-8.116343498,8.378313162
25.16955809,-2.200271368,0.4596867263,-5.346252441,5.799562151
25.17453232,-3.201047659,-0.7326257229,-3.53384161,4.824052559
25.17953632,-2.940079689,-2.628833532,-1.666364431,4.281542332
25.18454209,-3.481169224,-4.378994942,-0.3639186621,5.605940836
25.18954709,-4.675876141,-6.397306919,1.323993564,8.033823029
25.1945514,-5.049371243,-8.085219383,2.45405674,9.843237115
25.19955655,-4.987122059,-9.916783333,3.725377798,11.70864714
25.20453048,-5.245696068,-11.94706631,4.548983097,13.81821145
25.2095354,-5.193023682,-14.76025391,4.429273129,16.26195101
25.21454148,-4.879383087,-16.89827538,2.966415882,17.83703207
25.21954525,-4.134786129,-19.09375763,0.2178723514,19.53754092
25.22455048,-2.86107111,-22.17988396,-5.214571476,22.96355234
25.22955594,-1.798045516,-24.4424057,-9.449913979,26.26718558
25.23452986,-0.01675941236,-25.67781258,-12.14339066,28.40444114
25.23953632,2.370259762,-24.68661308,-11.84172153,27.48223728
25.24454055,1.941697598,-20.24776459,-8.774748802,22.15261558
25.24954455,0.6967126727,-16.0363636,-5.614402771,17.00505468
25.25454894,-0.4836287498,-11.46583176,1.194706678,11.53804657
25.25955448,-2.56897831,-6.698976517,7.888894558,10.66351693
25.26455932,-5.319916248,-2.688688517,9.107542992,10.88475513
25.26953378,-7.620744228,-1.00317049,6.562506676,10.10685844
25.27453878,-9.157821655,-0.1532289088,2.786850691,9.573699042
25.27954186,-9.722852707,0.4429273009,-1.292868972,9.818429586
25.28454863,-8.918401718,0.6655880809,-1.786074519,9.119811341
25.28955286,-7.156269073,0.174776718,0.6823474765,7.190850578
25.29455878,-4.927267075,-0.8331822157,2.592920542,5.629865928
25.29953263,-2.580949545,-2.37744236,3.801992416,5.173845674
25.30453694,0.1891419291,-5.015852451,5.98550415,7.811581813
25.30954209,0.9744400978,-7.307103634,9.119514465,11.72641638
25.31454732,0.8427590132,-9.373299599,12.09550667,15.3254778
25.31955294,0.7086837292,-11.07557678,13.18008041,17.23035558
25.32455594,0.3399766386,-12.58871269,12.15775585,17.50435085
25.32953132,0.3974374831,-13.36922264,11.02529907,17.33353081
25.33453594,0.6392518282,-14.15212631,9.026140213,16.79769416
25.33954086,1.30005157,-14.93263626,5.942408562,16.12408073
25.34454578,2.683900118,-16.00284386,0.9050082564,16.2515652
25.34955009,4.216189384,-16.75222969,-3.648763418,17.65579018
25.3545554,5.142745018,-17.08981133,-7.120356083,19.21481065
25.35952894,4.596867085,-16.84560394,-9.169792175,19.72284583
25.36453471,2.669534922,-15.5599165,-8.650250435,18.00178465
25.3695394,1.59693253,-14.20240402,-7.046135426,15.93444376
25.37454494,0.4596867263,-12.79700851,-5.140350819,13.7984762
25.37954986,-0.5793967843,-11.42752457,-3.591302633,11.99255907
25.3845544,-1.465251446,-10.00058079,-2.384624958,10.3848454
25.38955809,-2.023100376,-9.217676163,-1.716642618,9.591941975
25.39453317,-2.559401512,-8.602366447,-1.345541358,9.075336145
25.39954025,-3.167528868,-8.068459511,-1.11569798,8.739454216
25.40454394,-3.550601006,-7.481880188,-0.2873041928,8.286606202
25.40954894,-3.861847401,-7.10599041,0.04548983276,8.087708846
25.41455232,-4.268861771,-6.643909931,-0.3016694188,7.902893421
25.41955809,-4.692635536,-6.325480938,-0.383072257,7.885384057
25.4245314,-4.876988888,-6.212953568,-0.5315127969,7.916332389
25.42953725,-4.446032524,-6.373364925,-0.7302315235,7.805140854
25.43454271,-3.859453201,-6.596025467,-0.806845963,7.68465558
25.43954648,-2.863465309,-6.890512466,-0.6943184733,7.494042552
25.44455171,-2.135627985,-7.048529625,-0.3782838583,7.374671209
25.44955694,-1.391031146,-7.259219646,-0.1197100878,7.392264067
25.45453048,-0.7469909191,-7.469909191,-0.0359130241,7.507251728
25.45953632,-0.07661445439,-7.802703381,-0.05267243832,7.803257282
25.46454032,0.2537853718,-8.070854187,-0.2561795712,8.078906009
25.46954578,0.4788403511,-8.35097599,-0.5243301988,8.381110322
25.4745504,0.672770679,-8.588001251,-0.8714894056,8.658283875
25.47955694,0.8571242094,-8.789113998,-1.142034173,8.904348872
25.4845314,0.8762778044,-8.906430244,-1.211466074,9.031058218
25.48953409,0.7254431248,-9.081207275,-1.453280449,9.225324784
25.49453932,0.6991068721,-9.208099365,-1.707065821,9.391055215
25.49954309,0.6344634295,-9.244012833,-1.831564307,9.445048698
25.50454855,0.4381389022,-9.167398453,-1.702277422,9.334393848
25.50955386,0.2106897533,-9.064447403,-1.541865945,9.197061894
25.5145594,-0.1508347094,-8.937555313,-1.386242747,9.045679358
25.51953386,-0.7038952708,-8.65743351,-1.204283476,8.769089019
25.52453871,-1.127668977,-8.384494781,-1.192312479,8.543594039
25.52954363,-1.520318031,-8.142680168,-1.168370485,8.365386831
25.53454863,-1.78368032,-7.905653954,-1.00317049,8.166225012
25.53955255,-1.977610588,-7.666234016,-0.6177040339,7.941262236
25.54455717,-2.039859772,-7.486668587,-0.181959331,7.76172298
25.54953202,-2.035071373,-7.340622425,0.2681505978,7.622214758
25.55453725,-1.97042799,-7.249642849,0.6200982332,7.538198042
25.55954363,-1.831564307,-7.223306656,1.118092179,7.535311339
25.56454732,-1.63763392,-7.316680431,1.247379065,7.600763904
25.56955202,-1.491587639,-7.481880188,1.201889277,7.723205466
25.57455663,-1.37666595,-7.738059998,1.022324085,7.925776189
25.5795314,-1.247379065,-8.039729118,0.6224924326,8.159699483
25.58453509,-1.182735682,-8.283937454,0.1723825186,8.369719181
25.58954025,-1.082179189,-8.501810074,-0.3998316824,8.579729116
25.59454555,-0.9361328483,-8.724471092,-1.213860273,8.858114772
25.59955048,-0.7900865674,-9.038111687,-2.494758129,9.40933142
25.6045554,-0.6799532771,-9.275136948,-3.536235809,9.949646504
25.60952955,-0.5219359994,-9.550470352,-4.299986362,10.4868386
25.61453471,-0.3447650373,-9.842563629,-4.723760128,10.92285821
25.61954032,-0.2202665508,-10.22084713,-4.824316502,11.30434709
25.62454486,-0.1340752989,-10.46745014,-4.560954094,11.41874734
25.62954955,-0.02154781483,-10.7140522,-4.027047157,11.44589392
25.63455471,0.1244984865,-11.03726959,-3.292027235,11.51843146
25.63956094,0.1532289088,-11.20007515,-2.767697096,11.53799418
25.64453409,0.1316810995,-11.22880554,-2.288856745,11.46046592
25.64953994,0.07900865376,-11.24795914,-1.855506301,11.40025135
25.65454271,0.3519476354,-11.22401714,-1.489193439,11.32784733
25.65954771,0.8834604025,-11.18092155,-1.553836942,11.32289355
25.66455317,1.642422318,-11.05881786,-1.891419291,11.33898014
25.66955755,2.45405674,-10.98699188,-2.284068346,11.48709508
25.67453317,3.459621429,-10.87685871,-2.442085743,11.67213856
25.67953717,4.163516521,-10.85291672,-2.190694571,11.8287706
25.6845424,4.548983097,-11.0133276,-1.764526606,12.04575386
25.68954702,4.685452938,-11.31499767,-1.271321058,12.31255046
25.69455263,4.594472885,-11.80580902,-0.7829039693,12.69248779
25.69955632,4.273650169,-12.21521664,-0.5243301988,12.95185413
25.70453048,3.799597979,-12.54322243,-0.4525041282,13.11389087
25.70953625,3.244143248,-12.8353157,-0.6751648784,13.25615488
25.71454055,2.401384354,-13.14656162,-1.467645645,13.44443056
25.71954802,1.673547029,-13.40992355,-2.351106167,13.71694243
25.72454978,0.8667010069,-13.68525696,-3.220201254,14.0857064
25.72955625,-0.02633621916,-13.88876438,-3.852270603,14.41313493
25.73452925,-1.144428372,-14.02762794,-4.486733913,14.77209678
25.73953471,-1.915361404,-14.05875206,-5.133168221,15.08862269
25.74453848,-2.370259762,-14.08269405,-5.322310448,15.24032124
25.74954455,-2.470816135,-14.17846203,-5.032611847,15.24666848
25.75454955,-1.927332401,-14.42506504,-4.206612587,15.1490165
25.75955378,-1.249773264,-14.71955204,-3.246537447,15.12505044
25.7645584,-0.4309563041,-15.12417221,-2.130839586,15.27961995
25.76953325,0.3854664862,-15.56231117,-1.395819545,15.62953696
25.77453817,1.314416766,-15.94298935,-0.9672574997,16.02629676
25.77954332,1.628057122,-15.86158657,-0.806845963,15.96532176
25.78454832,1.429338455,-15.48809052,-0.8906430602,15.57938385
25.78955232,0.7134721279,-14.90629959,-1.022324085,14.9583407
25.79455848,-0.4189853072,-14.38675785,-0.7781155705,14.41387574
25.79953317,-1.333570361,-14.33169174,-0.2585737705,14.39592507
25.80453694,-2.197877169,-14.55914021,0.5027823448,14.73268535
25.80954217,-2.894589901,-14.89193439,1.213860273,15.2191267
25.81454709,-3.682282209,-15.27979565,2.664746523,15.94152538
25.81955171,-4.42448473,-15.34922695,4.106055737,16.49346922
25.82455602,-5.781997204,-15.16008472,5.331887245,17.07889581
25.82953048,-6.904877663,-14.99249077,5.590460777,17.42714454
25.83453594,-7.943961143,-14.7937727,4.891354084,17.48964191
25.83954148,-8.508993149,-14.62138939,3.921702385,17.36570591
25.84454555,-9.071630478,-14.5974474,2.667140722,17.39234284
25.84955109,-9.437943459,-14.87038708,0.4740519226,17.61896461
25.85455532,-9.002198219,-15.5551281,-1.345541358,18.02254323
25.85952979,-8.42759037,-16.08664131,-2.707842112,18.3612831
25.86453478,-7.637503624,-16.47210693,-3.124433279,18.42345928
25.86953879,-6.64869833,-16.57266426,-3.150769472,18.13244987
25.87454432,-5.925649166,-16.14888954,-3.450044632,17.54430846
25.87955163,-5.231330872,-15.63653088,-3.694253206,16.89720176
25.8845544,-3.936067581,-15.1529026,-3.41892004,16.02473399
25.88955848,-2.559401512,-14.16409683,-3.124433279,14.72868828
25.89408617,-2.190694571,-13.48174953,-3.023876667,13.98930103
25.89953809,-0.3950432837,-13.11304283,-0.06943184882,13.11917575
25.9045434,2.063801765,-13.35964584,3.481169224,13.95915305
25.90954709,4.493916512,-14.04678154,4.647145271,15.46296596
25.91455263,5.61679697,-14.00607967,2.197877169,15.24956852
25.91955725,5.731719017,-13.95101357,-0.09337386489,15.08284128
25.92453202,5.564124584,-13.65173817,-1.108515382,14.78371549
25.92953748,5.365406036,-13.37640476,-1.010353088,14.44771953
25.9340944,4.996698856,-13.08191776,-0.9457096457,14.03559541
25.93909963,4.364629745,-12.44506073,0.1604115069,13.18921003
25.94407356,3.574543238,-11.81777954,0.6224924326,12.36223157
25.94952548,2.33913517,-10.9103775,1.058237195,11.20837885
25.95408394,1.426944256,-10.39322948,1.470039845,10.59322454
25.95953809,0.4932055473,-9.370905876,1.97042799,9.588519965
25.96454156,-0.2202665508,-8.408436775,2.439691544,8.757991847
25.96954617,-0.7733271718,-7.32146883,2.794033289,7.874551591
25.9741034,-1.180341482,-6.555324078,2.892195702,7.261561523
25.97952548,-1.74776721,-5.729324818,2.956839085,6.680026232
25.98452925,-2.214636564,-4.939238071,3.150769472,6.263228888
25.98953479,-2.779668093,-4.031835556,3.217807055,5.859738467
25.99453871,-3.114856482,-3.531447411,2.985569477,5.575578608
25.99954432,-3.416525841,-3.215412855,2.509123325,5.320453788
26.00454956,-3.526659012,-3.076549292,2.085349798,5.12358889
26.00955417,-3.440467834,-3.08373189,1.508347034,4.860178193
26.01455932,-3.435679436,-3.021482468,1.142034173,4.715664485
26.01953448,-3.433285236,-2.999934673,1.00556469,4.668855952
26.02453756,-3.502717018,-3.047818661,0.9552865028,4.740337267
26.02954363,-3.205836058,-3.275267839,0.5937620401,4.621397798
26.0345474,-2.930502892,-3.406949043,0.4740519226,4.518835492
26.03955386,-2.734178305,-3.507505417,0.5434837937,4.480368276
26.04455748,-2.525882721,-3.612850428,0.605733037,4.449683612
26.04953163,-2.48996973,-3.706224203,0.7661445141,4.530234488
26.05453663,-2.597708941,-3.778050184,0.8834604025,4.669288727
26.05909479,-2.664746523,-3.785232782,0.962469101,4.728129442
26.0640994,-2.770091295,-3.672705412,1.063025594,4.721461028
26.06952086,-3.059789658,-3.524264812,1.173158884,4.812385789
26.07455656,-3.270479441,-3.371036053,1.276109457,4.867070493
26.07953102,-3.378218651,-3.256114244,1.323993564,4.875202579
26.08453594,-3.330334663,-3.174711466,1.414973259,4.813737756
26.0895394,-3.19625926,-3.138798475,1.501164436,4.724576573
26.09454494,-3.038241863,-3.086126089,1.48679924,4.578827343
26.0991024,-2.851494312,-3.05021286,1.458068848,4.422757406
26.10452394,-2.624045134,-3.08373189,1.26653266,4.242537001
26.10952956,-2.521094322,-3.126827478,1.017535686,4.143470229
26.11453471,-2.427720547,-3.222595453,0.7230489254,4.098993566
26.11954056,-2.363077164,-3.268085241,0.4189853072,4.054634819
26.12454463,-2.432508945,-3.208230257,-0.09337386489,4.027227313
26.1295504,-2.521094322,-3.220201254,-0.5841852427,4.131208672
26.13455409,-2.597708941,-3.289633036,-1.098938584,4.333294735
26.13955848,-2.643198729,-3.390189648,-1.731007814,4.634250039
26.14408648,-2.604891539,-3.596091032,-2.614468336,5.152938513
26.14953748,-2.382230759,-3.94085598,-3.871424198,6.016086316
26.15409594,-2.123656988,-4.268861771,-4.639962673,6.652995824
26.15910094,-1.838746905,-4.589684486,-5.319916248,7.262761373
26.16407471,-1.625662923,-4.886565685,-6.253654957,8.101203889
26.16952802,-1.89620769,-5.532999992,-7.903259754,9.832151711
26.17453225,-2.226607561,-6.210559368,-9.172186852,11.29857693
26.17953625,-2.49236393,-7.038952827,-10.26394272,12.69280328
26.18454117,-2.612074137,-8.204929352,-11.18331623,14.11418998
26.18954648,-2.226607561,-9.296685219,-11.15697956,14.69232215
26.19455132,-1.568202138,-10.42435455,-10.44829655,14.84228172
26.19910956,-1.750161409,-11.78904915,-9.050082207,14.96491673
26.20408394,-2.693476915,-13.53442192,-8.192957878,16.04867451
26.20953602,-2.992752075,-16.35479164,-8.856152534,18.83791953
26.21454117,-2.782062292,-18.87349129,-10.78108978,21.91301989
26.21954556,-2.442085743,-21.60527611,-14.7985611,26.30112448
26.22410279,-1.170764685,-24.24129295,-20.77927589,31.94979312
26.22907725,1.170764685,-25.46233559,-22.02426147,33.68633724
26.23452917,3.414131641,-24.53338432,-18.167202,30.71791773
26.2390874,4.079719543,-21.66991997,-14.59984207,26.44588685
26.24454033,3.38300705,-16.22550583,-11.79623222,20.3436199
26.24954456,3.117250681,-11.70525169,-11.83693314,16.93644458
26.25454917,2.887407303,-7.893682957,-13.07473564,15.54336076
26.25955348,1.953668594,-4.94402647,-13.12980175,14.16516547
26.26455909,1.424550056,-2.655169725,-11.72201157,12.10309152
26.26953317,1.144428372,-1.750161409,-10.07480049,10.28952799
26.27453786,0.1460463107,-1.845929503,-8.655038834,8.850902918
26.27909656,-0.6129156351,-3.371036053,-6.993463039,7.787687393
26.28454863,-3.064578056,-5.568912983,-5.015852451,8.097110984
26.28955294,-3.773261786,-7.915230751,-2.351106167,9.078330383
26.2941104,-3.971980572,-10.48181534,1.036689281,11.25698926
26.2995314,-5.87297678,-13.51526833,5.801150799,15.83690894
26.30453725,-7.608773232,-16.01242065,8.010998726,19.45423208
26.30954179,-8.47786808,-18.77054214,8.075642586,22.12291804
26.31454617,-8.03494072,-21.78244781,6.488286495,24.10670377
26.31955202,-6.560112476,-25.5916214,1.78128612,26.47903212
26.32455656,-4.726154327,-27.94272804,-2.762908697,28.47395739
26.32953109,-1.740584612,-27.48064804,-5.231330872,28.02824422
26.33453571,1.702277422,-23.61879921,-5.518634796,24.31462018
26.33954117,3.371036053,-17.82243729,-5.27682066,18.89042062
26.34454586,2.11647439,-12.49773312,0.7062895298,12.69533937
26.34955132,-0.8978256583,-6.617573261,9.404424667,11.53436475
26.35455509,-3.818751812,-2.418143749,10.46745014,11.40165765
26.35953194,-6.382941723,-0.1891419291,5.899312973,8.69365362
26.36453479,-9.090784073,0.8499416113,0.2202665508,9.133086727
26.36953963,-10.91277122,1.513135433,-6.311115742,12.6967845
26.37409656,-10.36928749,1.407790542,-5.470750809,11.80817986
26.37954894,-7.905653954,0.5243301988,0.3447650373,7.930520129
26.38455509,-5.916072369,-0.4836287498,3.222595453,6.754178743
26.38955871,-4.278438568,-1.991975784,3.8642416,6.099620255
26.39408586,-2.870647907,-4.027047157,4.795586109,6.88878613
26.39909163,-1.82198751,-6.256049156,8.28633213,10.54139885
26.4040954,-2.288856745,-8.667010307,13.15613842,15.9197962
26.40910032,-3.045424461,-10.3405571,14.81292629,18.32005777
26.41452217,-3.600879431,-11.81777954,15.10741234,19.51563869
26.41955786,-3.27287364,-13.48174953,13.55597019,19.396742
26.42408433,-2.56658411,-14.61660099,11.35809326,18.68792822
26.42908948,-1.491587639,-15.82327938,8.844181061,18.1884728
26.43454217,-0.07661445439,-16.90545845,5.078101635,17.65184159
26.43910063,2.135627985,-17.6955452,-1.582567334,17.89407014
26.44452186,5.102043629,-18.5311203,-11.39161205,22.34283093
26.44955748,5.377377033,-18.68674469,-13.72116947,23.79876263
26.4545314,4.168305397,-17.88708115,-11.8728466,21.86977202
26.4595354,3.062183857,-15.92383575,-8.027758598,18.09393333
26.46454063,2.671929121,-14.13297272,-5.133168221,15.27185447
26.46954517,2.293645144,-12.53125191,-2.578555346,12.9977702
26.47455109,1.484405041,-11.22401714,-1.268926859,11.39263773
26.47955571,0.5291185975,-9.823410034,-0.9504981041,9.883460823
26.48453048,-0.1795651317,-8.860940933,-0.5434837937,8.879408341
26.48953502,-1.144428372,-8.0229702,-0.3423708379,8.111410784
26.49453902,-2.092532396,-7.125144482,0.2753331959,7.431163037
26.49954394,-2.7533319,-6.303933144,0.2346317619,6.882983488
26.50454925,-3.220201254,-5.963956356,0.04309562966,6.777929534
26.50955379,-3.622427225,-5.882553577,0.2944868207,6.914704482
26.5145594,-3.993528366,-5.68383503,-0.1197100878,6.947559281
26.5195354,-4.292803764,-5.470750809,-0.4764461517,6.970242428
26.52453871,-3.938461781,-5.631162167,-0.8451532125,6.923565013
26.52909594,-3.526659012,-5.908889771,-0.825999558,6.930698188
26.5345474,-2.590526342,-6.440402508,-0.7709329724,6.984550726
26.53910486,-1.987187386,-6.766014099,-0.7422025204,7.090749261
26.54452702,-0.9959878922,-7.28555584,-0.5506663918,7.373910038
26.54953286,-0.2944868207,-7.735665798,-0.5003881454,7.757424581
26.55453694,0.4141969085,-8.250418663,-0.5650315881,8.280110379
26.55954186,0.8140285611,-8.645462036,-0.7565677166,8.716596298
26.56454617,1.137245774,-8.975862503,-0.9768342972,9.100200046
26.5695514,1.419761658,-9.181763649,-1.285686255,9.379418746
26.57455656,1.544260144,-9.380482674,-1.707065821,9.65879228
26.57908333,1.37666595,-9.464279175,-1.82198751,9.73588352
26.58408917,1.244984865,-9.528923035,-1.953668594,9.806486756
26.58954086,1.113303781,-9.576807022,-2.042253971,9.855225991
26.59454548,0.7637503147,-9.507374763,-2.032677174,9.752192878
26.59955379,0.4261679053,-9.351752281,-1.865083098,9.545439999
26.60455502,0.1221042871,-9.282320023,-1.766920805,9.449782198
26.6095301,-0.3399766386,-9.141061783,-1.678335428,9.300075507
26.6140874,-0.758961916,-8.887276649,-1.541865945,9.051909192
26.61953879,-1.197100878,-8.595184326,-1.295263171,8.774277793
26.62409748,-1.517923832,-8.305485725,-1.015141487,8.503863718
26.6291024,-1.699883223,-8.104372978,-0.653617084,8.306484192
26.63452371,-1.802833915,-7.922413349,-0.3112462163,8.130911241
26.6391114,-1.874659896,-7.829039574,-0.06943184882,8.050654082
26.64408617,-1.855506301,-7.663839817,0.05985504389,7.885488381
26.64909048,-1.726219416,-7.467514992,-0.08619125932,7.664922867
26.65454302,-1.426944256,-7.405265808,-0.2202665508,7.544709998
26.65954771,-1.156399369,-7.472303391,-0.2130839527,7.564256886
26.66455286,-0.9145850539,-7.577648163,-0.1364694983,7.633861502
26.66955756,-0.6512228847,-7.824251175,0.0023942017,7.851305842
26.67453263,-0.423773706,-8.166622162,0.1364694983,8.178748414
26.67953817,-0.2418143749,-8.432378769,0.1508347094,8.437193669
26.68409479,-0.09576806426,-8.789113998,-0.08379705995,8.790035173
26.68954733,-0.05506663769,-9.050082207,-0.5817909837,9.068930534
26.69455263,0.0023942017,-9.251194954,-1.314416766,9.344105374
26.69955756,0.1149216816,-9.370905876,-2.26970315,9.642543042
26.70453071,0.3303998411,-9.497797966,-3.239354849,10.04045567
26.7095351,0.6607996821,-9.684545517,-4.252102375,10.59752106
26.71454033,0.9864110947,-9.835380554,-4.812345505,10.99392499
26.71954525,1.386242747,-10.06522369,-4.886565685,11.27425923
26.7245504,1.829170108,-10.3501339,-4.558559895,11.45650921
26.7295554,2.264914751,-10.68532181,-3.617638826,11.50622665
26.73452979,2.49236393,-10.89122391,-2.693476915,11.4928436
26.73953471,2.487575531,-11.00135708,-1.817199111,11.42453947
26.74453971,2.298433542,-11.02051067,-1.096544385,11.31091782
26.74954456,2.252943754,-11.10670185,-0.873883605,11.36654099
26.75454986,2.346317768,-11.15458584,-1.292868972,11.47176981
26.75955563,2.387019157,-11.12106705,-1.82198751,11.51935898
26.76455871,2.401384354,-11.09712505,-2.221819162,11.56932633
26.76953325,2.506729126,-11.08275986,-2.437297344,11.62117358
26.77453817,2.540247917,-11.05163479,-2.312798738,11.57326786
26.77954425,2.497152328,-11.12346077,-2.066195965,11.58603966
26.78454771,2.33913517,-11.24317074,-1.735796213,11.61436309
26.78955356,2.114080191,-11.46343803,-1.41257906,11.74202394
26.7945584,1.912967205,-11.67412758,-1.302445769,11.90130511
26.79953202,1.697489023,-11.8728466,-1.261744261,12.05976592
26.80453686,1.436521053,-12.02846909,-1.357512355,12.18977035
26.80954217,1.091755986,-12.23197651,-1.675941229,12.3944326
26.8145471,0.806845963,-12.39478207,-2.138022184,12.60368048
26.81955171,0.4046200812,-12.53843403,-2.681505919,12.82834827
26.82410979,-0.248996973,-12.66053867,-3.258508444,13.07551591
26.82908371,-0.9935936928,-12.85686302,-3.952826977,13.48743846
26.83408771,-1.889025092,-13.02685165,-4.572925091,13.93480978
26.83954248,-2.322375536,-13.13937855,-4.781220913,14.17380578
26.84454556,-2.444479942,-13.26387787,-4.718971729,14.28896891
26.84910333,-2.15478158,-13.50090313,-4.419696331,14.36840926
26.85452463,-1.470039845,-13.77863121,-3.569754839,14.30925731
26.85952987,-0.6799532771,-13.97734928,-2.731784105,14.25802489
26.86453379,0.2274491638,-14.25986576,-1.958456993,14.39552217
26.86909317,1.039083481,-14.59505367,-1.362300754,14.69527644
26.87409633,1.843535304,-15.00685596,-1.012747288,15.15354762
26.87910179,2.202665567,-15.03319263,-0.6105214357,15.20596438
26.88452402,2.173935175,-14.78180122,-0.2944868207,14.9437065
26.88955879,1.414973259,-14.31253815,-0.4764461517,14.39020147
26.89408648,0.4022258818,-13.98932076,-0.6631938815,14.01080679
26.8995384,-0.5027823448,-13.95819569,-0.4668693244,13.97504862
26.9045434,-1.086967587,-14.27423096,0.3303998411,14.31936912
26.90910217,-1.59932673,-14.69800377,0.7637503147,14.80447484
26.91452217,-2.49236393,-15.27261257,1.460463047,15.54340777
26.91955994,-3.373430252,-15.63413715,1.968033791,16.11457208
26.92453256,-4.809951305,-15.89510536,2.906560898,16.85936245
26.92953725,-5.980715752,-16.08424759,3.500322819,17.51354451
26.93454125,-7.127538681,-16.09861183,3.967192173,18.04731903
26.93954702,-8.037335396,-16.00045013,4.13239193,18.3763388
26.94455163,-9.184157372,-15.86637497,3.361459255,18.63840148
26.94955571,-10.11310768,-15.88552856,2.217030764,18.96154504
26.95453102,-10.75475407,-16.25184059,0.6512228847,19.49900379
26.9595354,-10.55603504,-16.8120842,-1.091755986,19.88134759
26.96454117,-9.473855972,-17.13290787,-2.396595955,19.72394867
26.96954487,-8.50420475,-17.06108093,-2.86107111,19.27661041
26.9745501,-7.503427982,-16.83123779,-3.038241863,18.67680141
26.9795551,-6.497863293,-16.28536034,-2.920926094,17.77546055
26.9840821,-5.252878666,-15.63892555,-2.863465309,16.74419781
26.98953533,-3.962403774,-14.55195808,-3.454833031,15.47242706
26.99409325,-4.050989151,-13.517663,-3.943250179,14.65219943
26.9990981,-2.762908697,-13.13937855,-2.748543501,13.7051605
27.0045191,-1.233013868,-12.75391293,-1.458068848,12.8960685
27.00955417,0.1651999205,-12.60547161,1.640028119,12.71278482
27.01455933,2.71502471,-13.03403378,3.579331636,13.7865518
27.01908648,4.283226967,-13.03642845,1.616086125,13.81688222
27.02409163,4.5394063,-12.73236465,-0.323217243,13.52123473
27.0290951,4.453215122,-12.49533844,-0.7326257229,13.28538099
27.03410094,4.730942726,-12.45703125,-0.5770025849,13.33763017
27.03952156,5.13556242,-12.27746677,-0.08379705995,13.30853913
27.04455717,5.054159641,-11.84650993,0.4405331016,12.88714075
27.04953194,4.204218388,-11.21444035,0.4979939461,11.98695635
27.05453656,2.873042107,-10.42435455,0.6009446383,10.82971252
27.05954094,1.702277422,-9.672574997,1.055842996,9.877816557
27.06454671,0.787692368,-8.655038834,1.89620769,8.895266161
27.06955225,0.1675941199,-7.697358608,2.403778553,8.065703234
27.07455779,-0.4381389022,-6.696582317,2.669534922,7.222367834
27.07953256,-1.065419793,-5.736507416,2.856282711,6.496228721
27.08453625,-1.833958507,-4.620809078,2.961627483,5.78675364
27.08954094,-2.343923569,-3.866635799,3.023876667,5.439547794
27.09454617,-2.796427488,-3.258508444,2.913743496,5.189198892
27.0995501,-3.062183857,-2.78924489,2.640804529,4.912301456
27.1045551,-3.184288263,-2.372653961,2.202665567,4.541025673
27.10952956,-3.330334663,-2.272097349,1.606509328,4.339864924
27.11453471,-3.191470861,-2.329558372,0.9552865028,4.06508312
27.11953933,-3.004723072,-2.341529369,0.7517793179,3.882820195
27.12454433,-3.035847664,-2.45405674,0.7278373241,3.970958661
27.1291024,-3.08133769,-2.588132143,0.6464344859,4.075653015
27.1345234,-2.980781078,-2.825158119,0.3998316824,4.126310654
27.13955871,-2.710236311,-3.177105665,0.1795651317,4.179907284
27.14453287,-2.511517525,-3.409343243,0.1987187415,4.239201666
27.14953848,-2.406172752,-3.574543238,0.2346317619,4.315330664
27.15409602,-2.243366957,-3.672705412,0.2992752194,4.314049838
27.15954925,-2.264914751,-3.744531393,0.517147541,4.406676272
27.16455294,-2.422932148,-3.758896589,0.6320692301,4.516571186
27.16955748,-2.602497339,-3.701435804,0.7805097699,4.591602652
27.17453194,-2.748543501,-3.581725836,0.8762778044,4.599034043
27.17953687,-2.913743496,-3.426102638,1.007958889,4.60912807
27.18409479,-2.911349297,-3.356670856,1.070208192,4.570398182
27.18954702,-2.827552319,-3.224989653,1.156399369,4.442169501
27.19455102,-2.688688517,-3.138798475,1.216254473,4.308175571
27.19955717,-2.501940727,-3.112462282,1.204283476,4.171022363
27.20453071,-2.346317768,-3.098097086,1.122880578,4.045277916
27.2095354,-2.233790159,-3.124433279,1.029506683,3.976403627
27.21453994,-2.164358377,-3.126827478,0.8331822157,3.893030936
27.2190984,-2.118868589,-3.112462282,0.5674257874,3.807754927
27.22407294,-2.164358377,-3.117250681,0.1675941199,3.798655918
27.22952487,-2.212242365,-3.093308687,-0.2059013397,3.808539126
27.23452894,-2.26730895,-3.124433279,-0.6799532771,3.919835411
27.23908864,-2.30561614,-3.217807055,-1.268926859,4.156960837
27.24409171,-2.245761156,-3.485957623,-2.248155355,4.716942465
27.24954486,-2.063801765,-3.830722809,-2.928108692,5.244762671
27.25454979,-1.831564307,-4.223371983,-3.610456228,5.850375449
27.25955448,-1.41018486,-4.695029736,-4.558559895,6.694205993
27.2645591,-1.252167463,-5.09725523,-5.501875401,7.603983637
27.26953356,-1.434126854,-5.583278179,-6.897695065,8.989322125
27.2745381,-2.090138197,-6.162675381,-8.58081913,10.76929443
27.27954364,-2.662352324,-6.988674641,-9.979032516,12.47039627
27.28454825,-2.97599268,-7.903259754,-10.77390766,13.68923422
27.28910525,-3.102885485,-9.047688484,-10.73799419,14.38030196
27.29452733,-3.062183857,-10.15141487,-10.47702694,14.90624994
27.29953225,-2.703053713,-11.5927248,-9.940725327,15.50857143
27.30453717,-3.141192675,-13.13698483,-9.696516991,16.62738414
27.30954156,-3.385401249,-15.21515179,-9.871294022,18.45004692
27.31409848,-3.268085241,-17.63568878,-10.52251625,20.79474088
27.31952248,-2.609679937,-21.35149002,-13.00530338,25.13631778
27.32455725,-1.697489023,-24.48789406,-18.17677879,30.54396359
27.32953164,0.5363011956,-26.7695694,-21.55978584,34.37618115
27.33453602,4.632780075,-27.02335548,-18.25099945,32.93665699
27.33927839,6.409277916,-25.06968689,-14.5974474,29.70948526
27.34407931,6.177040577,-21.34191322,-12.2607069,25.37632803
27.34924508,4.999093056,-16.35718536,-11.23598862,20.46450304
27.35424854,4.010287762,-11.21683502,-12.21042824,17.05855661
27.35922416,2.758120298,-6.035782337,-13.96059036,15.45755412
27.36422939,1.352723956,-3.236960649,-13.62300777,14.06748439
27.36923408,1.254561663,-1.833958507,-11.51132202,11.72381608
27.37423808,1.280897856,-1.328781962,-9.114726067,9.299709248
27.379243,0.2968810201,-1.651999116,-6.710947514,6.917662607
27.38424939,-1.556231141,-2.671929121,-5.307945251,6.142910009
27.38922293,-3.435679436,-4.170699596,-3.462015629,6.417490204
27.39422762,-5.209783077,-5.853823185,-1.223437071,7.931322958
27.39923439,-6.409277916,-7.723694801,0.988805294,10.08523875
27.40423831,-7.184999466,-10.10113716,4.321534157,13.12756058
27.40924239,-7.757213593,-12.19127464,6.512228489,15.8496265
27.41424854,-8.152256966,-14.34126854,6.689399719,17.80110518
27.41925223,-7.884106159,-16.75222969,5.329493046,19.2665468
27.42422846,-6.591237068,-20.03228569,2.032677174,21.18652054
27.42923093,-5.27682066,-22.91250992,-1.982398987,23.59571683
27.43423616,-3.56496644,-25.26840401,-5.686229229,26.14449138
27.4387937,-1.601720929,-25.72090912,-8.164227486,27.03304064
27.44421777,1.089361787,-23.71456718,-9.205705643,25.46197994
27.44925123,1.788468719,-18.85194397,-7.900865555,20.51872531
27.45377839,1.165976286,-14.51365089,-4.079719543,15.12116644
27.45878239,-0.2513911724,-9.674968719,3.835511208,10.41054098
27.46423493,-2.808398485,-5.334281445,8.279149055,10.24138514
27.46923962,-5.705382824,-2.054224968,7.438784599,9.597226146
27.47424508,-8.47786808,-0.6440402865,4.12999773,9.452296881
27.47925193,-10.16578007,-0.0359130241,-0.2801215947,10.16970217
27.48422446,-10.68532181,0.3998316824,-3.363853455,11.20943699
27.48922916,-9.414001465,0.4213795066,-1.522712231,9.545660627
27.49378539,-8.214506149,-0.1125274822,2.011129379,8.457861142
27.49923862,-6.24168396,-1.26413846,4.525041103,7.812340347
27.50424446,-4.355052948,-2.724601507,5.032611847,7.191461712
27.50924877,-2.018311977,-4.687847137,6.411672115,8.195061521
27.51425316,-1.00556469,-7.249642849,11.03248119,13.23949104
27.51922762,-1.039083481,-9.083600998,14.78180122,17.38082705
27.52423316,-1.101332784,-10.79306126,16.2135334,19.50850508
27.52923777,-1.058237195,-12.23197651,15.39232254,19.68920284
27.53424208,-1.046266198,-13.29260826,12.69166279,18.40832452
27.53924731,-0.8331822157,-14.25507736,10.22324085,17.56177886
27.54425316,-0.09097966552,-15.04755783,7.134721279,16.65357384
27.54922631,1.355118155,-15.74427032,2.679111719,16.02797657
27.55423131,3.945644379,-16.5080204,-4.616020679,17.58949954
27.55923862,6.382941723,-17.2933197,-11.84411621,21.91081788
27.56424323,5.839457989,-17.25979996,-12.71321106,22.21768889
27.56924608,4.259284973,-16.50323296,-10.80263805,20.17907816
27.57380362,3.42131424,-15.21754646,-7.735665798,17.41033132
27.57922477,2.597708941,-13.87200451,-4.007893562,14.67118985
27.58423,1.666364431,-12.40435886,-2.384624958,12.74093111
27.58923554,0.5003881454,-11.33893967,-1.788468719,11.49002008
27.59379316,-0.2106897533,-10.42435455,-0.7038952708,10.45021658
27.59921346,-1.125274777,-9.461885452,0.6081272364,9.547949433
27.60425093,-2.027888775,-8.463502884,1.209071875,8.786641494
27.60922446,-3.026270866,-7.520187378,0.940921247,8.160690311
27.61422916,-4.039018154,-6.64869833,0.4668693244,7.793383354
27.6192337,-4.738125324,-6.112396717,0.0,7.733771733
27.62423954,-5.023035049,-5.865794182,-0.01675941236,7.722609881
27.62924362,-5.061342239,-5.746084213,-0.0143652102,7.657341275
27.63424762,-4.951209068,-5.784391403,-0.2992752194,7.619922624
27.63925439,-4.529829502,-5.968744755,-0.5889736414,7.51612661
27.64422916,-3.761290789,-6.306327343,-0.6751648784,7.373799602
27.64923185,-2.657563925,-6.789956093,-0.5243301988,7.310340068
27.6542377,-1.74776721,-7.261613846,-0.3064578176,7.475268708
27.65924231,-0.9145850539,-7.694964409,-0.2226607651,7.75232358
27.66424754,-0.174776718,-8.080430984,-0.4309563041,8.093802267
27.66925223,0.5363011956,-8.532935143,-0.787692368,8.585980456
27.67422577,0.8044517636,-8.801085472,-1.086967587,8.904366719
27.679231,0.9792284966,-9.006986618,-1.309628367,9.154224317
27.68423708,1.108515382,-9.172186852,-1.589749932,9.374706547
27.68924116,1.15400517,-9.30386734,-1.766920805,9.540214072
27.69424723,1.213860273,-9.457097054,-1.850717902,9.712636007
27.6992507,1.161187768,-9.581595421,-1.802833915,9.818632184
27.703778,1.019929886,-9.679757118,-1.587355733,9.86192948
27.70923039,0.9911994934,-9.739612579,-1.321599364,9.878722312
27.7142347,0.9050082564,-9.763554573,-1.204283476,9.879085815
27.71924239,0.7038952708,-9.54807663,-1.079784989,9.634685854
27.72424608,0.4141969085,-9.25358963,-0.8212111592,9.29918641
27.72880239,0.1053448766,-8.911218643,-0.5913678408,8.931440599
27.73422362,-0.2059013397,-8.604761124,-0.390254885,8.616066866
27.73922885,-0.6631938815,-8.204929352,-0.03830722719,8.231777404
27.744235,-0.8355764151,-7.864952564,0.1125274822,7.910014489
27.74879131,-0.8786720037,-7.608773232,0.1963245422,7.661856035
27.75421339,-0.8427590132,-7.299921036,0.08619125932,7.348912764
27.75924762,-0.7613561153,-7.065289021,0.05506663769,7.106405872
27.764254,-0.6799532771,-7.058106422,0.1580173075,7.092543422
27.76922793,-0.5363011956,-7.161057472,0.2513911724,7.185510463
27.77423162,-0.423773706,-7.383718014,0.1580173075,7.397556714
27.77923685,-0.2561795712,-7.668628216,-0.09816227108,7.6735339
27.78424385,-0.0191536136,-8.058882713,-0.3950432837,8.068582071
27.78924577,0.1604115069,-8.420407295,-0.5937620401,8.44283982
27.79425193,0.4501099288,-8.74601841,-0.7278373241,8.787786077
27.79922854,0.758961916,-9.090784073,-0.9121908545,9.167904363
27.80423193,1.182735682,-9.583989143,-1.391031146,9.756366088
27.80923623,1.489193439,-9.921571732,-1.867477298,10.20503573
27.81424139,1.666364431,-10.15859795,-2.274491549,10.54263698
27.81924477,1.826775908,-10.28788471,-2.827552319,10.82463552
27.82425285,1.893813491,-10.46984386,-3.325546265,11.14735027
27.8287787,1.826775908,-10.63743782,-3.56496644,11.36666967
27.83422939,1.608903527,-10.75475407,-3.744531393,11.50107912
27.839234,1.369483352,-10.76911926,-3.696647406,11.46798223
27.84424108,1.067813993,-10.74757099,-3.339911461,11.30511024
27.84924454,0.7900865674,-10.67095661,-2.691082716,11.03338017
27.85424916,0.5027823448,-10.61828423,-2.30801034,10.87785189
27.85922393,0.1843535304,-10.64701462,-2.099714994,10.8536496
27.8642297,-0.07422025502,-10.67574501,-2.099714994,10.88052587
27.86923408,-0.2035071403,-10.88643551,-2.446874142,11.15988738
27.87423831,0.004788403399,-11.10430717,-2.662352324,11.41900962
27.87924416,0.5363011956,-11.19528675,-2.741360903,11.53850614
27.88424854,1.000776291,-11.288661,-2.633621931,11.63492092
27.88925339,1.572990537,-11.37724686,-2.094926596,11.67496307
27.89422762,2.243366957,-11.52089882,-1.199495077,11.79841487
27.89923254,2.657563925,-11.64539719,-0.3734954596,11.95062427
27.90423831,2.971204281,-11.81777954,0.2513911724,12.18815678
27.90924231,3.088520288,-12.01889229,0.5243301988,12.42045295
27.91424731,3.074155092,-12.23197651,0.3064578176,12.61608478
27.91925247,2.892195702,-12.45463753,-0.1795651317,12.78729978
27.92422639,2.509123325,-12.58871269,-0.962469101,12.87236318
27.929231,2.039859772,-12.71321106,-1.910573006,13.01679886
27.93423646,1.527500629,-12.84728622,-2.932897091,13.26604338
27.9392417,0.7661445141,-13.08670616,-3.969586372,13.69695118
27.94424693,0.0191536136,-13.30936718,-4.412513733,14.02176519
27.949251,-0.7445967197,-13.55836391,-4.618414879,14.34271286
27.95422454,-1.426944256,-13.69722748,-4.707000732,14.55355855
27.95923124,-2.056619167,-13.81933212,-4.541800499,14.69120739
27.96423593,-2.286462545,-13.93425369,-4.297592163,14.76010282
27.96924047,-2.157175779,-14.14733791,-3.857059002,14.82152089
27.97424508,-1.640028119,-14.36521053,-2.93768549,14.75394733
27.97924977,-0.8834604025,-14.57590008,-1.89860189,14.72555787
27.98422485,0.1723825186,-14.81532001,-0.7852981687,14.83711953
27.98922908,0.8020575643,-14.98770237,-0.3663128614,15.01361728
27.99423308,1.256955862,-15.05713463,-0.490811348,15.11747787
27.9992387,1.429338455,-14.89432907,-0.9097966552,14.99038948
28.00424416,1.242590666,-14.46576691,-1.436521053,14.58992928
28.00924908,0.5530605912,-14.22634697,-2.059013367,14.38521325
28.01425285,-0.4740519226,-14.15930843,-2.300827742,14.35285856
28.01922762,-1.441309452,-14.31014347,-1.704671621,14.48321388
28.02423408,-2.394201756,-14.39154625,-0.4525041282,14.59635453
28.02923716,-3.320757866,-14.71476364,1.48679924,15.15791126
28.03424231,-4.086902142,-14.92305946,2.901772499,15.74232373
28.03924854,-4.826710701,-14.87038708,4.158728123,16.17778006
28.04425339,-5.489904404,-14.60223579,5.173870087,16.43573157
28.049227,-6.426037312,-14.26944256,6.229712963,16.84399804
28.05423154,-7.216124058,-13.96059036,6.227318764,16.90414235
28.05923593,-8.010998726,-13.63976669,5.231330872,16.6609171
28.06379408,-8.791508675,-13.39795303,3.739742994,16.45543825
28.06921524,-9.26556015,-13.47696114,1.731007814,16.44613859
28.0742507,-8.58081913,-13.98692608,-0.9528923035,16.43692678
28.07922393,-7.575253963,-14.67406178,-2.798821688,16.74950639
28.08423062,-6.816292286,-15.36359215,-4.115632534,17.30434152
28.0892347,-6.306327343,-15.84243298,-4.819528103,17.71948922
28.09379216,-5.746084213,-16.0363636,-4.979939461,17.74773897
28.09876639,-5.193023682,-15.98847866,-4.783615112,17.47804103
28.10377254,-4.802768707,-15.69878101,-4.039018154,16.90656619
28.10922354,-4.254496574,-15.157691,-3.150769472,16.05564343
28.11422908,-3.220201254,-14.54477501,-1.742978811,14.99860498
28.11923554,-2.104503393,-13.57033539,1.793257117,13.84914106
28.12423985,1.541865945,-14.08508873,4.764461517,14.9488183
28.12924293,1.910573006,-13.81215,4.436455727,14.63242688
28.13424824,3.588908434,-14.00368595,4.261679173,15.07134345
28.1392537,5.961562157,-14.45858383,2.717418909,15.87372783
28.14422877,6.653486729,-14.49689102,0.2633621991,15.95299641
28.14923285,5.786785603,-14.15212631,-1.295263171,15.34429123
28.15379008,4.450820923,-13.57991219,-1.419761658,14.36104262
28.15879531,3.682282209,-12.96939087,-0.6344634295,13.49691986
28.16421808,2.839523315,-11.9757967,0.323217243,12.31207004
28.16925193,2.075772762,-11.12346077,0.8714894056,11.34899581
28.1742257,1.367089152,-10.26394272,1.199495077,10.42383045
28.17923093,0.6560112834,-9.402029991,1.405396342,9.529095321
28.1842377,0.3256114423,-8.331821442,1.838746905,8.538516354
28.18924147,-0.1436520964,-7.414842606,2.090138197,7.705141431
28.1942467,-0.8690952063,-6.43082571,2.19308877,6.849852856
28.199254,-1.527500629,-5.5042696,2.353500366,6.178123176
28.20422639,-1.939303398,-4.687847137,2.624045134,5.711604093
28.20923031,-2.410961151,-3.909731388,2.870647907,5.416581266
28.21423524,-2.767697096,-3.524264812,2.827552319,5.298645279
28.21923993,-2.995146275,-3.289633036,2.389413357,5.049938901
28.22424485,-3.229778051,-3.270479441,1.661576033,4.887569636
28.22924908,-3.366247654,-3.282450438,0.988805294,4.804564502
28.23425408,-3.387795448,-3.315969467,0.6823474765,4.789405974
28.23922916,-3.375824451,-3.354276657,0.490811348,4.784167472
28.2442347,-3.311181068,-3.282450438,0.3471592367,4.675352444
28.24923777,-3.325546265,-3.241749048,0.2585737705,4.65134983
28.25424239,-3.248931646,-3.387795448,0.2059013397,4.698415712
28.25924908,-3.021482468,-3.514688015,0.2322375625,4.640724343
28.26380631,-2.86107111,-3.562572241,0.3878606856,4.585638972
28.26922754,-2.741360903,-3.560178041,0.7015010715,4.547750107
28.27423247,-2.67432332,-3.481169224,1.086967587,4.522393495
28.27924024,-2.647987127,-3.335123062,1.26653266,4.442857936
28.28424354,-2.583343744,-3.078943491,1.45088625,4.273011682
28.28924662,-2.573766708,-2.894589901,1.668758631,4.217544443
28.29425254,-2.552218914,-2.700659513,1.82198751,4.1384806
28.29922701,-2.437297344,-2.535459518,1.872265697,3.984263063
28.30423154,-2.276885748,-2.504334927,1.934514999,3.898493352
28.30923593,-2.070984364,-2.542642117,1.824381709,3.752648903
28.31424054,-1.831564307,-2.573766708,1.59932673,3.540727167
28.31924631,-1.714248419,-2.679111719,1.213860273,3.404371309
28.32380354,-1.745373011,-2.731784105,0.9983820915,3.392010929
28.32922516,-1.829170108,-2.7533319,0.5506663918,3.351109265
28.33378231,-1.924938202,-2.726995707,0.1604115069,3.341799592
28.33878785,-1.905784607,-2.734178305,-0.2753331959,3.344182163
28.34379216,-1.929726601,-2.767697096,-0.8044517636,3.468592598
28.34921431,-1.872265697,-2.932897091,-1.733402014,3.887408742
28.35424885,-1.723825216,-3.193865061,-2.542642117,4.431407941
28.35922477,-1.522712231,-3.502717018,-3.402160645,5.114917018
28.36422939,-1.256955862,-3.993528366,-4.690241337,6.287016037
28.36923408,-1.30005157,-4.584896088,-5.68383503,7.417370617
28.37423831,-1.118092179,-5.207388878,-6.701370716,8.560105053
28.37924362,-1.089361787,-5.748478413,-7.65426302,9.634285419
28.38424916,-1.326387763,-6.617573261,-8.789113998,11.08152089
28.3892537,-1.235408068,-7.443572998,-9.756371498,12.33368545
28.394227,-0.691924274,-8.329427719,-10.36928749,13.31841764
28.39923277,-0.1149216816,-9.21528244,-10.31182671,13.82998219
28.40423931,-0.1651999205,-10.46026707,-9.574412346,14.18146149
28.40924208,-1.814804912,-12.68687439,-8.307879448,15.27321707
28.41424693,-2.437297344,-14.91827106,-8.221688271,17.20730624
28.41925216,-3.01190567,-17.44654846,-9.126696587,19.9185898
28.42422693,-3.837905407,-20.03228569,-12.01649857,23.67315411
28.42923193,-4.967968464,-23.05137444,-20.68829727,31.3696066
28.43378847,-4.49870491,-24.31072426,-23.37459183,34.02383287
28.43879554,-2.126051188,-24.18622589,-20.47760773,31.76202189
28.44421616,-1.422155857,-21.86624336,-16.94137192,27.69774735
28.44925093,-0.5913678408,-18.461689,-14.2095871,23.30442108
28.45422577,0.1388636976,-13.55357552,-12.14817905,18.2015644
28.45923008,0.6751648784,-9.555258751,-11.74595356,15.15672268
28.46423593,0.9744400978,-5.853823185,-11.14500904,12.62648035
28.46924077,0.720654726,-2.97359848,-10.14902115,10.60020101
28.47424508,-0.2992752194,-0.7134721279,-8.671798706,8.706244939
28.4792497,-1.719036818,-0.02633621916,-7.261613846,7.462360004
28.4842257,-2.602497339,-1.027112484,-5.7963624,6.436285383
28.48922939,-2.8993783,-3.227383852,-4.343081951,6.138791566
28.49423462,-2.829946518,-5.849034786,-2.432508945,6.938076462
28.49923831,-4.074931145,-8.561665535,0.6967126727,9.507501728
28.50424416,-5.564124584,-10.723629,3.600879431,12.60642828
28.50924762,-6.818686485,-12.9574194,6.270414352,15.92819195
28.51425339,-7.364564419,-15.15529633,7.893682957,18.6072579
28.51922854,-7.642292023,-17.79131317,6.979097843,20.58259601
28.52378485,-7.635109425,-19.53189659,4.977545261,21.55378939
28.5292377,-6.675034523,-22.72576332,0.5243301988,23.69158767
28.53379462,-4.673481941,-24.89251518,-2.52827692,25.45330882
28.53876908,-2.04464817,-25.91244507,-5.521028996,26.57286505
28.54377439,2.233790159,-24.8159008,-8.927978516,26.46748102
28.54877954,5.068524837,-20.95405388,-9.526528358,23.56940942
28.55423216,3.919308186,-16.26860046,-2.176329374,16.87497399
28.55878939,1.67115283,-10.83136845,6.552929878,12.76918886
28.56424362,-0.8690952063,-5.432443619,8.38928318,10.03228999
28.56924693,-2.817975283,-2.633621931,4.718971729,6.094722582
28.57425031,-5.226542473,-0.5554547906,0.3423708379,5.267114394
28.57922539,-6.488286495,0.5698199868,-2.743755102,7.067584348
28.58423101,-6.251260757,0.6751648784,-2.070984364,6.619900672
28.5892347,-4.321534157,-0.2657563984,1.824381709,4.698367009
28.59423993,-2.628833532,-1.292868972,3.598485231,4.640190931
28.59924608,-1.405396342,-2.580949545,4.376600742,5.271723958
28.60425062,-0.6655880809,-4.225766182,5.628767967,7.069875257
28.60922362,-1.046266198,-6.299144745,8.595184326,10.70752497
28.61422878,-2.020706177,-7.898471355,10.77390766,13.51096553
28.6192337,-3.093308687,-9.416395187,11.73877048,15.3634563
28.62423954,-3.636792421,-10.67335129,11.42752457,16.05412734
28.62924331,-3.191470861,-11.79862595,10.00297451,15.79406723
28.63424824,-2.731784105,-13.223176,8.564059258,15.98931327
28.63925308,-1.989581585,-14.53040981,6.600813866,16.08297199
28.64422816,-0.6440402865,-15.75863552,3.217807055,16.09669729
28.64923224,1.335964561,-16.7330761,-2.612074137,16.98833624
28.65423624,3.667917013,-17.42499924,-9.282320023,20.08097803
28.65924239,4.019864559,-17.39387512,-10.66377449,20.79476591
28.66380047,3.019088268,-16.56787491,-9.603142738,19.38632826
28.66877524,2.020706177,-15.25345898,-7.431602001,17.08742147
28.67422639,1.276109457,-13.89355278,-4.098873138,14.54166515
28.67923254,0.7422025204,-12.2654953,-2.027888775,12.45413877
28.68423678,0.2178723514,-11.06121159,-1.058237195,11.11385334
28.68924085,-0.356736064,-10.0460701,-0.3734954596,10.05933814
28.69424516,-1.110909581,-9.217676163,0.03351882473,9.284438456
28.69880331,-1.900996208,-8.559270859,-0.09576806426,8.768356502
28.70422601,-2.839523315,-7.572859764,-0.248996973,8.091544794
28.70878239,-3.485957623,-6.859387875,0.08140286058,7.694785831
28.71423431,-3.854664803,-6.409277916,0.4477157295,7.49251183
28.71923862,-3.766079187,-6.399701118,0.4285621047,7.437956193
28.72424539,-4.079719543,-6.35421133,-0.181959331,7.553358351
28.7292497,-4.474762917,-6.177040577,-0.825999558,7.672131954
28.73422354,-4.355052948,-6.248866558,-1.304839969,7.727705143
28.73922878,-4.024652958,-6.363788128,-1.386242747,7.656193553
28.74378601,-3.529053211,-6.533776283,-1.197100878,7.521801619
28.7492387,-2.817975283,-6.787561893,-0.9935936928,7.416145197
28.75379616,-2.200271368,-7.091625214,-0.8690952063,7.475805558
28.75921931,-1.537077546,-7.438784599,-0.8523358107,7.643598631
28.76422354,-0.7829039693,-7.891288757,-1.00556469,7.993530961
28.76922762,-0.3998316824,-8.274360657,-1.15400517,8.364008464
28.77423316,-0.1580173075,-8.561665535,-1.292868972,8.660172999
28.77923647,-0.009576806799,-8.786720276,-1.331176162,8.886989079
28.78424362,0.2130839527,-9.033323288,-1.388636947,9.141917029
28.78924693,0.4213795066,-9.255983353,-1.489193439,9.384481105
28.79425185,0.5219359994,-9.397241592,-1.517923832,9.533344612
28.79922601,0.5650315881,-9.497797966,-1.56101954,9.6417949
28.80423285,0.3471592367,-9.528923035,-1.458068848,9.646079955
28.80923678,0.2322375625,-9.423578262,-1.517923832,9.547871716
28.81379408,0.1580173075,-9.358934402,-1.659181833,9.506182566
28.81921585,0.009576806799,-9.179368973,-1.798045516,9.35381602
28.82425285,-0.1771709323,-8.966285706,-1.704671621,9.128612941
28.82922508,-0.3663128614,-8.731653214,-1.493981838,8.866111588
28.83423039,-0.6488286853,-8.43956089,-1.180341482,8.546366052
28.83923747,-0.8140285611,-8.274360657,-1.051054597,8.380477465
28.84424078,-0.9026140571,-8.195352554,-0.9672574997,8.301451843
28.84924424,-0.9552865028,-8.080430984,-0.8236053586,8.178279953
28.85424939,-0.8906430602,-7.989450932,-0.5363011956,8.056810177
28.85922354,-0.7972691655,-7.931990147,-0.2346317619,7.975409574
28.8642297,-0.6584054828,-7.987056732,-0.0191536136,8.014171191
28.8692337,-0.5985504389,-8.063671112,0.1244984865,8.086813606
28.87423839,-0.6009446383,-8.157045364,0.2849099934,8.184112489
28.87924362,-0.6775590777,-8.341399193,0.3351882398,8.375582246
28.88424854,-0.7374141216,-8.51617527,0.3112462163,8.553706508
28.88931347,-0.7374141216,-8.51617527,0.3112462163,8.553706508
28.89422816,-0.8690952063,-8.966285706,-0.1604115069,9.009735717
28.89923154,-0.9193734527,-9.18894577,-0.7062895298,9.261793391
28.90423708,-0.9672574997,-9.373299599,-1.335964561,9.517307064
28.90924262,-0.9097966552,-9.485827446,-2.066195965,9.75078551
28.9142467,-0.7924807668,-9.476250648,-2.806004286,9.914686691
28.91925347,-0.55784899,-9.461885452,-3.617638826,10.14523447
28.92422631,-0.3303998411,-9.449913979,-4.005499363,10.26908289
28.92923101,-0.1987187415,-9.40681839,-4.039018154,10.23920842
28.93378855,-0.1125274822,-9.380482674,-3.835511208,10.13495258
28.9392417,-0.05746084079,-9.378087997,-3.385401249,9.970595662
28.94424516,0.007182605099,-9.442731857,-2.837129116,9.85974331
28.94925001,0.1221042871,-9.526528358,-2.264914751,9.792828542
28.95422478,0.349553436,-9.679757118,-1.63763392,9.823529423
28.95922908,0.758961916,-9.892841339,-0.8762778044,9.960531901
28.96423531,1.163581967,-10.09156036,-0.3208230138,10.16348567
28.96879216,1.726219416,-10.27112484,0.09097966552,10.41557086
28.97376601,2.499546528,-10.40041256,0.2130839527,10.69867838
28.97877154,3.280056238,-10.46026707,-0.1532289088,10.9635503
28.98377593,4.290409565,-10.47463226,-0.6751648784,11.33937313
28.98878054,4.941632271,-10.53688145,-0.9289502501,11.67512521
28.99378601,5.379771233,-10.73560047,-0.9313444495,12.04418775
28.99879254,5.68144083,-11.16176796,-0.8643068075,12.5543164
29.0042137,5.590460777,-11.81777954,-0.7637503147,13.09566644
29.00924824,5.224148273,-12.29422569,-0.7350199223,13.37833939
29.01425247,4.448426723,-12.8688345,-0.9576807022,13.64963567
29.01922755,3.665522814,-13.18247414,-1.362300754,13.75025619
29.02423216,2.875436306,-13.48414421,-1.903390408,13.91808802
29.02878916,1.989581585,-13.66610336,-2.499546528,14.0345484
29.03379339,1.017535686,-13.8169384,-3.019088268,14.17949434
29.03876885,-0.1029506698,-13.87918758,-3.363853455,14.28138498
29.04377339,-1.759738207,-13.79060173,-3.782838583,14.4078882
29.04877862,-2.97599268,-13.66610336,-4.244919777,14.6163695
29.05378362,-3.924096584,-13.48174953,-4.805162907,14.84067704
29.05923593,-4.331110954,-13.31655025,-5.305551052,14.97457528
29.06423962,-4.065354347,-13.38119316,-5.23851347,14.93403695
29.06924516,-3.289633036,-13.66131496,-4.757278919,14.83525917
29.07380324,-2.164358377,-14.01805115,-3.967192173,14.72850362
29.07922693,-0.5243301988,-14.40830612,-2.559401512,14.64324908
29.08378208,0.6895300746,-14.69082165,-1.493981838,14.78268156
29.08923408,1.584961534,-14.92305946,-0.7733271718,15.02690393
29.09423901,2.255337954,-15.04995155,-0.3806780577,15.22276279
29.09924416,2.487575531,-14.98530865,-0.5363011956,15.19983968
29.10424939,2.264914751,-14.67166805,-0.9026140571,14.87287445
29.10922424,1.632845521,-14.09945393,-1.37666595,14.26029434
29.11422793,0.3998316824,-13.37879944,-1.764526606,13.50058124
29.11923401,-0.6631938815,-13.21359921,-1.680729628,13.33656186
29.12423739,-1.776497602,-13.06994724,-1.04147768,13.23118061
29.12924293,-2.719813108,-12.96220779,-0.1244984865,13.24506376
29.13424793,-3.643975019,-13.15135002,0.8116343617,13.67096601
29.13925347,-4.175487995,-13.39555836,1.465251446,14.10753861
29.14422724,-5.008669853,-13.52484512,2.188300371,14.58755867
29.14923193,-6.184223175,-13.65652657,2.894589901,15.26839824
29.15423624,-7.991845131,-13.77863121,3.363853455,16.27991943
29.15879593,-9.052476883,-13.93664837,3.253720045,16.93411349
29.16421647,-9.947908401,-14.06354046,2.513911724,17.40872781
29.16925278,-10.50096893,-14.19282722,1.209071875,17.69656882
29.17422608,-10.45308495,-14.60463047,-0.9935936928,17.98748021
29.17878447,-9.655815125,-15.07628822,-2.406172752,18.06429903
29.18423524,-8.690952301,-15.49527359,-3.150769472,18.04337839
29.18924085,-7.620744228,-15.7514534,-3.241749048,17.79586929
29.19424547,-6.806715488,-15.64610767,-2.410961151,17.2320862
29.19924978,-5.738901615,-15.20796967,-1.745373011,16.34820051
29.20422508,-5.030217648,-14.65969658,-1.82198751,15.60542956
29.20922885,-4.647145271,-13.82412052,-2.786850691,14.84819195
29.2137867,-3.675099611,-13.18965721,-2.691082716,13.95404388
29.21879255,-1.446097851,-12.91911221,-2.389413357,13.21756238
29.22376601,-0.3519476354,-12.58392429,-1.628057122,12.69368299
29.2292177,1.345541358,-12.37084007,1.158793569,12.4976385
29.23422324,3.617638826,-12.91671848,2.97599268,13.73992211
29.2392297,4.446032524,-13.06037045,1.757344007,13.9078661
29.24423285,4.434061527,-12.78503704,-0.390254885,13.53773883
29.24879039,4.031835556,-12.48815632,-1.316810966,13.18877315
29.25424324,4.292803764,-12.27746677,-0.4740519226,13.014956
29.25924701,4.486733913,-12.04044056,0.1651999205,12.85030276
29.26425278,4.134786129,-11.56638813,0.5123591423,12.29391323
29.2692267,3.064578056,-10.7332058,0.4740519226,11.17220079
29.27423216,2.097320795,-10.09395409,0.6033388376,10.32718168
29.27923685,1.278503656,-9.473855972,1.101332784,9.622964849
29.28424178,0.5770025849,-8.765172005,1.572990537,8.92387088
29.2892467,-0.141257897,-7.855375767,2.061407566,8.122578617
29.29425124,-0.6751648784,-7.113173485,2.248155355,7.490479767
29.2987787,-1.137245774,-6.368576527,2.360682964,6.886575273
29.30423062,-1.668758631,-5.702988625,2.387019157,6.403647014
29.30878824,-2.212242365,-5.154716492,2.432508945,6.114099947
29.31379339,-2.796427488,-4.632780075,2.327163935,5.890530528
29.31921716,-3.277662039,-4.247313976,2.070984364,5.750801743
29.32380332,-3.488351822,-4.024652958,1.750161409,5.606201461
29.32877716,-3.536235809,-3.878606796,1.426944256,5.439184157
29.3342297,-3.397372246,-3.840299606,0.8786720037,5.202124925
29.33923524,-3.16034627,-3.907337189,0.3471592367,5.037419179
29.34423932,-2.968810081,-3.967192173,0.0023942017,4.955043165
29.34924393,-3.078943491,-3.955221176,-0.1197100878,5.013780817
29.35380201,-3.189076662,-3.94085598,-0.2346317619,5.074998313
29.35922362,-3.055001259,-4.041412354,-0.2849099934,5.074171874
29.36422762,-2.877830505,-4.122815132,-0.2920926213,5.036350974
29.36923316,-2.645592928,-4.19464159,-0.2202665508,4.964141151
29.37423839,-2.564189911,-4.170699596,-0.1005564705,4.896929306
29.37924324,-2.688688517,-4.024652958,-0.1149216816,4.841496087
29.38380024,-2.808398485,-3.981557369,0.1364694983,4.874271747
29.38877524,-2.798821688,-3.988739967,0.4668693244,4.895039973
29.39378055,-2.827552319,-3.981557369,0.6560112834,4.927291548
29.39923339,-2.837129116,-3.945644379,0.7948749661,4.92435147
29.40423747,-2.853888512,-3.926490784,0.9097966552,4.938596913
29.40924139,-2.777273893,-3.900154591,1.019929886,4.895376705
29.41424632,-2.652775526,-3.869029999,1.089361787,4.815944375
29.41925185,-2.542642117,-3.816357613,1.046266198,4.703646173
29.42422578,-2.410961151,-3.770867586,0.9265560508,4.570632575
29.42923062,-2.288856745,-3.775655985,0.7829039693,4.484125549
29.43423585,-2.219424963,-3.75650239,0.5770025849,4.401146368
29.43924085,-2.19308877,-3.787626982,0.3471592367,4.390475605
29.44424508,-2.243366957,-3.818751812,0.0,4.428945778
29.44925093,-2.284068346,-3.869029999,-0.3064578176,4.503362936
29.45422416,-2.358288765,-3.945644379,-0.7541735172,4.658155553
29.45923039,-2.427720547,-4.024652958,-1.312022567,4.879862877
29.46423462,-2.564189911,-4.13239193,-2.140416384,5.313484286
