Time (s),Acceleration x (m/s^2),Acceleration y (m/s^2),Acceleration z (m/s^2),Absolute acceleration (m/s^2)
10.00412755,-0.4405331016,-12.68687439,-2.552218914,12.9485394
10.00913308,-1.173158884,-12.96460247,-2.853888512,13.32673623
10.01368947,-1.843535304,-13.223176,-3.043030262,13.69346703
10.01911193,-2.679111719,-13.40513515,-3.229778051,14.04659227
10.02366908,-3.110068083,-13.6062479,-3.615244627,14.41778413
10.02867408,-3.507505417,-13.64216137,-3.818751812,14.59431487
10.0341257,-3.560178041,-13.69483376,-3.617638826,14.60515833
10.03913255,-3.148375273,-13.86721611,-3.026270866,14.5385785
10.04413585,-2.446874142,-14.1952219,-2.319981337,14.59019641
10.04911001,-1.695094824,-14.60702419,-1.549048543,14.7864145
10.05411555,-0.7158663273,-15.02840424,-0.4740519226,15.0529108
10.05911985,0.05267243832,-15.16008472,0.1316810995,15.16074811
10.0641257,0.6512228847,-15.12896061,0.3998316824,15.14824761
10.06913001,0.9552865028,-14.87517548,0.2059013397,14.90724029
10.07413432,0.9816226959,-14.26225948,-0.5698199868,14.30735208
10.07910947,0.6464344859,-13.79778481,-1.52510643,13.89685909
10.08411439,0.05267243832,-13.39076996,-2.217030764,13.57316175
10.08911839,-0.7948749661,-13.18008041,-2.475604534,13.43409706
10.09367624,-1.67115283,-13.09867764,-2.202665567,13.38730156
10.09909708,-2.873042107,-13.03164005,-1.304839969,13.40822959
10.10413316,-3.926490784,-12.76588345,-0.517147541,13.3660971
10.10910793,-4.821922302,-12.53843403,0.4046200812,13.43975372
10.11366516,-5.398924828,-12.52167511,1.568202138,13.72588776
10.11867247,-5.884947777,-12.59828949,3.12203908,14.25119772
10.12412262,-6.093243122,-12.63659668,3.749319792,14.5213149
10.12912785,-6.406883717,-12.67729759,3.493140221,14.62751044
10.13368508,-6.72291851,-12.82813263,2.67671752,14.72832091
10.13910724,-6.804321289,-13.18008041,1.841141105,14.9466755
10.14411216,-6.402095318,-13.66849709,1.285686255,15.14818887
10.14911562,-5.480327606,-14.22155857,0.6751648784,15.25590268
10.1541217,-4.857835293,-14.73152351,0.2968810201,15.51465395
10.1591267,-4.434061527,-14.8775692,0.007182605099,15.52427191
10.16413101,-3.981557369,-14.92305946,-0.2920926213,15.44784195
10.16913616,-3.277662039,-14.84165668,-0.5674257874,15.20985909
10.17411032,-2.67432332,-14.58547688,-0.8643068075,14.85379302
10.17911532,-2.724601507,-13.96059036,-1.625662923,14.31657489
10.18367316,-2.786850691,-13.23993587,-2.138022184,13.69794063
10.18912539,-1.292868972,-12.97417927,-1.359906554,13.10916411
10.19368239,-0.672770679,-12.88319969,-1.022324085,12.94119783
10.19910516,0.6105214357,-12.50252151,1.848323703,12.65314511
10.2036617,2.262520552,-13.02685165,2.980781078,13.553705
10.20911409,2.652775526,-13.19923401,1.879448295,13.59372364
10.2141187,2.41335535,-12.94544888,1.235408068,13.22630575
10.21867616,2.322375536,-12.94544888,0.4716577232,13.16056745
10.2240987,1.034295082,-12.41633034,2.085349798,12.63264458
10.22913378,-0.7445967197,-10.13704967,7.931990147,12.89304728
10.23410732,1.625662923,-9.425971985,2.123656988,9.798043009
10.23911278,1.70946002,-9.646238327,-2.288856745,10.06036941
10.24411709,-0.356736064,-9.96466732,-3.244143248,10.48552912
10.24912178,-2.063801765,-9.909601212,-2.765302896,10.49315844
10.25367924,-2.240972757,-9.706093788,-1.687912226,10.10342829
10.25865432,-2.073378563,-9.251194954,-0.4094084799,9.489526966
10.2641067,-2.00873518,-8.741230011,0.8307880163,9.007459567
10.26911101,-2.126051188,-7.900865555,1.810016513,8.379733286
10.27411586,-2.104503393,-7.072471619,2.159569979,7.688467456
10.2786747,-1.89860189,-6.258443356,2.274491549,6.924313264
10.28367832,-2.056619167,-5.468356609,2.384624958,6.310233165
10.28910109,-2.379836559,-4.606443882,2.63601613,5.816487628
10.29368878,-2.482787132,-4.118026733,2.312798738,5.335861142
10.29866332,-2.396595955,-3.722983599,1.680729628,4.735940364
10.30411493,-2.015917778,-3.60327363,1.07739079,4.267115683
10.30911962,-1.422155857,-3.727771997,0.4740519226,4.017902011
10.31367862,-1.290474772,-3.945644379,0.2633621991,4.159662769
10.31909932,-1.347935557,-4.161122322,0.1364694983,4.376127646
10.32413439,-1.347935557,-4.333505154,0.0023942017,4.538303969
10.32866109,-1.458068848,-4.438849926,-0.06703764945,4.672670273
10.33411347,-1.575384736,-4.637568474,-0.0718260482,4.898370892
10.33911839,-1.63763392,-4.819528103,-0.0359130241,5.090283463
10.34412386,-1.838746905,-4.953603268,0.03830722719,5.283998766
10.34912824,-2.001552582,-4.972756863,0.1532289088,5.362648847
10.35368547,-2.145204782,-4.920084476,0.2729389966,5.37434931
10.35911093,-2.26730895,-4.876988888,0.3974374831,5.392927502
10.36366539,-2.341529369,-4.764461517,0.4932055473,5.331613738
10.36866947,-2.477998734,-4.587290287,0.5243301988,5.240098478
10.37367586,-2.602497339,-4.362235546,0.5937620401,5.114161194
10.37867962,-2.571372509,-4.235342979,0.6200982332,4.993456574
10.38410178,-2.533065319,-3.993528366,0.6655880809,4.775740384
10.38913801,-2.422932148,-3.813963413,0.6655880809,4.567266645
10.39366393,-2.329558372,-3.677493811,0.6392518282,4.399937027
10.39911616,-2.264914751,-3.598485231,0.6081272364,4.295201221
10.40412109,-2.202665567,-3.572149038,0.4213795066,4.217765409
10.40912601,-2.173935175,-3.593696833,0.2059013397,4.205121453
10.41413132,-2.159569979,-3.586514235,-0.05267243832,4.186836662
10.41913524,-2.152387381,-3.579331636,-0.3208230138,4.188951397
10.42411032,-2.257732153,-3.586514235,-0.7661445141,4.306671133
10.42911524,-2.418143749,-3.598485231,-1.292868972,4.52416018
10.43411962,-2.540247917,-3.591302633,-1.987187386,4.826927365
10.43912693,-2.628833532,-3.670311213,-2.717418909,5.269375263
10.44413001,-2.669534922,-3.797203779,-3.617638826,5.884937036
10.44913524,-2.616862535,-3.919308186,-4.371812344,6.428194875
10.45410916,-2.537853718,-4.139574528,-5.051765442,7.006933198
10.45911462,-2.406172752,-4.237737179,-5.691017628,7.492380486
10.46411832,-2.310404539,-4.364629745,-6.196194172,7.9234326
10.46912301,-2.317587137,-4.594472885,-6.639121532,8.399900354
10.47412847,-2.375048161,-5.09725523,-6.993463039,8.973928344
10.47913347,-2.176329374,-5.899312973,-7.697358608,9.939196781
10.48410755,-1.771709204,-7.405265808,-8.63109684,11.50968061
10.48866632,-1.496376038,-8.877699852,-8.731653214,12.54170896
10.49411716,-1.199495077,-10.33816338,-8.252813339,13.28252003
10.49912262,-0.8092401624,-11.79383755,-7.611167431,14.05984863
10.50412786,-1.007958889,-13.96059036,-7.230489254,15.7541753
10.50913309,-1.309628367,-16.18240929,-7.80509758,18.01402357
10.51368916,-1.316810966,-18.84955025,-9.50976944,21.15361081
10.51866693,-1.30005157,-21.92609978,-12.45703125,25.25117053
10.52366939,-1.663970232,-24.67464256,-17.30050087,30.18135373
10.5286737,0.3639186621,-26.92519188,-19.95567131,33.51607393
10.53367809,2.219424963,-26.72168541,-18.94052887,32.82861484
10.53865255,3.086126089,-24.66267204,-17.17839813,30.21372087
10.54365862,2.885013103,-21.03066826,-16.39309883,26.82062634
10.54911001,2.686294317,-15.11459541,-16.0555172,22.21366256
10.55411501,2.837129116,-10.43153667,-15.79694271,19.14183006
10.55867193,3.05021286,-6.526593685,-15.35641003,16.96229797
10.56412478,3.172317266,-3.126827478,-13.86003399,14.55820006
10.56912978,3.038241863,-1.347935557,-11.6765213,12.14038688
10.57413493,2.463633537,-0.3734954596,-9.203310966,9.534669465
10.57910909,0.4070142806,-0.0191536136,-6.39491272,6.407880787
10.58411347,-0.3663128614,-1.391031146,-3.658340216,3.930980272
10.58911893,-1.680729628,-2.784456491,-1.000776291,3.402881605
10.59412424,-1.800439715,-4.984727859,2.470816135,5.847565936
10.59913124,-3.869029999,-7.869740963,4.886565685,10.03896111
10.60413432,-5.940014362,-10.30943298,5.7963624,13.23502913
10.60910732,-7.515398979,-12.89038181,6.500257492,16.27564169
10.61411255,-8.547300339,-15.49766731,6.885724068,18.99071434
10.61911832,-8.6957407,-18.91658783,6.708553314,21.87368028
10.62412262,-8.195352554,-21.54302597,4.920084476,23.56847476
10.62912762,-7.505822182,-24.12397575,0.9361328483,25.28200778
10.63413193,-5.307945251,-26.04891396,-5.377377033,27.12261759
10.63913686,-0.141257897,-25.76161003,-12.04762268,28.43986142
10.64411124,3.208230257,-22.82631874,-12.91911221,26.42417508
10.64866878,2.485181332,-18.39225769,-10.51054573,21.32892029
10.65412047,0.6871358752,-13.42189503,-6.845022678,15.08223317
10.65912693,-1.587355733,-7.017405033,1.30005157,7.31121096
10.66413093,-4.23294878,-2.612074137,6.610390663,8.27272938
10.66913586,-6.502651691,-0.07661445439,7.699752808,10.07851884
10.67410939,-8.702922821,1.070208192,6.835445881,11.11798235
10.67911593,-10.09156036,1.460463047,3.287238836,10.71347199
10.68411993,-10.96544361,1.920149803,-2.67671752,11.44957403
10.68912447,-10.91755962,2.121262789,-4.127603531,11.86296653
10.6941297,-8.858546257,1.355118155,0.356736064,8.968692637
10.69868786,-6.200982571,0.0,4.410119534,7.609292946
10.70410886,-2.813186884,-2.518700123,6.040570736,7.123648333
10.70911378,-0.3136404157,-5.149928093,6.792350292,8.529721693
10.71411893,0.5722141862,-7.886500359,10.15620327,12.87139394
10.71912362,0.2442085743,-10.7188406,14.75785923,18.24137031
10.72412816,0.2681505978,-12.38999367,15.89271069,20.15346374
10.72913339,0.4189853072,-13.56315231,15.181633,20.36213716
10.73410824,0.6344634295,-14.45858383,13.37640476,19.70739441
10.73911255,1.170764685,-15.49048519,9.722852707,18.32647501
10.74411716,2.19308877,-16.26381302,5.030217648,17.16462472
10.74912239,3.845088005,-16.91742897,-1.584961534,17.42114255
10.75412701,6.536170483,-17.5590744,-10.13944435,21.30377784
10.75913463,7.560888767,-18.02594376,-13.73553562,23.89072259
10.76413709,6.361393929,-17.49921989,-13.71398735,23.12495359
10.76911155,4.295197964,-16.10818863,-11.45625496,20.22790756
10.77411686,3.239354849,-14.30535507,-7.252037048,16.36241562
10.77912139,2.260126352,-12.23915863,-4.587290287,13.26455455
10.78412601,0.7613561153,-11.12585545,-3.282450438,11.62492165
10.78913155,-0.4477157295,-10.22324085,-2.585737944,10.55467402
10.79413593,-1.482010841,-9.299078941,-1.271321058,9.501867318
10.79911009,-2.382230759,-8.564059258,-0.03112462163,8.889268985
10.80411409,-3.040636063,-7.87931776,0.7565677166,8.479475853
10.80912047,-4.103661537,-7.165845871,0.9121908545,8.307916539
10.81412478,-5.38934803,-6.438008308,0.6871358752,8.424083266
10.81913001,-5.901707172,-6.083666325,0.5530605912,8.493940164
10.82413524,-5.815515995,-6.009446144,0.3543418646,8.370139031
10.82910916,-5.432443619,-6.10281992,0.2466027737,8.17414629
10.8341134,-4.903325081,-6.229712963,-0.0023942017,7.927920672
10.83911986,-4.410119534,-6.382941723,-0.5051765442,7.774722032
10.84412447,-3.67988801,-6.694188118,-1.015141487,7.706117217
10.84868116,-2.786850691,-7.077260017,-1.256955862,7.709350437
10.85410386,-1.56101954,-7.486668587,-1.218648672,7.744165101
10.85910786,-0.6895300746,-7.867346764,-1.199495077,7.988077695
10.86411278,0.1388636976,-8.245630264,-1.110909581,8.321287261
10.86911832,0.8523358107,-8.547300339,-1.04147768,8.652600486
10.87412262,1.319205165,-8.820239067,-0.9552865028,8.969364067
10.87912701,1.400607944,-8.980650902,-0.9169792533,9.135351344
10.88413247,1.388636947,-9.121908188,-0.9050082564,9.271276153
10.88913678,1.319205165,-9.248801231,-0.9145850539,9.387070486
10.89411093,1.185129881,-9.363722801,-1.00317049,9.491585145
10.89911678,1.007958889,-9.437943459,-1.029506683,9.547284528
10.9041214,0.7038952708,-9.447520256,-1.072602391,9.534232189
10.9091264,0.3519476354,-9.373299599,-1.063025594,9.439948936
10.9141304,-0.0143652102,-9.205705643,-0.9528923035,9.254902835
10.91913809,-0.4094084799,-8.992621422,-0.8690952063,9.043792447
10.9241104,-0.8044517636,-8.791508675,-0.9265560508,8.87672651
10.92911524,-1.254561663,-8.662221909,-1.04147768,8.814345643
10.93367255,-1.697489023,-8.499416351,-1.091755986,8.735758606
10.93867747,-2.135627985,-8.267178535,-1.185129881,8.620422302
10.94365155,-2.317587137,-8.118738174,-1.285686255,8.54038107
10.94865686,-2.341529369,-7.965508938,-1.259350061,8.397502903
10.95410909,-2.19308877,-7.809885979,-1.051054597,8.179772192
10.9586664,-2.013523579,-7.764396191,-0.6679822803,8.048995324
10.96367163,-1.795651317,-7.764396191,-0.3256114423,7.975978603
10.96912301,-1.455674648,-7.908048153,-0.05506663769,8.041097351
10.97413001,-1.223437071,-8.106766701,0.01197100803,8.198573529
10.97913286,-1.015141487,-8.377311707,0.07900865376,8.438963564
10.98366024,-0.7829039693,-8.698134422,0.0718260482,8.733592619
10.98911216,-0.55784899,-9.114726067,-0.2082955539,9.134156436
10.99411801,-0.3782838583,-9.339780807,-0.5530605912,9.363785571
10.99912355,-0.2202665508,-9.500192642,-0.9361328483,9.548744541
11.00412663,-0.09097966552,-9.603142738,-1.345541358,9.697376413
11.00913255,0.1532289088,-9.686940193,-1.8602947,9.865139927
11.0141377,0.4836287498,-9.823410034,-2.442085743,10.133956
11.01911063,0.8714894056,-9.993397713,-3.016694069,10.47511025
11.0236694,1.304839969,-10.14423275,-3.538630009,10.82265992
11.02912147,1.826775908,-10.26633644,-3.845088005,11.11393161
11.0341264,2.152387381,-10.45308495,-3.955221176,11.38171915
11.03913155,2.403778553,-10.66616821,-3.801992416,11.57585599
11.04413563,2.559401512,-10.87207031,-3.586514235,11.73096472
11.04910947,2.561795712,-11.14022064,-3.126827478,11.85092247
11.05366755,2.444479942,-11.27908421,-2.765302896,11.86760813
11.05867216,2.312798738,-11.38682365,-1.97042799,11.7852186
11.0636774,2.219424963,-11.41315937,-1.333570361,11.70318178
11.06909963,2.212242365,-11.45625496,-0.8595184088,11.69951135
11.07413378,2.370259762,-11.37245846,-0.7924807668,11.64383822
11.07911186,2.657563925,-11.11149025,-0.9313444495,11.46277733
11.08411378,2.801215887,-10.84812832,-1.101332784,11.25795862
11.08911932,2.908955097,-10.77151299,-1.398213744,11.244666
11.09412301,2.925714493,-10.85770512,-1.455674648,11.33880745
11.09912855,2.916137695,-11.11627865,-1.462857246,11.58513968
11.1036857,2.813186884,-11.40358257,-1.328781962,11.82037975
11.1091067,2.578555346,-11.73637676,-1.158793569,12.0720458
11.11366516,2.303221941,-11.9614315,-1.108515382,12.23149546
11.11911832,1.869871497,-12.17212105,-1.168370485,12.37020775
11.12367563,1.302445769,-12.37802315,-1.403002143,12.52518411
11.12865001,0.7278373241,-12.62462521,-1.766920805,12.76843443
11.13365493,-0.05985504389,-12.99572659,-2.279279947,13.19422636
11.13865963,-0.8667010069,-13.21599293,-2.837129116,13.54484925
11.1441107,-1.711854219,-13.38598156,-3.454833031,13.93021243
11.14911563,-2.609679937,-13.46020222,-4.288015366,14.3657422
11.15412147,-3.179499865,-13.49372101,-4.697423935,14.63746965
11.15912763,-3.210624456,-13.69243908,-4.661510944,14.81623034
11.1641307,-2.817975283,-13.94861889,-4.019864559,14.78730079
11.16913593,-2.185906172,-14.41788292,-3.112462282,14.91110174
11.1741094,-1.393425345,-14.82489681,-2.056619167,15.03159613
11.17911563,-0.624886632,-15.09065342,-1.091755986,15.14299294
11.18411963,0.2346317619,-15.32049656,-0.3615244627,15.32655757
11.18912447,0.6823474765,-15.30373764,-0.1340752989,15.31952871
11.19412978,0.6943184733,-15.03558636,-0.3040636182,15.05468
11.19913593,0.4357447028,-14.55435181,-0.7493851185,14.58014431
11.20410916,-0.2082955539,-13.9246769,-1.367089152,13.99317499
11.20911401,-0.9457096457,-13.58230591,-1.723825216,13.72388334
11.2141187,-1.721431017,-13.47456741,-1.980004787,13.72762582
11.21912332,-2.784456491,-13.42668343,-1.8602947,13.83798114
11.2236817,-3.960009575,-13.28781986,-1.367089152,13.93257928
11.22910209,-4.955997467,-13.09628296,-0.5530605912,14.01357964
11.23410701,-5.530605793,-13.09388924,0.2322375625,14.21588794
11.23911432,-6.033388138,-13.16810894,1.031900883,14.52121499
11.24411809,-6.742072105,-13.16810894,2.243366957,14.96286485
11.2491227,-7.414842606,-13.10585976,2.834734917,15.32250544
11.2541267,-8.097189903,-13.03403378,2.693476915,15.57900313
11.25868509,-8.616731644,-13.22556973,2.166752577,15.93293995
11.26365932,-8.906430244,-13.42189503,1.429338455,16.17141844
11.26866355,-8.913613319,-13.71398735,0.4477157295,16.36234705
11.27367001,-8.152256966,-14.14973164,-0.9050082564,16.35522054
11.27912109,-7.007828236,-14.42985344,-1.735796213,16.13515774
11.28412609,-5.480327606,-14.42985344,-2.030282974,15.56845239
11.28913093,-4.230554581,-14.23352909,-2.255337954,15.01923739
11.29413709,-3.416525841,-14.13297272,-2.298433542,14.72061016
11.29911032,-2.767697096,-13.85045719,-2.60010314,14.36161021
11.30366793,-2.535459518,-13.19923401,-2.940079689,13.75835753
11.30912017,-0.6440402865,-13.01488018,-2.224213362,13.21926696
11.31412516,0.3303998411,-12.82095051,-2.485181332,13.06376907
11.31868509,0.6991068721,-12.45703125,-1.879448295,12.61739687
11.32365709,1.484405041,-12.33971596,-0.1915361285,12.43015424
11.32910909,3.550601006,-12.68926907,1.393425345,13.25013023
11.33411463,3.517082214,-12.70363426,0.8930372596,13.21172609
11.33911809,3.282450438,-12.66053867,0.2418143749,13.08136822
11.34412324,3.308786631,-12.6485672,-0.5027823448,13.08384925
11.34912847,2.794033289,-12.36365795,-0.7972691655,12.70048417
11.35413316,2.188300371,-11.9901619,-0.4261679053,12.19566562
11.35866016,1.762132406,-11.53047562,0.09337386489,11.6647202
11.36411224,1.204283476,-10.77151299,0.5674257874,10.85346777
11.36911778,0.7422025204,-10.13226128,0.8403648138,10.19410595
11.3741224,0.3806780577,-9.550470352,1.192312479,9.632134176
11.37912693,-0.1532289088,-8.856152534,1.546654344,8.991499123
11.38413247,-0.7972691655,-8.245630264,1.853112102,8.488820945
11.38913655,-1.340752959,-7.61595583,1.958456993,7.97721477
11.39366332,-1.757344007,-7.065289021,1.877054095,7.518636777
11.39867101,-2.08295536,-6.514622688,1.692700624,7.045867385
11.4041214,-2.355894566,-5.887341976,1.541865945,6.525977731
11.40912509,-2.418143749,-5.485116005,1.417367458,6.159776562
11.4141307,-2.485181332,-5.149928093,1.230619669,5.849129028
11.41913655,-2.664746523,-4.783615112,0.9193734527,5.55239544
11.42410978,-2.748543501,-4.592078686,0.6344634295,5.389269141
11.42911463,-2.741360903,-4.481945515,0.3280056417,5.264074743
11.43412078,-2.588132143,-4.474762917,-0.02394201607,5.16938143
11.43912486,-2.296039343,-4.491522312,-0.3040636182,5.053516007
11.44368209,-2.128445387,-4.481945515,-0.4165911078,4.979122765
11.44865593,-2.042253971,-4.50109911,-0.5985504389,4.978850982
11.45366117,-2.049436569,-4.616020679,-0.7374141216,5.104078443
11.4586657,-2.04464817,-4.687847137,-0.7805097699,5.173557038
11.46367278,-2.023100376,-4.766855717,-0.6464344859,5.218594265
11.46867617,-2.087743998,-4.75488472,-0.3591302633,5.205437373
11.47409778,-2.22900176,-4.616020679,-0.09816227108,5.126961244
11.47913532,-2.372653961,-4.496310711,0.2274491638,5.089010705
11.48410824,-2.446874142,-4.364629745,0.3950432837,5.019287308
11.48911309,-2.542642117,-4.228160381,0.5482721925,4.964168766
11.49411801,-2.578555346,-4.084507942,0.6009446383,4.86757509
11.49912263,-2.559401512,-3.900154591,0.605733037,4.704110377
11.50412817,-2.573766708,-3.801992416,0.6488286853,4.636852388
11.50913216,-2.624045134,-3.730166197,0.6440402865,4.605924512
11.51413678,-2.614468336,-3.591302633,0.6368576288,4.487592553
11.51911124,-2.45405674,-3.505111217,0.6344634295,4.325591633
11.52411624,-2.324769735,-3.469198227,0.5363011956,4.210404925
11.52867432,-2.173935175,-3.502717018,0.3112462163,4.134234495
11.53412609,-2.056619167,-3.608062029,0.1101332754,4.15450639
11.53913132,-2.099714994,-3.701435804,-0.2322375625,4.261849875
11.54413586,-2.176329374,-3.689464808,-0.5410895944,4.317561587
11.5491107,-2.262520552,-3.706224203,-0.9097966552,4.436533224
11.5541147,-2.355894566,-3.711012602,-1.290474772,4.581176582
11.55867409,-2.382230759,-3.751713991,-1.786074519,4.789618299
11.56412486,-2.33913517,-3.931279182,-2.588132143,5.25594305
11.56912978,-2.334346771,-4.115632534,-3.332728863,5.787459518
11.57413524,-2.394201756,-4.335899353,-4.369418144,6.604849746
11.57910878,-2.449268341,-4.632780075,-5.252878666,7.419858551
11.5841137,-2.657563925,-4.857835293,-6.299144745,8.386920428
11.58911863,-2.432508945,-5.011064053,-6.780379295,8.775044507
11.59412294,-2.219424963,-5.394136429,-7.524975777,9.520914631
11.59912847,-2.240972757,-5.786785603,-8.128314972,10.22635569
11.60413347,-2.48996973,-6.378153324,-8.528146744,10.93663915
11.60910786,-2.604891539,-7.254431248,-8.647856712,11.5843713
11.61411255,-2.590526342,-8.66940403,-8.154650688,12.18062892
11.61911747,-2.348711967,-10.07240677,-7.254431248,12.63315474
11.62367563,-1.953668594,-11.50653362,-6.442796707,13.33142027
11.62912755,-1.556231141,-13.00530338,-5.856217384,14.34764976
11.63413124,-1.654393315,-15.46414852,-6.069301128,16.69470943
11.63869094,-1.948880196,-17.1065712,-7.113173485,18.62874524
11.64411186,-2.245761156,-19.89342117,-10.6302557,22.66702418
11.64911617,-2.126051188,-22.05059814,-14.55674648,26.50750536
11.65412078,-1.26653266,-23.51824379,-18.11213493,29.71129966
11.6591257,0.538695395,-23.47754097,-17.65484428,29.37990213
11.66413132,1.999158382,-22.00510788,-16.07467079,27.32428312
11.66913624,2.22900176,-19.17995071,-14.863204,24.36706366
11.67411094,1.388636947,-14.36042213,-14.44661331,20.41701919
11.67911586,0.9337386489,-10.06522369,-14.52322769,17.69476585
11.68412078,1.034295082,-6.493074894,-14.51604462,15.9356625
11.68912455,1.254561663,-3.998316765,-13.99171448,14.60577064
11.69413001,1.197100878,-2.310404539,-12.66053867,12.92517927
11.69913463,0.921767652,-1.8579005,-10.84812832,11.04460673
11.70410947,0.5363011956,-2.202665567,-8.449137688,8.747987325
11.7091147,-0.2106897533,-3.143586874,-6.411672115,7.143953242
11.71411894,-1.302445769,-4.484339714,-3.713406801,5.966159378
11.71912547,-2.090138197,-5.54018259,-0.9481038451,5.996765938
11.72412847,-3.16034627,-6.883329868,1.70946002,7.764681074
11.72913347,-4.381389141,-8.647856712,3.658340216,10.36173005
11.73410794,-5.228936672,-11.27668953,5.027823448,13.40837477
11.73911286,-5.501875401,-13.5320282,5.272032261,15.52999499
11.74411801,-5.499481201,-15.81609631,5.094861031,17.5028799
11.7491224,-5.05894804,-17.99721336,3.943250179,19.10606883
11.75412786,-4.118026733,-20.98278427,1.074996591,21.41006767
11.75913186,-2.810792685,-23.12798882,-2.142810583,23.39649673
11.76369001,-1.089361787,-24.19819641,-5.114014626,24.75666707
11.76866424,1.053448796,-23.57331085,-7.534552574,24.7705515
11.77366917,3.021482468,-21.55978584,-9.078812599,23.58767814
11.77867432,2.815581083,-17.5686512,-6.974309444,19.11088679
11.78412571,1.00556469,-13.6158247,-2.908955097,13.95936468
11.78913101,-2.387019157,-8.044517517,4.359841347,9.456232818
11.79413617,-5.442020416,-4.247313976,7.498639584,10.19239215
11.79911155,-7.35977602,-2.073378563,6.481103897,10.02346794
11.80411586,-9.92636013,-0.8044517636,3.203441858,10.46144387
11.80912055,-12.08353615,-0.02394201607,-4.062960148,12.74833574
11.81412547,-12.67729759,0.55784899,-7.867346764,14.93051288
11.81912978,-11.44907284,0.423773706,-4.553771496,12.32873423
11.82413463,-9.538499832,-0.2442085743,0.7110779285,9.568084902
11.82910886,-6.641515732,-1.716642618,4.888959885,8.423688138
11.83411309,-3.873818398,-3.579331636,6.253654957,8.180848627
11.83911986,-1.367089152,-5.793968201,8.078036308,10.0346236
11.84412424,0.0359130241,-8.130708694,11.30542088,13.92559711
11.84912886,0.5482721925,-10.75714779,14.13057804,17.76766914
11.85413409,0.2082955539,-12.2607069,14.2095871,18.76914186
11.85866055,0.08379705995,-13.32612705,12.72757626,18.42780186
11.86411255,0.2633621991,-14.09466553,10.83855152,17.7821021
11.86911778,0.5219359994,-14.79616642,7.905653954,16.7838709
11.87412209,1.165976286,-15.20557499,4.402936935,15.87308619
11.87912824,2.219424963,-15.4665432,0.04788403213,15.62504715
11.88413194,3.730166197,-15.81849098,-4.922478676,16.9814485
11.88913709,5.018246651,-16.08185196,-9.722852707,19.45103151
11.89411132,4.757278919,-15.89989376,-11.42752457,20.15010278
11.89911647,3.53384161,-15.10262394,-10.97502041,19.00074628
11.9041214,2.384624958,-13.97495556,-9.026140213,16.80645787
11.9091264,1.206677675,-12.45942593,-5.865794182,13.82392516
11.91368324,0.3112462163,-11.42273617,-3.751713991,12.02709997
11.91910517,-0.3974374831,-10.52969933,-2.391807556,10.80524261
11.92411032,-1.307234168,-9.660603523,-1.22822547,9.825714193
11.92911524,-2.233790159,-8.556877136,0.349553436,8.850545317
11.93412047,-3.028665066,-7.824251175,1.199495077,8.475288017
11.93867686,-3.742137194,-7.134721279,0.988805294,8.116992942
11.94409924,-4.120420933,-6.670246124,0.7637503147,7.877395925
11.9491347,-4.378994942,-6.337451935,0.8667010069,7.751778142
11.95410886,-4.443638325,-6.239289761,0.9744400978,7.721670272
11.95911563,-4.323928356,-6.169857979,1.192312479,7.627916685
11.96412024,-3.921702385,-6.136339188,1.051054597,7.357929327
11.96912294,-3.277662039,-6.387730122,0.5913678408,7.203879543
11.97412917,-2.499546528,-6.689399719,0.2442085743,7.1453089
11.97913401,-1.642422318,-7.070077419,-0.1795651317,7.260563988
11.98410732,-0.6416460276,-7.481880188,-0.5434837937,7.528985018
11.98911347,0.08379705995,-7.99423933,-1.019929886,8.059475255
11.9941174,0.5722141862,-8.36294651,-1.26413846,8.477284321
11.99912209,0.8978256583,-8.73404789,-1.41018486,8.892598315
12.00412724,1.211466074,-9.121908188,-1.659181833,9.350387339
12.00913186,1.405396342,-9.402029991,-1.848323703,9.684503464
12.01413678,1.522712231,-9.607931137,-1.936909199,9.918800861
12.01911155,1.505952835,-9.792284966,-1.968033791,10.10098489
12.02411594,1.553836942,-9.81143856,-1.836352706,10.10202589
12.02912086,1.446097851,-9.797073364,-1.812410712,10.06770471
12.03412547,1.22822547,-9.718064308,-1.841141105,9.966900836
12.03868486,0.921767652,-9.502586365,-1.687912226,9.695248883
12.04365809,0.5291185975,-9.251194954,-1.484405041,9.384456984
12.04911124,0.07422025502,-8.971074104,-1.33835876,9.070660582
12.05411555,-0.3088520169,-8.729259491,-1.276109457,8.827446753
12.05867347,-0.6655880809,-8.492233276,-1.118092179,8.591342365
12.06412478,-1.072602391,-8.386888504,-0.9074024558,8.503749402
12.06913009,-1.326387763,-8.233659744,-0.517147541,8.355830232
12.07413432,-1.484405041,-8.118738174,-0.2059013397,8.255892637
12.07910947,-1.544260144,-8.027758598,0.0191536136,8.174962652
12.0841134,-1.455674648,-7.99423933,0.141257897,8.126918539
12.08911809,-1.290474772,-8.068459511,0.1915361285,8.173252113
12.09412394,-1.134851575,-8.116343498,0.2681505978,8.199684422
12.09912855,-1.027112484,-8.269572258,0.2729389966,8.337582448
12.1041334,-0.8499416113,-8.602366447,0.1628057212,8.645785964
12.10910755,-0.7541735172,-8.870517731,-0.004788403399,8.902521296
12.11366424,-0.6799532771,-9.076418877,-0.1723825186,9.103484597
12.11911863,-0.6153098345,-9.205705643,-0.4932055473,9.239419586
12.12412271,-0.5195417404,-9.198522568,-1.027112484,9.270258956
12.12912671,-0.4620809257,-9.157821655,-1.544260144,9.29859966
12.13368448,-0.3734954596,-9.13866806,-2.085349798,9.381014687
12.13910601,-0.1987187415,-9.236829758,-2.56658411,9.588840759
12.14366386,0.03112462163,-9.30386734,-2.97599268,9.768287908
12.14911709,0.282515794,-9.416395187,-3.320757866,9.988781022
12.15412148,0.4716577232,-9.552865028,-3.521870613,10.19231396
12.15912578,0.5889736414,-9.684545517,-3.509899616,10.31778596
12.16413071,0.7134721279,-9.890447617,-3.361459255,10.47040615
12.16868878,0.7350199223,-10.08677197,-3.088520288,10.57460073
12.17410971,0.7541735172,-10.24718285,-2.798821688,10.64926931
12.17911494,0.7829039693,-10.40280628,-2.480392933,10.7230437
12.18367224,0.825999558,-10.56082344,-2.133233786,10.80573706
12.18912486,1.039083481,-10.74757099,-1.594538331,10.91478489
12.19412948,1.352723956,-10.84573364,-1.209071875,10.99643829
12.19913624,1.853112102,-10.85052204,-0.9792284966,11.05109685
12.2041094,2.26970315,-10.76193619,-1.024718285,11.04630574
12.20866671,2.67432332,-10.67335129,-1.323993564,11.08266177
12.21411832,3.047818661,-10.69489861,-1.690306425,11.24843058
12.21912332,3.397372246,-10.89122391,-1.965639591,11.57690094
12.22368117,3.60566783,-11.08275986,-1.991975784,11.82355167
12.22910263,3.727771997,-11.45864964,-1.872265697,12.19435584
12.23366078,3.651157618,-11.77229023,-1.752555609,12.44946667
12.23911286,3.414131641,-12.16493893,-1.553836942,12.73013917
12.24411771,3.064578056,-12.46421432,-1.537077546,12.92713753
12.24912332,2.504334927,-12.74672985,-1.683123827,13.09899695
12.25367986,1.865083098,-12.96939087,-2.030282974,13.25917356
12.25910117,0.8355764151,-13.25190639,-2.602497339,13.53086115
12.26413686,-0.03351882473,-13.44344234,-3.095702887,13.79531232
12.26911163,-0.9385270476,-13.57272911,-3.758896589,14.11485431
12.27411709,-1.774103403,-13.61821938,-4.515464306,14.45658188
12.2791224,-2.741360903,-13.46738434,-5.030217648,14.6351833
12.28412609,-3.148375273,-13.35725117,-5.212177277,14.67975536
12.28913071,-3.107673883,-13.32852077,-5.054159641,14.58943565
12.29413555,-2.552218914,-13.5128746,-4.508281708,14.47191091
12.29911063,-1.431732655,-13.96537876,-3.325546265,14.42708981
12.30411471,-0.4620809257,-14.24550056,-2.018311977,14.39518629
12.30911894,0.4477157295,-14.57111168,-0.9074024558,14.60620156
12.31412386,1.18991828,-14.77701283,-0.06224924326,14.82497516
12.31913001,1.460463047,-14.86559868,0.4309563041,14.94338314
12.3241344,1.175553083,-14.82489681,0.03830722719,14.87148137
12.32910855,0.7757213712,-14.568717,-0.7829039693,14.61034556
12.3341144,0.14844051,-14.2095871,-1.505952835,14.28993681
12.33911901,-0.8355764151,-13.84566879,-1.8579005,13.9947321
12.34412455,-1.845929503,-13.59906578,-1.685518026,13.82689469
12.34912878,-2.949656487,-13.36443424,-1.395819545,13.75706685
12.35413317,-4.09408474,-13.23514652,-1.146822572,13.90128898
12.35913932,-4.972756863,-13.25908947,-0.9313444495,14.19151743
12.36411278,-5.556941986,-13.49372101,-0.3136404157,14.59652291
12.36911748,-6.191405773,-13.6062479,0.9816226959,14.98089018
12.3741224,-7.043741226,-13.53921032,2.334346771,15.43935495
12.37867994,-8.075642586,-13.38598156,3.239354849,15.96539775
12.38365432,-9.452308655,-13.26148319,3.102885485,16.57832844
12.38910694,-10.42914295,-13.30936718,2.262520552,17.05946297
12.39411194,-10.92713642,-13.42428875,1.053448796,17.34138383
12.39911617,-10.53688145,-13.9007349,-0.6081272364,17.45354177
12.40412109,-9.457097054,-14.28859615,-1.589749932,17.20836917
12.40912632,-8.145073891,-14.5878706,-2.396595955,16.87874016
12.41413132,-6.720524311,-14.64533138,-2.659958124,16.33176523
12.41913586,-5.662287235,-14.42506504,-2.315192938,15.66857098
12.42410971,-4.683058739,-14.14973164,-2.200271368,15.06609235
12.42911555,-4.46039772,-13.52963352,-2.700659513,14.49964458
12.43411994,-3.282450438,-12.8640461,-2.363077164,13.48489142
12.43867925,-2.140416384,-12.61026001,-1.975216389,12.94223781
12.44409963,-1.036689281,-12.02368069,-1.711854219,12.18909623
12.44913471,-0.3447650373,-11.64300251,-1.407790542,11.73287026
12.45410909,1.893813491,-11.93270111,0.141257897,12.08287379
12.45911378,3.335123062,-12.40435886,0.2513911724,12.84734845
12.46411932,3.361459255,-12.35647488,0.2418143749,12.80782393
12.46912425,3.514688015,-12.26310158,-0.05746084079,12.75695865
12.47412794,3.557783842,-12.05480576,-0.4716577232,12.57770363
12.47868571,3.967192173,-11.96861458,-0.3280056417,12.61324448
12.48410855,3.895366192,-11.65976238,-0.07900865376,12.29350149
12.48911225,3.270479441,-11.11149025,0.2035071403,11.58458745
12.49411717,2.56658411,-10.25915432,0.316034615,10.580051
12.49912201,1.939303398,-9.648633003,0.4740519226,9.853006735
12.50412701,1.163581967,-9.121908188,0.8643068075,9.236349833
12.50913217,0.3950432837,-8.473079681,1.221042871,8.569719026
12.51413709,-0.4309563041,-7.673416615,1.788468719,7.890859664
12.51911409,-0.9983820915,-7.038952827,1.963245392,7.375497012
12.52411709,-1.422155857,-6.342240334,2.08295536,6.825338289
12.52912078,-1.879448295,-5.801150799,2.00873518,6.420334376
12.53412724,-2.657563925,-5.27682066,1.742978811,6.159988427
12.53913124,-2.961627483,-4.932055473,1.532289028,5.953513098
12.54413563,-3.071760893,-4.604049683,1.290474772,5.683160529
12.54911001,-3.074155092,-4.30956316,0.9696516991,5.381727286
12.55411563,-3.047818661,-4.218583584,0.5195417404,5.23025522
12.55912055,-2.865859509,-4.230554581,0.04788403213,5.110091551
12.56412417,-2.719813108,-4.280832767,-0.3471592367,5.083643581
12.56912886,-2.573766708,-4.367023945,-0.5506663918,5.098863273
12.57368794,-2.518700123,-4.46039772,-0.7350199223,5.174867382
12.57910917,-2.53067112,-4.635174274,-0.9504981041,5.365872111
12.58411371,-2.542642117,-4.675876141,-1.07739079,5.430434378
12.58911809,-2.477998734,-4.764461517,-0.9696516991,5.457178363
12.59367655,-2.461239338,-4.802768707,-0.8834604025,5.468527098
12.59909955,-2.461239338,-4.769249916,-0.7469909191,5.418619683
12.60413371,-2.363077164,-4.747702122,-0.5051765442,5.32728941
12.60910817,-2.274491549,-4.735731125,-0.2777273953,5.260949876
12.6141134,-2.250549555,-4.699818134,-0.09337386489,5.211715886
12.6186704,-2.233790159,-4.699818134,0.01197100803,5.203676804
12.62412232,-2.214636564,-4.680664539,0.1053448766,5.179221291
12.62912694,-2.255337954,-4.637568474,0.2394201756,5.162452194
12.63413224,-2.317587137,-4.525041103,0.3351882398,5.095052334
12.63913771,-2.410961151,-4.426878929,0.423773706,5.058613929
12.64411186,-2.475604534,-4.350264549,0.4548983276,5.025967762
12.64911624,-2.410961151,-4.295197964,0.4716577232,4.948122899
12.65412117,-2.41574955,-4.256890774,0.4501099288,4.915237929
12.6591264,-2.389413357,-4.228160381,0.3543418646,4.869516871
12.6641304,-2.324769735,-4.223371983,0.2178723514,4.825856772
12.66913655,-2.217030764,-4.225766182,0.01675941236,4.772065183
12.67411032,-2.142810583,-4.199429989,-0.215478152,4.719457624
12.67911678,-2.099714994,-4.218583584,-0.4405331016,4.73279198
12.68412048,-2.085349798,-4.230554581,-0.739808321,4.774263524
12.68867655,-2.11647439,-4.254496574,-1.086967587,4.874597776
12.69409986,-2.075772762,-4.311957359,-1.592144132,5.04348409
12.69913471,-2.066195965,-4.304774761,-2.109291792,5.220092276
12.70366201,-2.04704237,-4.350264549,-2.784456491,5.555932151
12.70911378,-2.094926596,-4.374206543,-3.737348795,6.122922206
12.71367132,-2.118868589,-4.359841347,-4.414907932,6.556617475
12.71912394,-2.090138197,-4.49870491,-5.731719017,7.580212823
12.72412794,-1.958456993,-4.675876141,-6.835445881,8.510152282
12.7291334,-1.771709204,-5.032611847,-7.857769966,9.49793053
12.73410732,-1.89860189,-5.597643375,-8.681375504,10.50259878
12.73866571,-2.066195965,-6.287173748,-9.488221169,11.56823498
12.74411648,-1.862688899,-7.431602001,-9.861717224,12.4880657
12.74912263,-1.680729628,-9.22725296,-9.572018623,13.40114136
12.75412694,-1.666364431,-10.723629,-8.947132111,14.06499777
12.75913471,-1.517923832,-12.38520527,-8.370129585,15.02519456
12.76410702,-1.465251446,-14.12818432,-8.116343498,16.35932718
12.76911094,-1.74776721,-16.66124916,-9.006986618,19.02045535
12.77411586,-1.359906554,-18.91658783,-11.0037508,21.92644916
12.77912117,-0.9816226959,-21.18389702,-13.11783123,24.93588924
12.78412663,-0.457292527,-23.08489227,-15.05713463,27.56517134
12.7891304,1.618480325,-23.76245117,-16.12255478,28.76126452
12.79413594,3.301604033,-23.21896744,-14.82010841,27.74268645
12.79911063,4.292803764,-21.45923042,-13.34528065,25.63246477
12.80411432,4.041412354,-18.43774796,-12.58152962,22.6843217
12.80911994,2.375048161,-13.40513515,-12.74912453,18.65150606
12.81367748,1.18991828,-9.296685219,-13.18726254,16.17863266
12.81865255,0.4668693244,-5.75805521,-13.50569153,14.68934547
12.82365678,0.1867477298,-3.205836058,-13.47217274,13.84961002
12.82866209,0.2011129409,-1.656787634,-12.71560478,12.82466361
12.83366663,0.5195417404,-0.8643068075,-10.6350441,10.68274837
12.83867248,0.6560112834,-1.11569798,-8.255207062,8.356050288
12.84412363,0.3184288144,-2.389413357,-4.888959885,5.450928531
12.84912848,-0.3519476354,-3.56496644,-1.422155857,3.854267783
12.85413378,-1.539471745,-4.759673119,2.200271368,5.464947899
12.85910794,-3.229778051,-6.35660553,5.094861031,8.763304687
12.86411278,-5.324704647,-8.853757858,7.122750282,12.5489075
12.86911748,-6.811503887,-11.13543224,7.592013359,15.10076499
12.87412271,-8.137891769,-13.55836391,7.872135162,17.66423014
12.87912786,-8.971074104,-15.92383575,7.793126583,19.86911014
12.88413225,-8.925583839,-19.03390312,6.033388138,21.87138055
12.8891374,-8.65743351,-21.95243454,2.7509377,23.7576976
12.89411155,-7.934384346,-24.80632401,-2.145204782,26.13254808
12.89911678,-6.306327343,-26.97307587,-6.967126846,28.56321835
12.90412117,-2.226607561,-27.61711693,-12.50012684,30.39598822
12.90867871,1.987187386,-26.34340096,-14.43943024,30.1068237
12.91410017,3.165134668,-21.82314873,-12.32774448,25.26343567
12.9191374,1.252167463,-16.6157589,-4.843470097,17.35253784
12.92411032,-1.70946002,-9.672574997,6.598419666,11.83300903
12.9291144,-3.778050184,-5.339069843,9.126696587,11.22835342
12.93411955,-5.422866821,-2.22900176,7.785943985,9.746633119
12.9386774,-7.671022415,0.1149216816,5.104437828,9.214829213
12.94409932,-9.500192642,1.886630893,0.4405331016,9.69572616
12.94913525,-10.02452278,2.650381327,-2.410961151,10.6455771
12.95410848,-9.524134636,2.7533319,-0.7948749661,9.945944064
12.9586664,-8.456320763,2.226607561,2.147598982,9.00440578
12.96367094,-6.974309444,1.137245774,4.237737179,8.239704884
12.96867625,-4.378994942,-1.125274777,5.250484467,6.928883543
12.97365032,-2.738966703,-3.586514235,7.02937603,8.353271834
12.97865586,-2.207453966,-6.222530365,10.43393135,12.34745563
12.98410702,-2.181117773,-9.193734169,13.84566879,16.76259428
12.98911255,-1.905784607,-11.26471901,14.46816063,18.43511815
12.99411778,-1.802833915,-12.90235329,13.51526833,18.77187813
12.99912509,-1.695094824,-14.35084534,11.79383755,18.65247202
13.00412763,-1.364694953,-15.8304615,8.487444878,18.01395637
13.00913194,-0.6009446383,-17.01559067,4.742913723,17.67446437
13.01413748,0.9648633003,-18.20790482,0.141257897,18.23399881
13.01866417,3.512293816,-19.38345718,-5.070919037,20.34130871
13.02411617,5.944802761,-20.24776459,-10.10353088,23.39645244
13.02912109,6.43082571,-19.81441307,-11.8824234,23.98246173
13.03412578,5.255272865,-18.20790482,-10.97262669,21.89849828
13.03913009,3.696647406,-15.5551281,-8.137891769,17.9402479
13.04413648,2.540247917,-13.37401104,-6.076483727,14.90773911
13.04866332,1.371877551,-11.47301483,-3.888183594,12.19139405
13.05411532,0.8810662031,-10.13465595,-2.317587137,10.43353914
13.05867371,0.2729389966,-9.210494041,-1.620874524,9.356010389
13.06367709,-0.5051765442,-8.485051155,-1.182735682,8.581967148
13.06909894,-1.733402014,-7.709329605,-0.3734954596,7.910622249
13.07413463,-2.612074137,-6.976703644,1.149216771,7.53777316
13.07911132,-3.222595453,-6.200982571,1.745373011,7.203029449
13.08411525,-3.588908434,-5.916072369,1.419761658,7.063702937
13.08911955,-3.960009575,-5.805939198,0.7924807668,7.07238514
13.09412394,-4.067748547,-5.91128397,0.1675941199,7.17760017
13.09912855,-3.857059002,-6.002263546,-0.01197100803,7.134718994
13.10413409,-3.433285236,-6.057330132,0.3447650373,6.971194931
13.10910786,-2.82276392,-6.263231754,0.7661445141,6.912528161
13.11411279,-2.049436569,-6.572083473,0.9313444495,6.946932698
13.11911748,-1.070208192,-7.084442616,0.6296750307,7.192437931
13.1241224,-0.5291185975,-7.501033783,0.1987187415,7.52229775
13.12912763,-0.1795651317,-7.967903137,-0.3687070608,7.978450284
13.13413225,0.02633621916,-8.432378769,-0.9241618514,8.482911082
13.13913717,0.2322375625,-8.963891029,-1.501164436,9.091686936
13.14411132,0.3950432837,-9.299078941,-1.872265697,9.493908952
13.1491174,0.5482721925,-9.507374763,-1.965639591,9.723914659
13.15367378,0.6895300746,-9.627084732,-1.908178806,9.838564861
13.15912848,0.7182605267,-9.660603523,-1.802833915,9.853596741
13.16413194,0.5482721925,-9.643844604,-1.704671621,9.808682199
13.16913563,0.3184288144,-9.533711433,-1.613691926,9.674556953
13.1741104,0.2513911724,-9.263166428,-1.467645645,9.382080448
13.17911525,-0.02633621916,-8.987833023,-1.364694953,9.090887105
13.18411902,-0.3016694188,-8.781931877,-1.434126854,8.903373056
13.1891254,-0.6272808313,-8.540117264,-1.467645645,8.687984108
13.1941294,-0.8595184088,-8.276755333,-1.312022567,8.424063981
13.19913432,-1.089361787,-7.922413349,-0.9576807022,8.054098007
13.20410886,-1.101332784,-7.718906403,-0.739808321,7.832098461
13.20911494,-1.043871999,-7.637503624,-0.6224924326,7.733603764
13.21411809,-0.9696516991,-7.558494568,-0.4333505034,7.632748994
13.21912332,-0.8116343617,-7.522581577,-0.2035071403,7.568976092
13.22412917,-0.6799532771,-7.58722496,-0.0191536136,7.617656196
13.22868602,-0.4836287498,-7.639897823,0.07422025502,7.655549893
13.23410786,-0.2418143749,-7.726089001,0.1316810995,7.730993814
13.23911555,-0.05506663769,-7.896077156,0.141257897,7.897532563
13.2441184,0.08858546615,-8.044517517,0.0359130241,8.045085407
13.24912209,0.2011129409,-8.283937454,-0.08379705995,8.286802043
13.25412663,0.2681505978,-8.482656479,-0.3064578176,8.492424982
13.25913309,0.2633621991,-8.566453934,-0.5722141862,8.589582162
13.26413686,0.2442085743,-8.683769226,-0.8044517636,8.724369802
13.26911163,0.181959331,-8.841787338,-0.9983820915,8.899835916
13.27411594,0.05506663769,-8.975862503,-1.326387763,9.073502329
13.27912117,-0.01197100803,-8.985439301,-1.757344007,9.155682426
13.2841264,-0.0143652102,-9.054870605,-2.128445387,9.301675538
13.28913009,0.1268926859,-9.251194954,-2.403778553,9.559229109
13.29413625,0.3591302633,-9.497797966,-2.602497339,9.854447379
13.29911094,0.6081272364,-9.725247383,-2.841917515,10.15020939
13.30411532,0.895431459,-9.907206535,-3.088520288,10.41602114
13.30911994,1.158793569,-10.14902115,-3.325546265,10.74265753
13.31412455,1.407790542,-10.44829655,-3.45722723,11.09509779
13.31913094,1.484405041,-10.74038887,-3.485957623,11.38908741
13.32368694,1.343147159,-11.04445267,-3.292027235,11.60264721
13.32910971,1.142034173,-11.33654499,-3.08373189,11.80385093
13.33411409,1.017535686,-11.65018559,-3.01429987,12.07676309
13.33867102,1.039083481,-11.75553036,-3.016694069,12.1808305
13.34412332,1.163581967,-11.70525169,-3.002328873,12.1400502
13.34912909,1.312022567,-11.55681133,-2.901772499,11.98755918
13.35368579,1.63523972,-11.42752457,-2.604891539,11.83417875
13.35910763,2.128445387,-11.32457447,-2.109291792,11.71432365
13.36411348,2.382230759,-11.40358257,-1.601720929,11.75934645
13.36867125,2.497152328,-11.55202293,-1.192312479,11.87883044
13.37367555,2.446874142,-11.84650993,-1.079784989,12.14466658
13.37909686,2.190694571,-12.2511301,-1.359906554,12.51953183
13.3836854,1.699883223,-12.59110641,-2.001552582,12.86202847
13.38910579,1.098938584,-12.93587208,-2.832340717,13.28783678
13.39411125,0.3471592367,-13.36443424,-3.713406801,13.87508603
13.39911779,-0.1771709323,-13.69483376,-4.328716755,14.36376169
13.40412148,-0.6153098345,-13.95340729,-4.687847137,14.73268787
13.40912571,-1.132457376,-14.07790565,-4.735731125,14.8962088
13.41413009,-1.479616642,-14.02762794,-4.517858505,14.81130165
13.41913625,-1.726219416,-14.01565647,-4.42448473,14.7984636
13.42366294,-1.776497602,-13.82412052,-3.737348795,14.43017768
13.42866825,-1.707065821,-13.65652657,-2.693476915,14.02389423
13.43411994,-1.144428372,-13.5080862,-1.776497602,13.67238286
13.43912486,-0.5937620401,-13.57512379,-1.441309452,13.66432992
13.44412979,-0.004788403399,-13.8025732,-1.805228114,13.92012566
13.44913471,0.7445967197,-14.19761562,-3.19625926,14.57198638
13.45410886,1.024718285,-14.32929707,-3.574543238,14.80392385
13.45911317,0.5099649429,-14.14733791,-3.643975019,14.61799536
13.4641184,-0.4070142806,-13.97016716,-3.514688015,14.41125473
13.46912448,-1.510741234,-14.01805115,-2.430114746,14.30711553
13.47368117,-2.090138197,-14.22155857,-1.601720929,14.46329547
13.47865656,-3.043030262,-14.82729149,-0.3280056417,15.13988751
13.48410825,-4.120420933,-15.16487312,0.2178723514,15.71619273
13.4891134,-5.346252441,-15.36838055,1.273715258,16.32151606
13.49411871,-6.150704384,-15.43062973,2.322375536,16.7728628
13.49867556,-6.603208065,-15.38753414,3.409343243,17.08807143
13.50412763,-6.789956093,-15.29176617,4.290409565,17.27278873
13.50913225,-6.955155849,-15.14093113,4.46039772,17.24868506
13.51368971,-6.993463039,-15.06431675,4.034229755,17.0914357
13.51911163,-7.026981831,-15.11220074,3.502717018,17.030153
13.52411563,-6.758831501,-15.452178,2.817975283,17.09949101
13.5291214,-5.743690014,-15.76342392,1.991975784,16.89507254
13.53412517,-4.723760128,-15.8208847,1.312022567,16.56308262
13.53913102,-3.610456228,-15.78736591,0.4644751251,16.20160652
13.54413532,-2.516305923,-15.66286755,-0.538695395,15.87285129
13.54911032,-1.869871497,-15.12417221,-2.190694571,15.39597828
13.55411525,-1.920149803,-14.43464184,-3.598485231,14.99983187
13.55912117,-0.457292527,-14.1904335,-3.280056238,14.57176339
13.5641254,0.8188169599,-13.87439919,-2.839523315,14.18563734
13.56868294,1.611297727,-13.43147182,-2.133233786,13.69494075
13.57410456,2.966415882,-13.63497829,0.1604115069,13.95485536
13.57910909,3.859453201,-13.90791798,0.2992752194,14.43658987
13.58411348,4.292803764,-13.8911581,-0.08619125932,14.53959651
13.58911863,4.419696331,-13.8217268,-0.3926490843,14.51647411
13.59412417,4.280832767,-13.69004536,-0.06224924326,14.34387486
13.59912909,3.643975019,-13.41231823,0.2537853718,13.90083599
13.60413371,2.78924489,-13.02685165,0.4764461517,13.33063209
13.60866048,2.197877169,-12.5456171,0.7996633649,12.76176454
13.61411286,1.26413846,-11.76271248,1.113303781,11.88271418
13.61911779,0.6392518282,-10.97741508,1.235408068,11.06519399
13.62412202,0.009576806799,-10.15859795,1.503558636,10.26926933
13.62912732,-0.4477157295,-9.153033257,1.63763392,9.309152057
13.63413194,-1.15161097,-8.410830498,2.04464817,8.73205953
13.63913986,-1.81959331,-7.788338184,2.511517525,8.383128996
13.64411217,-2.418143749,-7.038952827,2.748543501,7.934025931
13.64911556,-2.786850691,-6.442796707,2.7509377,7.53948436
13.65412148,-2.913743496,-5.868188381,2.844311714,7.142523725
13.65912632,-2.985569477,-5.329493046,2.801215887,6.72041157
13.66413071,-3.107673883,-4.764461517,2.545036316,6.231768639
13.66913586,-3.181894064,-4.367023945,2.281674147,5.865269378
13.67411002,-3.232172251,-4.031835556,2.142810583,5.594128404
13.67911594,-3.268085241,-3.797203779,1.922544003,5.366126455
13.68412025,-3.148375273,-3.624821424,1.45088625,5.015642344
13.68912486,-2.868253708,-3.636792421,1.046266198,4.74845358
13.69368263,-2.523488522,-3.703830004,0.6751648784,4.532350232
13.69865779,-2.353500366,-3.797203779,0.4405331016,4.489074507
13.70410879,-2.363077164,-3.897760391,0.3471592367,4.571344363
13.70911371,-2.406172752,-3.969586372,0.2944868207,4.651237015
13.71411863,-2.552218914,-4.029441357,0.2346317619,4.775486477
13.71912456,-2.595314741,-4.086902142,0.2513911724,4.847847485
13.72412909,-2.748543501,-4.185064793,0.2609679997,5.013717482
13.72913402,-2.997540474,-4.343081951,0.4094084799,5.292941057
13.73410817,-2.8993783,-4.311957359,0.5003881454,5.220130179
13.73911286,-2.808398485,-4.242525578,0.653617084,5.12965307
13.74411748,-2.856282711,-4.19464159,0.8427590132,5.144279517
13.74912232,-2.97359848,-4.058171749,0.9672574997,5.123146781
13.75412609,-2.985569477,-3.871424198,1.051054597,5.00062658
13.75913225,-2.885013103,-3.658340216,1.106121182,4.788554877
13.76413648,-2.7509377,-3.299209833,1.120486379,4.439361832
13.76911132,-2.67432332,-3.114856482,1.036689281,4.234272168
13.77366948,-2.504334927,-3.086126089,0.9289502501,4.081521313
13.77867409,-2.293645144,-3.126827478,0.7374141216,3.947358321
13.78412548,-2.099714994,-3.315969467,0.4668693244,3.952521161
13.78913102,-1.97042799,-3.500322819,0.1867477298,4.021159163
13.79413625,-1.810016513,-3.634398222,-0.1556231081,4.063155026
13.79911225,-1.666364431,-3.749319792,-0.5003881454,4.133347023
13.80411502,-1.371877551,-3.888183594,-0.9576807022,4.232868059
13.80911994,-1.18991828,-4.022258759,-1.44849205,4.437634533
13.8141254,-1.072602391,-4.173093796,-1.996764183,4.748921448
13.81913002,-1.053448796,-4.338293552,-2.808398485,5.274243772
13.82413525,-1.161187768,-4.644751072,-3.833117008,6.133095104
13.82910825,-1.381454349,-4.90811348,-4.994304657,7.137301525
13.8341134,-1.716642618,-5.149928093,-5.928043365,8.038054453
13.83911871,-2.157175779,-5.386953831,-7.10359621,9.172445587
13.84412394,-2.698265314,-5.659893036,-7.69257021,9.924246133
13.84912786,-3.19625926,-6.086060524,-8.322244644,10.79425597
13.85413409,-3.622427225,-6.607996464,-8.959102631,11.7069687
13.85910825,-4.031835556,-7.534552574,-9.782708168,12.9894788
13.86411286,-3.916913986,-8.70771122,-10.46745014,14.16806135
13.86867032,-3.56496644,-10.12029076,-10.56561184,15.05859968
13.87412302,-2.8969841,-11.73877048,-9.519346237,15.38860624
13.87868117,-2.509123325,-13.5080862,-7.639897823,15.72043675
13.88410271,-2.987963676,-15.78497219,-6.883329868,17.47780032
13.88865925,-3.301604033,-17.73145866,-9.263166428,20.2758839
13.89366425,-2.983175278,-19.73301125,-12.69166279,23.65099093
13.89866909,-2.197877169,-21.63161278,-16.00763321,27.00003067
13.90412179,-0.3758896589,-22.36902618,-17.87750435,28.63773363
13.90912571,1.826775908,-22.08411598,-16.64688492,27.71577288
13.91413102,3.454833031,-20.90377426,-14.90629959,25.9056252
13.91913594,4.065354347,-18.01157951,-12.95502567,22.55608106
13.92410948,3.378218651,-14.53759289,-12.48097324,19.45581305
13.92911525,2.509123325,-10.54645824,-13.13937855,17.03428161
13.93412056,2.372653961,-7.007828236,-14.12100124,15.9418261
13.93867748,2.343923569,-4.465186119,-14.71236992,15.5526748
13.94365217,1.771709204,-2.956839085,-14.12578964,14.54028142
13.9486574,1.786074519,-2.571372509,-12.04283428,12.44314576
13.95366171,1.544260144,-3.339911461,-9.732429504,10.40480331
13.95911625,0.806845963,-5.032611847,-6.449979305,8.220730834
13.96411932,0.282515794,-6.804321289,-3.349488258,7.589313208
13.96912294,-1.668758631,-8.635885239,-0.3615244627,8.803065895
13.97412856,-3.768473387,-10.66377449,2.04464817,11.4933922
13.97868663,-5.674258232,-12.9239006,3.971980572,14.66291386
13.98410732,-7.738059998,-15.82806778,6.268020153,18.70009034
13.98911317,-8.829815865,-17.98524284,7.58961916,21.42514708
13.99411779,-8.65743351,-20.17354393,8.200140953,23.43427706
13.9991224,-7.730877399,-22.75209808,6.402095318,24.86787601
14.00367956,-5.779603004,-23.92525673,2.255337954,24.71655861
14.00910202,-2.736572504,-23.36980247,-2.707842112,23.68478215
14.01413625,1.036689281,-20.98278427,-6.517016888,21.99598758
14.01911132,2.707842112,-17.12093544,-6.284779549,18.43793083
14.02411625,2.351106167,-13.5368166,-5.207388878,14.6931958
14.02912056,0.691924274,-9.40681839,-2.683900118,9.80664628
14.0341264,-2.810792685,-4.163516521,2.870647907,5.785848663
14.03913248,-4.843470097,-1.233013868,4.984727859,7.058826929
14.04413617,-6.835445881,0.4094084799,4.733336926,8.324386713
14.0491104,-8.317456245,1.15161097,2.291250944,8.703799005
14.05411502,-9.516951561,1.707065821,-4.548983097,10.6854896
14.05911925,-9.212887764,1.630451322,-4.709394932,10.47444858
14.06412571,-7.51061058,0.7134721279,0.3375824392,7.551971641
14.06916,-5.68383503,-0.7038952708,4.486733913,7.275453966
14.07409439,-2.873042107,-3.148375273,5.528211594,6.980527289
14.07909846,-0.7541735172,-5.777208805,6.404489517,8.658083232
14.08410362,-0.1771709323,-8.525752068,9.660603523,12.88592637
14.08910954,-0.7302315235,-10.61828423,12.99093819,16.79421546
14.09411385,-0.873883605,-12.24155331,14.66927338,19.12607857
14.09911785,-1.029506683,-13.90312958,14.02283955,19.77364218
14.10412339,-1.015141487,-14.95418358,12.05241108,19.23327147
14.10865077,-0.7996633649,-15.78497219,9.358934402,18.36830046
14.11410216,0.04548983276,-16.46492577,5.473145008,17.35082609
14.119108,2.23139596,-16.95334244,-0.9720458984,17.12716617
14.12411192,4.611232281,-17.43697166,-6.540958881,19.18581734
14.12911839,5.995080948,-17.59498787,-10.16817474,21.18764667
14.134123,5.700594425,-17.12811852,-11.41076565,21.35590769
14.13868,4.699818134,-15.95495987,-10.39562416,19.61423046
14.14365377,3.912125587,-14.39872932,-8.607154846,17.22530834
14.14910669,2.679111719,-12.5551939,-5.961562157,14.15453132
14.15366454,1.30005157,-11.22162342,-4.019864559,11.9905912
14.15911569,0.5099649429,-10.05804157,-2.652775526,10.41448427
14.16412116,-0.5075707436,-8.801085472,-0.5913678408,8.835522026
14.16912577,-1.204283476,-8.001421928,0.5506663918,8.110258013
14.17410023,-2.372653961,-7.225700855,0.8427590132,7.651828698
14.17910608,-3.507505417,-6.4691329,0.5722141862,7.38103677
14.18410892,-4.185064793,-5.899312973,0.6224924326,7.259762923
14.18911623,-4.553771496,-5.600037575,0.7038952708,7.25208413
14.19412062,-4.994304657,-5.396530628,0.4716577232,7.368044709
14.19867808,-5.051765442,-5.339069843,0.141257897,7.351595382
14.20409908,-4.687847137,-5.602431774,0.08858546615,7.305545835
14.20910516,-4.137180328,-5.944802761,-0.4022258818,7.25387666
14.21410954,-3.469198227,-6.229712963,-0.5770025849,7.153851545
14.21911293,-2.705447912,-6.708553314,-0.5961562395,7.258067114
14.22411816,-1.965639591,-7.237671852,-0.490811348,7.515885086
14.22912516,-1.259350061,-7.773972988,-0.5339069963,7.893394408
14.23409723,-0.4764461517,-8.384494781,-0.8188169599,8.437844209
14.23910208,-0.04070143029,-8.798690796,-1.122880578,8.870145271
14.24410608,0.2513911724,-9.090784073,-1.244984865,9.179081648
14.24911285,0.3687070608,-9.339780807,-1.369483352,9.446847891
14.25411723,0.4932055473,-9.595960617,-1.553836942,9.73345371
14.25912116,0.4309563041,-9.674968719,-1.654393315,9.824854213
14.26412669,0.3950432837,-9.574412346,-1.67115283,9.727187813
14.26910208,0.2992752194,-9.43315506,-1.472434044,9.55207004
14.27410585,0.1532289088,-9.203310966,-1.271321058,9.291967987
14.27911293,-0.05506663769,-8.923190117,-1.027112484,8.982277787
14.28411508,-0.2729389966,-8.714894295,-0.9385270476,8.769533128
14.28867316,-0.5458779931,-8.468291283,-0.8188169599,8.525280127
14.29409539,-0.8427590132,-8.066065788,-0.55784899,8.129136212
14.29910054,-1.335964561,-7.565677166,-0.1053448766,7.683447783
14.30410462,-1.534683347,-7.302315235,0.1149216816,7.462725223
14.30911162,-1.659181833,-7.204153061,0.2920926213,7.398514971
14.31411377,-1.78128612,-7.13232708,0.4189853072,7.363329308
14.31911962,-1.984793186,-7.196970463,0.4668693244,7.480224248
14.324124,-2.138022184,-7.316680431,0.6177040339,7.647647329
14.32910023,-2.190694571,-7.553706169,0.653617084,7.892074181
14.33410462,-2.23139596,-7.80509758,0.5698199868,8.137774326
14.33910862,-2.161964178,-8.099584579,0.3471592367,8.390344391
14.34411323,-2.078166962,-8.513781548,-0.1867477298,8.765736071
14.34911992,-2.04704237,-8.978256226,-0.9600749016,9.258575006
14.35412516,-1.982398987,-9.428366661,-1.728613615,9.788365986
14.35909931,-1.872265697,-9.816226959,-2.408566952,10.27934265
14.36410308,-1.759738207,-10.11071396,-3.026270866,10.69960423
14.36910823,-1.398213744,-10.40041256,-3.675099611,11.11890014
14.37411262,-0.9959878922,-10.55364132,-4.012681961,11.33459102
14.37911654,-0.5458779931,-10.6206789,-4.127603531,11.40762526
14.38412123,-0.141257897,-10.66856289,-4.079719543,11.4228849
14.38912669,0.2777273953,-10.65659142,-3.799597979,11.31711173
14.39365377,0.4932055473,-10.65419769,-3.483563423,11.22008887
14.39910639,0.7972691655,-10.69729328,-2.913743496,11.11564766
14.40411069,1.096544385,-10.66856289,-2.439691544,10.99876077
14.40911662,1.26653266,-10.53448772,-2.066195965,10.80965783
14.41411993,1.359906554,-10.44111347,-2.013523579,10.72009671
14.41867777,1.45088625,-10.38365269,-2.092532396,10.69130515
14.42365262,1.728613615,-10.35492229,-2.183511972,10.72288419
14.42865869,2.051830769,-10.41477776,-2.226607561,10.84598481
14.43411016,2.573766708,-10.50096893,-2.133233786,11.02022277
14.43911685,2.992752075,-10.65419769,-2.080561161,11.26042753
14.44411931,3.351882458,-10.88643551,-2.126051188,11.58747978
14.44912516,3.658340216,-11.19049835,-2.142810583,11.96671817
14.45409877,3.888183594,-11.54244614,-2.037465572,12.34897973
14.45910392,3.909731388,-12.04522896,-1.759738207,12.78554726
14.464108,3.744531393,-12.38759995,-1.570596337,13.03613902
14.46911354,3.445256233,-12.71799946,-1.426944256,13.25343241
14.4741187,3.019088268,-13.11064816,-1.383848548,13.52475604
14.479123,2.382230759,-13.64455509,-1.553836942,13.93783758
14.48409754,1.695094824,-14.13536644,-1.814804912,14.35184475
14.48865593,0.8212111592,-14.54716969,-2.240972757,14.7416584
14.49410739,-0.2992752194,-14.87517548,-2.834734917,15.1458289
14.49911262,-1.570596337,-15.20078659,-3.663128614,15.71461731
14.50411716,-2.274491549,-15.40908241,-4.01747036,16.08580743
14.50912339,-2.595314741,-15.70835781,-3.866635799,16.38410926
14.51412731,-2.480392933,-16.0363636,-3.248931646,16.54910461
14.51910277,-1.905784607,-16.39309883,-2.257732153,16.65722242
14.5241077,-0.8236053586,-16.76659393,-1.048660398,16.81953289
14.52911192,0.06943184882,-17.04671669,-0.4285621047,17.05224431
14.53366985,0.8475474119,-17.25261688,-0.1197100878,17.27383734
14.53909016,1.122880578,-17.23585892,-0.1963245422,17.27351258
14.54412454,0.8475474119,-16.98446655,-0.7924807668,17.02405552
14.54910116,0.117315881,-16.6061821,-1.070208192,16.64104541
14.55410462,-0.9648633003,-16.12255478,-1.024718285,16.18387411
14.55911016,-2.015917778,-15.60780048,-0.8020575643,15.75787602
14.56366646,-2.875436306,-15.26543045,-0.5363011956,15.54313738
14.56864177,-4.041412354,-14.71955204,-0.4740519226,15.27163879
14.57409316,-5.231330872,-14.07072353,-0.4740519226,15.01921465
14.57909908,-5.997475147,-13.79778481,-0.2130839527,15.0463942
14.58410393,-6.789956093,-13.77384281,0.5482721925,15.36628947
14.5891107,-8.204929352,-13.84327412,1.345541358,16.14829977
14.59411377,-9.050082207,-13.86721611,1.477222443,16.62485659
14.59911962,-9.528923035,-13.9198885,1.379060149,16.92529104
14.60412462,-9.52173996,-13.92946529,1.029506683,16.90424264
14.609099,-9.3685112,-13.84566879,0.5482721925,16.72639079
14.61410239,-8.920795441,-13.58709431,-0.383072257,16.25842758
14.6191077,-8.305485725,-13.43147182,-0.8690952063,15.8158419
14.62411139,-7.477091789,-13.22078133,-0.758961916,15.20762913
14.62911846,-6.742072105,-12.79700851,-0.1460463107,14.4651406
14.63412239,-6.028599739,-11.99255657,0.6296750307,13.43733302
14.63912677,-4.893748283,-11.52808094,1.091755986,12.57129085
14.64410123,-3.356670856,-11.28626728,1.37666595,11.85505283
14.64910708,-1.702277422,-11.0037508,1.417367458,11.22449155
14.654111,-0.9289502501,-10.68053341,1.108515382,10.77801229
14.65911531,-0.6416460276,-10.07001209,0.3136404157,10.095307
14.66412062,0.7613561153,-10.0412817,1.798045516,10.22936797
14.66912616,3.01429987,-10.68771648,4.137180328,11.8502974
14.67410023,5.013458252,-11.50174522,4.249708176,13.24707237
14.6791067,6.265625954,-11.97819138,1.30005157,13.58032663
14.68410923,6.517016888,-12.19606304,-0.9816226959,13.86286572
14.6891157,6.222530365,-12.16733265,-1.690306425,13.77029425
14.69367254,5.913678169,-12.11944866,-1.714248419,13.59379539
14.69864646,5.444414616,-11.89439392,-1.323993564,13.1480499
14.70365131,4.769249916,-11.52089882,-0.9481038451,12.5050292
14.70910516,3.708618402,-10.84812832,-0.4453215301,11.4731883
14.71410946,3.105279684,-10.18732834,0.09576806426,10.65052074
14.71911293,2.695871115,-9.694122314,0.7613561153,10.09075773
14.72411785,2.15478158,-8.889671326,1.592144132,9.28462508
14.72912331,1.41018486,-8.226476669,2.118868589,8.611221971
14.73409685,0.7158663273,-7.443572998,2.509123325,7.887644987
14.73910154,-0.0191536136,-6.871358871,2.564189911,7.334235441
14.744107,-0.5219359994,-6.68700552,2.149993181,7.043502729
14.74911231,-0.8236053586,-6.414066315,1.905784607,6.741705084
14.75411662,-1.034295082,-6.186617374,1.778891921,6.51985102
14.75912339,-1.26653266,-5.961562157,1.580173135,6.296131786
14.76367877,-1.493981838,-5.568912983,1.362300754,5.924579047
14.76910246,-1.924938202,-5.252878666,1.132457376,5.707940177
14.77365877,-2.126051188,-5.116408825,0.8882488012,5.611302776
14.77911131,-2.537853718,-4.886565685,0.3256114423,5.515908674
14.78411562,-2.889801502,-4.766855717,-0.05027823523,5.574620529
14.78912123,-3.148375273,-4.776432514,-0.4261679053,5.736566351
14.79412554,-3.440467834,-4.771644115,-0.8020575643,5.9370618
14.79909993,-3.703830004,-4.783615112,-1.201889277,6.168133273
14.80410485,-3.579331636,-4.848258495,-1.285686255,6.16199761
14.809111,-3.292027235,-4.953603268,-1.07739079,6.044534685
14.81366762,-2.968810081,-5.070919037,-0.8020575643,5.930543779
14.81908885,-2.722207308,-5.190629482,-0.4189853072,5.876103789
14.82367754,-2.616862535,-5.240907669,-0.1556231081,5.859974512
14.82910054,-2.71263051,-5.204994678,0.1197100878,5.870661325
14.83410339,-2.762908697,-5.178658485,0.323217243,5.878489395
14.83911016,-2.762908697,-5.190629482,0.4022258818,5.893902319
14.84411323,-2.719813108,-5.137956619,0.4070142806,5.827661812
14.84911839,-2.650381327,-5.023035049,0.2657563984,5.685598363
14.85412308,-2.621650934,-4.927267075,0.1340752989,5.582919544
14.85909662,-2.619256735,-4.774038315,-0.1580173075,5.447652443
14.86410216,-2.559401512,-4.723760128,-0.4548983276,5.391788046
14.86910885,-2.456450939,-4.718971729,-0.7541735172,5.37323209
14.87411139,-2.26970315,-4.778826714,-1.012747288,5.386501111
14.87911746,-1.886630893,-4.912901878,-1.278503656,5.415768883
14.88412147,-1.55862534,-5.013458252,-1.532289028,5.469185155
14.88912823,-1.209071875,-5.082890034,-1.817199111,5.531712077
14.89410062,-0.85473001,-5.123591423,-2.128445387,5.613557894
14.89865808,-0.5961562395,-5.173870087,-2.506729126,5.779967547
14.9041107,-0.349553436,-5.20020628,-2.93768549,5.9828362
14.90911662,-0.4165911078,-5.128379822,-3.318363667,6.122529312
14.91412093,-0.6224924326,-5.027823448,-3.701435804,6.274323268
14.91912647,-0.9289502501,-4.910507679,-4.010287762,6.407686179
14.92409939,-1.470039845,-4.747702122,-4.249708176,6.539244005
14.92910585,-1.991975784,-4.644751072,-4.407725334,6.705946814
14.93411016,-2.485181332,-4.584896088,-4.582501888,6.942385897
14.938667,-2.844311714,-4.604049683,-4.515464306,7.048177105
14.94408893,-3.074155092,-4.79079771,-4.469974518,7.237599355
14.94912485,-3.117250681,-5.23611927,-4.582501888,7.624534109
14.95409808,-2.908955097,-5.729324818,-4.783615112,8.010627701
14.95910423,-2.540247917,-6.327875137,-4.975151062,8.440793288
14.96410893,-1.929726601,-6.976703644,-5.104437828,8.857399394
14.96911408,-1.177947283,-7.915230751,-4.941632271,9.405220207
14.97411785,-0.7278373241,-8.841787338,-4.951209068,10.15979438
14.97867539,-0.2992752194,-9.861717224,-5.128379822,11.11950142
14.98409808,0.0191536136,-10.90319443,-5.410895824,12.17200925
14.9891027,0.05506663769,-11.85129833,-5.561730385,13.09156787
14.99410731,-0.06224924326,-12.88798809,-5.410895824,13.97790777
14.9991147,-0.1580173075,-13.50569153,-5.786785603,14.69406549
15.00411693,-0.423773706,-13.93425369,-6.940790653,15.57297611
15.00912308,-0.653617084,-14.36281586,-8.781931877,16.84755241
15.01412708,-0.7015010715,-14.82729149,-11.14740276,18.56354667
15.01910023,0.02154781483,-14.89193439,-12.54322243,19.47055734
15.02365839,1.388636947,-14.82729149,-13.26866627,19.94578627
15.029112,2.580949545,-14.65251446,-13.55836391,20.12925017
15.03411631,3.227383852,-14.25268269,-13.78820801,20.09153181
15.03912062,3.232172251,-13.24951267,-14.28859615,19.75248095
15.04412485,2.597708941,-12.20085144,-14.91587639,19.44459401
15.04910147,1.592144132,-10.96304989,-15.7370882,19.24524177
15.05410485,0.4692635238,-9.528923035,-16.1345253,18.7441588
15.05910977,-0.1723825186,-8.111555099,-15.80651951,17.7671917
15.06411447,0.0359130241,-7.479485989,-14.80574322,16.58776756
15.06912023,0.4333505034,-7.362170219,-12.99093819,14.93833384
15.07412393,0.8283938169,-7.833827972,-10.59913063,13.20593303
15.07909931,1.240196466,-8.686163902,-7.28555584,11.40468564
15.084104,0.4309563041,-9.895236015,-1.910573006,10.08720518
15.08910916,-1.37666595,-10.97741508,2.913743496,11.44066223
15.09411323,-3.957615376,-11.94227791,7.213729858,14.502366
15.09911908,-6.919242859,-12.79461384,9.883264542,17.58570394
15.104123,-9.461885452,-14.41548824,11.65736771,20.814125
15.10909816,-10.71644688,-16.6061821,11.71482849,22.97487158
15.11410331,-11.01093388,-19.19910431,10.9295311,24.68402157
15.1186597,-10.31900978,-21.56217957,8.585607529,25.39925603
15.12411108,-8.092401505,-23.32191849,4.273650169,25.05320199
15.12911808,-5.23851347,-23.59964561,-3.27287364,24.39461003
15.134123,-1.649604917,-21.66513062,-10.15620327,23.98431875
15.13912677,1.939303398,-19.16319084,-15.51682091,24.73379292
15.14410146,3.368641853,-16.37633896,-14.16170311,21.91086627
15.14910554,1.685518026,-10.68532181,-3.076549292,11.24643182
15.15366339,0.0143652102,-7.041347027,2.932897091,7.627755873
15.15911747,-2.296039343,-3.021482468,6.253654957,7.315008769
15.16412024,-3.026270866,-1.426944256,5.434837818,6.38215852
15.16912677,-4.204218388,-0.3303998411,2.161964178,4.73906166
15.17409993,-5.54018259,0.5434837937,-1.048660398,5.66468767
15.17910547,-6.301538944,0.7015010715,-1.182735682,6.449834146
15.18410946,-6.452373505,0.1939303428,2.379836559,6.87999672
15.18911508,-6.591237068,-0.8020575643,5.525817394,8.638423485
15.19367285,-6.457161903,-2.169146776,6.557718277,9.455358617
15.19864647,-5.68383503,-3.957615376,6.560112476,9.539589918
15.20409839,-4.843470097,-6.698976517,7.936778545,11.45984043
15.20865662,-5.279214859,-8.820239067,9.655815125,14.10324404
15.21410947,-5.815515995,-10.69489861,10.9055891,16.34420252
15.21911347,-5.298368454,-12.658144,10.76911926,17.44348725
15.2241187,-4.596867085,-14.00607967,9.287108421,17.4227391
15.228676,-3.579331636,-15.10262394,6.785167694,16.93928468
15.23409754,-2.300827742,-15.89749908,3.359065056,16.41059425
15.23865593,-0.6200982332,-16.46731949,-0.4309563041,16.48462485
15.24365962,1.218648672,-17.11135864,-3.916913986,17.59619034
15.24911354,2.952050686,-17.12093544,-7.788338184,19.03941294
15.25411716,3.493140221,-16.35239792,-9.512163162,19.23757246
15.25912177,3.416525841,-14.66209126,-9.59835434,17.85435451
15.26412639,3.19865346,-13.27824306,-8.130708694,15.89501641
15.2691027,2.755726099,-11.93509579,-5.865794182,13.58116634
15.27410554,1.872265697,-10.65419769,-3.552995205,11.38600379
15.27911047,0.8858546019,-9.526528358,-1.577778935,9.696848318
15.28411531,-0.05746084079,-8.511386871,-0.007182605099,8.51158386
15.28912124,-1.110909581,-7.750030994,1.453280449,7.962984652
15.29412577,-1.589749932,-7.211335659,2.559401512,7.815446432
15.2991,-2.188300371,-6.842628479,2.604891539,7.641706808
15.30410485,-2.987963676,-6.641515732,1.735796213,7.48669798
15.30911047,-3.320757866,-6.718130112,1.276109457,7.601918202
15.31366739,-3.41892004,-6.919242859,0.9648633003,7.777910849
15.31864331,-3.292027235,-7.146692276,0.8858546019,7.918168486
15.32409416,-2.889801502,-7.433996201,0.7948749661,8.015427527
15.3291,-2.059013367,-7.817068577,0.5746083856,8.10408983
15.33410308,-1.359906554,-8.087613106,0.2561795712,8.205148357
15.3391077,-0.873883605,-8.341399193,-0.05506663769,8.387231092
15.34411408,-0.4453215301,-8.640673637,-0.3758896589,8.660302836
15.34911816,-0.01675941236,-9.033323288,-0.7445967197,9.063974557
15.3541237,0.2370259613,-9.258378029,-0.9169792533,9.306696298
15.35909724,0.3327940404,-9.402029991,-1.036689281,9.464863681
15.36365477,0.4285621047,-9.540893555,-1.209071875,9.626742445
15.36910947,0.4094084799,-9.689333916,-1.355118155,9.79219854
15.37411347,0.3208230138,-9.864110947,-1.455674648,9.976101486
15.379116,0.4812345505,-9.983820915,-1.383848548,10.09075337
15.38412185,0.3543418646,-9.957485199,-1.30005157,10.04824381
15.38912616,0.05985504389,-9.852140427,-1.106121182,9.914219973
15.39365285,-0.3184288144,-9.742006302,-0.9576807022,9.794142945
15.399108,-0.8188169599,-9.694122314,-1.11569798,9.792407806
15.40411108,-1.139639974,-9.533711433,-1.206677675,9.677112378
15.40911785,-1.386242747,-9.143456459,-1.055842996,9.308021777
15.41412147,-1.618480325,-8.655038834,-0.9074024558,8.851697859
15.41867808,-1.802833915,-8.245630264,-0.9504981041,8.493766845
15.42410062,-1.889025092,-7.977479935,-1.175553083,8.281939807
15.42865777,-1.838746905,-7.924807549,-1.314416766,8.240828617
15.43410977,-1.661576033,-7.965508938,-1.283292055,8.237536407
15.43911385,-1.381454349,-8.046912193,-1.067813993,8.234162901
15.44367285,-1.170764685,-8.118738174,-0.9696516991,8.259831954
15.44864831,-0.8858546019,-8.209717751,-0.9145850539,8.307867942
15.45409901,-0.6105214357,-8.245630264,-0.8690952063,8.313752544
15.45910362,-0.2920926213,-8.310274124,-0.8020575643,8.353997274
15.46410862,0.1795651317,-8.444349289,-0.6512228847,8.47132633
15.46911439,0.5530605912,-8.678980827,-0.5746083856,8.715546972
15.47411754,0.8283938169,-8.956708908,-0.6224924326,9.016449834
15.47912516,0.9696516991,-9.133879662,-0.6560112834,9.208601028
15.48409785,1.094150186,-9.40681839,-0.6200982332,9.490517302
15.48910308,1.185129881,-9.576807022,-0.5315127969,9.664485057
15.49410854,1.283292055,-9.648633003,-0.5482721925,9.749028656
15.4991117,1.252167463,-9.62469101,-0.6129156351,9.725135781
15.50411631,1.127668977,-9.40681839,-0.6368576288,9.495549335
15.50912185,0.8906430602,-9.088389397,-0.8355764151,9.170073873
15.51412639,0.6081272364,-8.808267593,-1.302445769,8.924783567
15.51910093,0.3734954596,-8.470685959,-1.879448295,8.684719072
15.52410585,0.3136404157,-8.216899872,-2.446874142,8.57921948
15.5291117,0.3136404157,-7.984662533,-2.624045134,8.410637249
15.53411508,0.3854664862,-7.941566944,-2.466027737,8.324563817
15.53867293,0.4620809257,-8.010998726,-1.994369984,8.268441873
15.544095,0.5961562395,-8.137891769,-1.474828243,8.291911906
15.54910031,0.8523358107,-8.159439087,-0.8978256583,8.252818516
15.55410493,1.165976286,-8.453926086,-0.4788403511,8.547377086
15.55911108,1.738190413,-8.767566681,-0.6607996821,8.962599379
15.56411439,2.420537949,-9.181763649,-0.9816226959,9.546065723
15.56912024,3.071760893,-9.713275909,-1.290474772,10.2688251
15.57412431,3.787626982,-10.47942066,-1.549048543,11.25006342
15.57909816,4.235342979,-11.11149025,-1.441309452,11.97834374
15.58410308,4.5370121,-11.72201157,-1.259350061,12.63233931
15.58910924,4.570530891,-12.25831223,-1.096544385,13.12853308
15.59411324,4.280832767,-12.67250919,-0.8643068075,13.40391901
15.59911877,3.67988801,-12.98375607,-0.8499416113,13.52190438
15.60412308,2.82276392,-13.04361057,-0.8930372596,13.37539863
15.60909908,1.742978811,-13.07234097,-1.060631394,13.23060892
15.61410339,0.6009446383,-13.08910084,-1.37666595,13.1750106
15.61910701,-0.8164227605,-13.09388924,-1.965639591,13.26575367
15.62411193,-0.8164227605,-13.09388924,-1.965639591,13.26575367
15.62911908,-2.851494312,-13.40992355,-3.004723072,14.03514981
15.63412216,-3.653551817,-13.59188271,-3.481169224,14.49849149
15.63912947,-4.247313976,-13.75468922,-4.089296341,14.96507588
15.64410177,-4.237737179,-13.81454372,-4.335899353,15.08641965
15.64910585,-3.79241538,-13.90312958,-4.359841347,15.05614968
15.65411077,-2.829946518,-14.13297272,-4.141968727,14.996847
15.65911562,-1.386242747,-14.46097851,-3.404554844,14.92087672
15.66412085,-0.1604115069,-14.72434044,-2.511517525,14.93785974
15.66912585,0.8499416113,-14.863204,-1.697489023,14.98394818
15.67409993,1.570596337,-15.03319263,-1.247379065,15.16639734
15.67910454,2.035071373,-15.35162163,-1.165976286,15.5297554
15.68410947,1.879448295,-15.67723274,-1.383848548,15.85001543
15.68911501,1.134851575,-15.89031696,-1.649604917,16.01596883
15.69411877,-0.1867477298,-15.90228748,-1.831564307,16.00850554
15.69912547,-2.149993181,-15.61258888,-1.611297727,15.84208581
15.70409908,-3.900154591,-15.10980701,-1.072602391,15.64186529
15.70910393,-5.566518784,-14.33408546,-0.2178723514,15.37854368
15.71410854,-7.32146883,-13.68286228,0.720654726,15.53524925
15.71911439,-8.358158112,-13.24951267,2.159569979,15.81366926
15.7241197,-9.29189682,-13.37161636,3.023876667,16.56150056
15.72912308,-10.01733971,-13.63976669,3.373430252,17.25602393
15.73409724,-10.45308495,-13.91749477,3.423708439,17.73937499
15.739103,-10.61349583,-14.06114674,2.968810081,17.86549676
15.74410701,-10.86249352,-13.89834118,1.826775908,17.7340002
15.749112,-10.91755962,-13.57272911,0.282515794,17.42101888
15.75367039,-10.24239445,-13.37161636,-0.9792284966,16.87203771
15.75909162,-9.11233139,-13.48653793,-2.04704237,16.40462347
15.76412678,-8.588001251,-13.49850941,-2.145204782,16.14203907
15.76865385,-8.453926086,-13.23035812,-1.917755604,15.81736479
15.77365931,-8.063671112,-13.03403378,-1.745373011,15.42579512
15.77866278,-7.120356083,-12.87362289,-1.649604917,14.8037439
15.78411508,-5.293580055,-12.77306652,-1.369483352,13.89419673
15.78867316,-3.624821424,-12.76348972,-1.04147768,13.3090449
15.7940947,-1.872265697,-12.8592577,-0.2130839527,12.99658771
15.79910208,-0.7469909191,-12.86643982,0.3303998411,12.89234009
15.80410485,0.2059013397,-12.66053867,0.9169792533,12.69537261
15.80911016,2.980781078,-13.38358784,2.774879694,13.98947592
15.81411439,4.426878929,-14.32929707,2.185906172,15.15599542
15.81911908,4.886565685,-14.38196945,-0.3591302633,15.1937008
15.82367685,4.721365929,-14.17606831,-2.238578558,15.10838982
15.82865139,4.441244125,-14.01565647,-2.238578558,14.87193698
15.83410431,3.440467834,-13.49372101,-1.446097851,14.00030445
15.83866208,2.961627483,-12.96699619,-1.022324085,13.34014146
15.84411347,2.703053713,-12.39717674,-0.5506663918,12.70038283
15.84867047,2.525882721,-11.74834728,0.0191536136,12.0168263
15.85364585,1.900996208,-10.994174,0.3375824392,11.16241956
15.85865101,0.85473001,-10.06522369,0.7134721279,10.12661512
15.8641027,0.2011129409,-9.31823349,0.7709329724,9.352232858
15.86910731,-0.3711012602,-8.485051155,0.9145850539,8.542264048
15.87411254,-0.9959878922,-7.390900612,1.240196466,7.560125066
15.87911839,-1.424550056,-6.610390663,1.517923832,6.930418482
15.88412178,-1.884236693,-5.875370979,1.59932673,6.374023694
15.88912678,-2.487575531,-5.15950489,1.517923832,5.925589886
15.89410124,-2.865859509,-4.374206543,1.302445769,5.389174203
15.89910616,-3.203441858,-3.849876404,1.101332784,5.128013452
15.90411008,-3.356670856,-3.445256233,0.8714894056,4.888407055
15.9091157,-3.289633036,-3.16034627,0.5913678408,4.599911953
15.91412031,-2.964021683,-2.959233284,0.2561795712,4.196202347
15.91912647,-2.621650934,-2.990357876,-0.1532289088,3.979795591
15.92409993,-2.312798738,-3.071760893,-0.4022258818,3.866075355
15.92910431,-2.159569979,-3.19625926,-0.5291185975,3.893556503
15.93410947,-2.04464817,-3.390189648,-0.6177040339,4.00693527
15.93911385,-1.9321208,-3.687070608,-0.653617084,4.213643999
15.94412001,-1.855506301,-3.960009575,-0.6799532771,4.425710782
15.94912401,-1.731007814,-4.338293552,-0.6392518282,4.714426996
15.95409901,-1.67115283,-4.587290287,-0.5434837937,4.912367921
15.95910485,-1.644816518,-4.733336926,-0.3519476354,5.023322304
15.96410916,-1.733402014,-4.757278919,-0.1053448766,5.064334389
15.96911354,-2.018311977,-4.666299343,0.2418143749,5.08983369
15.97411901,-1.958456993,-4.527435303,0.3088520169,4.942531111
15.97867601,-1.912967205,-4.352658749,0.4405331016,4.774845665
15.98409754,-1.920149803,-4.187458992,0.5698199868,4.641818921
15.9891027,-1.850717902,-4.043806553,0.6200982332,4.490217145
15.99410708,-1.766920805,-3.969586372,0.6296750307,4.39045735
15.99866462,-1.685518026,-3.904942989,0.6105214357,4.296776372
16.00367008,-1.582567334,-3.90254879,0.5243301988,4.243739929
16.0090917,-1.395819545,-3.900154591,0.3088520169,4.153902695
16.01412608,-1.319205165,-3.950432777,0.06943184882,4.165458219
16.01910185,-1.242590666,-4.072536945,-0.1532289088,4.260641716
16.02410647,-1.26653266,-4.197035789,-0.3327940404,4.396585751
16.02911108,-1.335964561,-4.259284973,-0.6129156351,4.50577134
16.03411501,-1.383848548,-4.292803764,-0.8786720037,4.595134977
16.03867347,-1.333570361,-4.319139957,-1.295263171,4.702242716
16.04409562,-1.18752408,-4.331110954,-1.678335428,4.794324285
16.04909962,-1.089361787,-4.390965939,-2.221819162,5.040215409
16.05410462,-0.8762778044,-4.479551315,-2.806004286,5.357975628
16.05910978,-0.720654726,-4.601655483,-3.406949043,5.770777955
16.06411354,-0.5698199868,-4.75249052,-4.012681961,6.245996917
16.06867162,-0.4022258818,-4.910507679,-4.65193367,6.776087233
16.07364585,-0.2513911724,-5.099649429,-5.463568211,7.477980972
16.07909878,-0.174776718,-5.355829239,-6.253654957,8.235511767
16.08410424,-0.2657563984,-5.724536419,-7.077260017,9.106511573
16.08910831,-0.383072257,-6.382941723,-8.085219383,10.30822302
16.09411347,-0.3974374831,-7.220912457,-8.942343712,11.50065408
16.09911785,-0.4405331016,-8.391676903,-9.569623947,12.73546282
16.1041237,-0.4405331016,-9.955090523,-9.904812813,14.05002539
16.10909816,-0.423773706,-12.17690945,-9.995792389,15.75984052
16.11410147,-0.5674257874,-14.20240402,-10.71165848,17.79803021
16.11910924,-0.4141969085,-16.41704178,-11.83932781,20.2450118
16.12411262,0.0,-19.64682007,-13.36203957,23.76008502
16.12911624,0.2370259613,-22.37141991,-14.25028896,26.52559793
16.13412178,0.4548983276,-24.4615593,-14.59984207,28.49087932
16.13912616,0.8906430602,-25.37853813,-14.29817295,29.14277256
16.14410001,0.4046200812,-24.70576668,-14.00607967,28.40262122
16.14910554,-0.2753331959,-23.1854496,-14.05635834,27.11497909
16.15411039,-0.8236053586,-20.69308472,-14.60223579,25.33983763
16.15911654,-1.59932673,-16.95573616,-14.82250309,22.57789699
16.16367416,-2.188300371,-12.41154194,-14.44900703,19.17312797
16.16909531,-2.971204281,-6.320692539,-13.73553562,15.40922282
16.17410062,-2.104503393,-2.549824715,-12.71560478,13.13838444
16.17910555,-1.26413846,0.08619125932,-11.54244614,11.61178444
16.18410916,0.6392518282,1.529894829,-8.939949036,9.092409463
16.18911539,0.8140285611,1.877054095,-6.777985096,7.080046365
16.19411908,0.05746084079,1.139639974,-4.388571739,4.534494782
16.1991267,-1.381454349,-0.5243301988,-2.236184359,2.680272143
16.2040987,-3.320757866,-2.959233284,0.6464344859,4.494704882
16.20910331,-4.707000732,-4.975151062,2.762908697,7.385231781
16.21410916,-6.02381134,-7.146692276,4.455609322,10.3544178
16.21866639,-7.362170219,-9.500192642,6.081272125,13.46985825
16.22408701,-9.030928612,-12.61026001,7.086836815,17.05284683
16.22912301,-9.995792389,-15.25585365,6.624756336,19.40475026
16.23409724,-10.26154804,-17.88947487,4.721365929,21.15712588
16.2391027,-9.629479408,-20.4560585,1.908178806,22.68960884
16.24410739,-7.54891777,-23.50387764,-3.23456645,24.89740637
16.2491117,-4.481945515,-25.5820446,-7.999027729,27.17560094
16.25411693,-0.9145850539,-26.33621788,-11.41076565,28.71651808
16.25912216,1.848323703,-24.25086975,-13.39555836,27.7662019
16.2641267,2.41574955,-19.67794418,-11.99973869,23.17436217
16.26910124,1.065419793,-15.33965015,-7.951143742,17.31070978
16.27410524,-0.2657563984,-10.65180302,-0.9002198577,10.69307859
16.27911262,-1.589749932,-6.244078159,6.385335922,9.071291625
16.28366893,-3.129221678,-2.82036972,9.538499832,10.42734351
16.28909047,-5.849034786,-0.3303998411,8.937555313,10.6864525
16.29412554,-7.845798969,0.517147541,6.91445446,10.47061047
16.29909993,-9.361329079,0.8499416113,3.904942989,10.17867686
16.30410524,-9.806650162,0.9265560508,0.2873041928,9.854513545
16.30910955,-9.497797966,0.6200982332,0.3806780577,9.525628788
16.31411478,-8.36294651,-0.174776718,2.161964178,8.639647582
16.31911931,-6.129156113,-1.891419291,3.962403774,7.539540123
16.32412308,-3.931279182,-3.945644379,5.049371243,7.517926278
16.32909931,-2.138022184,-6.27999115,7.223306656,9.807425082
16.33410331,-1.007958889,-8.678980827,10.02931118,13.30141993
16.33910762,-0.55784899,-11.2982378,12.30859089,16.71714038
16.34411408,-0.3471592367,-12.76588345,12.09071827,17.58618116
16.34911716,-0.1053448766,-13.79778481,10.57997704,17.38752073
16.35412362,0.1340752989,-14.64293766,8.585607529,16.97487131
16.35909808,1.051054597,-15.99087334,5.341464043,16.89212787
16.36410216,2.360682964,-17.29810715,1.649604917,17.5362063
16.36910708,4.024652958,-18.41380501,-2.722207308,19.04406624
16.37366554,5.382165432,-19.07699966,-6.382941723,20.82406219
16.37911716,5.532999992,-18.96447182,-9.045293808,21.72746235
16.38412178,4.472368717,-17.93257141,-8.81066227,20.47454441
16.38912678,3.220201254,-16.22071648,-7.517793179,18.16586231
16.39410085,2.202665567,-14.16649151,-6.014234543,15.5470973
16.39910608,0.825999558,-11.76031876,-4.42209053,12.59135645
16.40411016,-0.383072257,-10.30464458,-3.64158082,10.93588383
16.40911601,-1.060631394,-9.289502144,-3.253720045,9.899822381
16.41412085,-1.273715258,-8.523358345,-2.516305923,8.977849605
16.41912578,-1.89860189,-7.680599213,-1.383848548,8.031894559
16.42365254,-2.669534922,-7.232883453,-0.5219359994,7.727446987
16.42910485,-3.450044632,-6.660669327,0.01675941236,7.501173556
16.43410947,-3.964797974,-6.251260757,0.6081272364,7.4274964
16.43911685,-4.278438568,-6.02381134,0.538695395,7.408207096
16.44367193,-4.42209053,-6.038176537,0.653617084,7.512767522
16.44909416,-4.079719543,-6.224924564,0.8858546019,7.495234203
16.4536517,-3.397372246,-6.658275127,0.8140285611,7.519136144
16.4586557,-2.894589901,-6.83784008,0.07900865376,7.425695255
16.46366085,-2.032677174,-7.144298077,-0.5003881454,7.44467325
16.46866554,-1.165976286,-7.508216381,-0.3016694188,7.604197417
16.47364116,-0.5195417404,-7.84340477,0.09337386489,7.861147542
16.47909193,-0.004788403399,-8.283937454,0.1556231081,8.285400487
16.48409808,0.3088520169,-8.599972725,-0.1029506698,8.606132655
16.48910216,0.6320692301,-8.872911453,-0.4979939461,8.90932473
16.4936597,0.8164227605,-9.085995674,-0.9074024558,9.167619251
16.49866524,0.9768342972,-9.279925346,-1.290474772,9.420007687
16.50411685,1.072602391,-9.375694275,-1.673547029,9.58409509
16.50912178,1.091755986,-9.349357605,-1.900996208,9.602926915
16.51412678,0.9289502501,-9.301473618,-2.063801765,9.572859434
16.51865532,0.7445967197,-9.258378029,-2.173935175,9.539286249
16.52410647,0.5243301988,-9.136273384,-2.296039343,9.43494622
16.52866393,0.3040636182,-9.02374649,-2.389413357,9.339686911
16.53411601,-0.01197100803,-8.875306129,-2.398990154,9.193821619
16.53912116,-0.3208230138,-8.753201485,-2.317587137,9.060500746
16.54412555,-0.5434837937,-8.671798706,-2.128445387,8.945711106
16.54865285,-0.7517793179,-8.55448246,-2.015917778,8.820899432
16.55365685,-1.039083481,-8.468291283,-1.924938202,8.746258561
16.55910978,-1.292868972,-8.377311707,-1.697489023,8.644786324
16.56366701,-1.371877551,-8.255207062,-1.458068848,8.494495654
16.56864185,-1.367089152,-8.147468567,-1.326387763,8.367166862
16.57409355,-1.192312479,-8.087613106,-1.18752408,8.260829755
16.57909878,-0.940921247,-8.054094315,-0.9720458984,8.16692361
16.58365539,-0.7374141216,-7.970297337,-0.6895300746,8.033982259
16.58866116,-0.4740519226,-7.951143742,-0.2059013397,7.967923656
16.59411355,-0.1508347094,-7.984662533,0.4525041282,7.998896603
16.59867262,0.02394201607,-8.013393402,0.7445967197,8.047948267
16.60409324,0.1699883193,-8.051700592,0.9289502501,8.106893796
16.60909808,0.2585737705,-8.157045364,1.079784989,8.232264882
16.61410185,0.141257897,-8.334216118,1.240196466,8.427170306
16.61865932,0.03830722719,-8.599972725,1.11569798,8.67212663
16.62366432,-0.08619125932,-8.808267593,0.9074024558,8.855302713
16.62911716,-0.2466027737,-9.026140213,0.538695395,9.045563156
16.63412216,-0.4357447028,-9.220070839,-0.009576806799,9.230366809
16.63912678,-0.538695395,-9.320627213,-0.4477157295,9.346910385
16.64410116,-0.5817909837,-9.464279175,-0.9433154464,9.528950891
16.64910516,-0.5817909837,-9.653421402,-1.613691926,9.804643142
16.65411078,-0.4668693244,-9.91438961,-2.573766708,10.25365122
16.6591147,-0.323217243,-10.05325317,-3.277662039,10.57900927
16.66412085,-0.2394201756,-10.14662647,-3.79241538,10.83484034
16.66912547,0.05027823523,-10.22802925,-4.072536945,11.00911747
16.67409932,0.323217243,-10.39322948,-4.050989151,11.15948931
16.6791067,0.5147533417,-10.57997704,-3.854664803,11.27205952
16.68411016,0.5363011956,-10.73799419,-3.49553442,11.30534825
16.68911508,0.6081272364,-10.88404083,-2.964021683,11.29679548
16.69412001,0.8283938169,-10.9989624,-2.540247917,11.31884578
16.69912432,1.098938584,-11.03008747,-2.209848166,11.30282817
16.70409878,1.429338455,-10.96065521,-1.924938202,11.21981988
16.70910308,1.929726601,-10.86249352,-1.642422318,11.15415444
16.71410885,2.288856745,-10.76911926,-1.467645645,11.10705986
16.71911293,2.760514498,-10.6446209,-1.316810966,11.07530521
16.72411839,3.282450438,-10.63264942,-1.156399369,11.18771532
16.72912332,3.708618402,-10.75714779,-0.8307880163,11.40878117
16.73409755,3.842693806,-10.94389629,-0.5195417404,11.61055922
16.73910185,3.737348795,-11.24317074,-0.423773706,11.85564205
16.74410732,3.442862034,-11.5783596,-0.6655880809,12.09771539
16.74911193,2.880224705,-11.99973869,-1.328781962,12.41189287
16.75411716,2.30561614,-12.24873543,-2.00873518,12.62467435
16.75912239,1.604115129,-12.49294472,-2.748543501,12.89191004
16.76412832,0.895431459,-12.77785492,-3.268085241,13.21952174
16.76910216,0.03351882473,-13.2375412,-3.469198227,13.68462483
16.77410647,-0.5793967843,-13.63976669,-3.435679436,14.07774234
16.77911101,-1.15161097,-13.94861889,-3.438073635,14.41216594
16.78366793,-1.766920805,-14.17367363,-3.509899616,14.70831155
16.78909008,-2.281674147,-14.33887386,-3.878606796,15.02840415
16.79367839,-2.255337954,-14.39154625,-4.084507942,15.12899064
16.7990997,-1.841141105,-14.55435181,-4.041412354,15.21683183
16.80410462,-1.063025594,-14.82729149,-3.608062029,15.29695093
16.80910978,0.08619125932,-15.29176617,-2.79163909,15.54473513
16.81411408,0.9744400978,-15.59822369,-1.963245392,15.7514586
16.81911993,1.685518026,-15.74427032,-1.134851575,15.87485141
16.82412393,2.183511972,-15.81609631,-0.7086837292,15.98182904
16.82909908,2.248155355,-15.7514534,-0.895431459,15.93625691
16.83410278,1.984793186,-15.5647049,-1.33835876,15.74771878
16.83911078,1.388636947,-15.1768446,-1.584961534,15.32243543
16.84411324,0.3543418646,-14.67166805,-1.59932673,14.76283332
16.84911808,-1.271321058,-14.01805115,-1.498770237,14.15515197
16.85412401,-2.63601613,-13.66610336,-1.249773264,13.97400785
16.85865008,-3.948038578,-13.21599293,-0.7038952708,13.81104436
16.86410155,-4.953603268,-12.64138508,0.1771709323,13.57844585
16.86910678,-6.251260757,-12.36605167,1.158793569,13.90468617
16.87411262,-7.352593422,-12.42111874,1.647210717,14.52783961
16.87911601,-8.106766701,-12.59350109,2.221819162,15.14108373
16.88412208,-8.688557625,-12.81855583,2.552218914,15.69459234
16.8891267,-8.901641846,-13.06276417,2.255337954,15.96751654
16.89410147,-8.877699852,-13.19923401,1.656787634,15.9930697
16.89910578,-8.508993149,-13.38358784,1.010353088,15.89163935
16.90411108,-7.951143742,-13.56794071,0.181959331,15.72713614
16.90911539,-7.098807812,-13.95340729,-0.3758896589,15.65988315
16.9141197,-6.066906929,-14.22874069,-0.7350199223,15.48562804
16.91912762,-5.319916248,-14.26944256,-0.4692635238,15.23609885
16.92410085,-4.675876141,-14.2000103,-0.3136404157,14.95334346
16.92910585,-3.711012602,-14.24310589,-0.316034615,14.7220093
16.93411008,-2.621650934,-14.19761562,-0.1149216816,14.43809371
16.93911439,-1.687912226,-14.02523327,-0.4309563041,14.13300885
16.94367162,-1.474828243,-13.43147182,-1.065419793,13.5541386
16.94909316,0.02154781483,-13.2375412,-0.7230489254,13.25729086
16.95409908,0.09576806426,-12.9239006,-1.359906554,12.99560403
16.95910339,-0.2513911724,-12.45703125,-1.206677675,12.51786308
16.96410801,0.9959878922,-12.46181965,0.624886632,12.51716518
16.96911324,2.281674147,-12.64617348,1.44849205,12.93173885
16.97411901,2.336740971,-12.47618484,1.089361787,12.73979026
16.97912301,2.135627985,-12.21521664,0.7062895298,12.42059859
16.98409778,1.721431017,-11.9901619,0.4932055473,12.12314146
16.98865439,1.426944256,-11.76271248,0.4788403511,11.85861977
16.9941077,0.8403648138,-11.17613316,0.2418143749,11.21029168
16.99911501,0.6129156351,-10.71644688,0.7350199223,10.75909632
17.0036707,0.2106897533,-10.19929886,0.988805294,10.24928404
17.00864485,-0.4285621047,-9.526528358,1.00556469,9.589033757
17.01409693,-0.8020575643,-9.011775017,1.288080573,9.138628828
17.01910124,-1.309628367,-8.552088737,1.661576033,8.809891211
17.02410578,-1.793257117,-7.812280178,1.987187386,8.25811155
17.02866332,-2.075772762,-7.173028469,2.243366957,7.797042085
17.03366893,-2.293645144,-6.548141479,2.171540976,7.270113829
17.03908947,-2.434903145,-5.997475147,2.070984364,6.796134026
17.04412578,-2.485181332,-5.372588634,1.800439715,6.187278728
17.0490997,-2.430114746,-4.90811348,1.673547029,5.726761325
17.05365839,-2.437297344,-4.477157116,1.587355733,5.339012306
17.05911008,-2.602497339,-4.170699596,1.247379065,5.071851935
17.06411386,-2.461239338,-4.046200752,0.7062895298,4.788348829
17.0691197,-2.025494576,-4.065354347,0.2849099934,4.550923857
17.07367724,-1.683123827,-4.158728123,-0.02154781483,4.486467399
17.07909993,-1.70946002,-4.273650169,-0.1556231081,4.605492143
17.08410393,-1.704671621,-4.469974518,-0.248996973,4.790467307
17.08910801,-1.742978811,-4.580107689,-0.3303998411,4.911672387
17.09411386,-1.869871497,-4.632780075,-0.2322375625,5.001300323
17.09911755,-2.015917778,-4.699818134,-0.06943184882,5.114394956
17.10412239,-2.123656988,-4.738125324,0.04788403213,5.19249877
17.10909755,-2.161964178,-4.740519524,0.2226607651,5.214996863
17.11365439,-2.272097349,-4.747702122,0.3998316824,5.278538356
17.1191077,-2.456450939,-4.654327869,0.586579442,5.295374829
17.12411286,-2.588132143,-4.546588898,0.6464344859,5.271411209
17.12866947,-2.616862535,-4.510675907,0.8020575643,5.276121966
17.13409108,-2.667140722,-4.407725334,0.8451532125,5.220724682
17.13912739,-2.719813108,-4.278438568,0.8451532125,5.139718268
17.14410124,-2.765302896,-4.204218388,0.8619126081,5.105413373
17.14910547,-2.760514498,-4.101267338,0.8595184088,5.017928453
17.1541107,-2.724601507,-4.034229755,0.8164227605,4.936092505
17.15911786,-2.688688517,-3.983951569,0.6895300746,4.855550202
17.16412093,-2.561795712,-3.986345768,0.5099649429,4.765901184
17.16912578,-2.420537949,-4.010287762,0.3256114423,4.695469594
17.17409993,-2.255337954,-4.082113743,0.08619125932,4.664507565
17.17910493,-2.102109194,-4.141968727,-0.2011129409,4.649216538
17.18410947,-2.003946781,-4.149151325,-0.4501099288,4.629671519
17.18911439,-1.9321208,-4.146757126,-0.720654726,4.631201645
17.1941197,-1.97042799,-4.156333923,-1.177947283,4.7481847
17.19867593,-2.30561614,-4.151545525,-1.877054095,5.106322366
17.20409809,-2.580949545,-4.170699596,-2.626439333,5.563651611
17.20910401,-2.463633537,-4.376600742,-3.246537447,5.980311836
17.21410862,-2.523488522,-4.496310711,-4.158728123,6.624184774
17.21911386,-2.650381327,-4.565742493,-5.145139217,7.371769343
17.22411755,-2.624045134,-4.5394063,-6.021417141,7.984315049
17.22912209,-2.624045134,-4.517858505,-7.043741226,8.769888756
17.23409747,-2.932897091,-4.86741209,-7.659051418,9.537014964
17.23910278,-3.16034627,-5.667075634,-8.645462036,10.80960446
17.24410678,-3.184288263,-6.562506676,-9.354146004,11.86196582
17.24866339,-2.925714493,-7.623138428,-10.12029076,13.00355066
17.25367009,-2.652775526,-8.755595207,-10.52969933,13.94891513
17.25909193,-2.33913517,-10.23521233,-10.07719517,14.5526969
17.26412678,-2.188300371,-11.60948372,-9.270348549,15.01692821
17.26910086,-2.240972757,-13.25669479,-9.236829758,16.31198761
17.27410555,-2.195482969,-15.19120979,-10.67574501,18.69664494
17.27866278,-1.800439715,-17.35556793,-13.247118,21.90761184
17.28366832,-1.048660398,-20.67872047,-16.71152878,26.60797556
17.28908955,-0.1795651317,-23.37937927,-18.89743423,30.06227935
17.29367747,0.9026140571,-24.86617851,-19.81680679,31.80954853
17.29865224,2.296039343,-24.63394165,-18.33479691,30.79395485
17.30410516,2.93768549,-22.34987259,-14.592659,26.8531655
17.30866247,2.003946781,-19.08178711,-12.17451572,22.72331919
17.3141147,0.3734954596,-14.38915253,-11.12106705,18.18970427
17.31867416,-0.4668693244,-11.66933918,-11.5927248,16.45547666
17.32364701,-1.089361787,-8.090007782,-12.16733265,14.65192543
17.32865101,-0.5770025849,-6.533776283,-11.46822643,13.21148675
17.33365601,-0.2418143749,-5.626373768,-10.09874249,11.56283511
17.33910916,-0.3471592367,-5.051765442,-8.183381081,9.623335156
17.34411286,-0.8164227605,-5.133168221,-6.619967937,8.416646458
17.3486707,-2.147598982,-5.552153587,-5.243301868,7.932893881
17.35409255,-4.362235546,-6.974309444,-3.361459255,8.886478465
17.35909755,-6.177040577,-8.597578049,-1.675941229,10.71834678
17.36410186,-7.788338184,-10.3501339,0.07422025502,12.95333903
17.36910762,-8.892065048,-12.09550667,2.090138197,15.15713628
17.3741117,-9.473855972,-14.40830612,4.479551315,17.8162738
17.37911693,-9.354146004,-16.28296661,5.123591423,19.46500034
17.38412186,-8.271966934,-17.93496513,4.237737179,20.200169
17.38912762,-6.179434776,-18.99080849,2.336740971,20.10712758
17.39410147,-3.373430252,-18.75378227,-1.431732655,19.10848606
17.3991077,-0.7685387731,-17.07784081,-3.938461781,17.54294102
17.40411163,1.515529633,-14.87996387,-3.359065056,15.32949683
17.4091157,2.382230759,-12.22239971,-1.256955862,12.51567082
17.41412001,1.359906554,-8.832210541,-0.1843535304,8.938191937
17.41867878,-0.7230489254,-6.138733387,1.455674648,6.350262674
17.42410062,-3.167528868,-3.797203779,3.509899616,6.063941869
17.42910516,-5.171475887,-2.509123325,4.426878929,7.255144366
17.43366178,-7.019799232,-2.011129379,3.94085598,8.297744784
17.43866762,-9.090784073,-1.632845521,1.043871999,9.295063653
17.44364239,-10.03888798,-1.611297727,-1.766920805,10.31976557
17.44909386,-9.514557838,-2.149993181,-0.8403648138,9.790581932
17.45365132,-7.800309181,-3.172317266,2.700659513,8.84318845
17.45910247,-5.20020628,-4.771644115,5.748478413,9.102512674
17.46410916,-2.813186884,-6.375759125,6.150704384,9.29491739
17.46911293,-0.2370259613,-8.374917984,6.440402508,10.56760224
17.47367139,0.2202665508,-10.15859795,8.489839554,13.24095938
17.47864616,0.117315881,-11.92551899,11.17373943,16.3427115
17.48409786,0.1628057212,-12.9239006,11.64060879,17.39417964
17.48910301,0.4764461517,-13.67089176,10.66377449,17.34463516
17.49366093,0.8355764151,-14.28380775,9.351752281,17.09329174
17.4991117,1.728613615,-14.7841959,5.992686749,16.04596049
17.50411686,2.741360903,-15.07868195,2.501940727,15.52872874
17.50912147,4.345476151,-15.40189934,-2.585737944,16.21072814
17.51412578,4.800374508,-15.4617548,-6.057330132,17.28585275
17.51910055,4.139574528,-15.23430538,-7.673416615,17.55281915
17.52410609,3.241749048,-14.5782938,-7.678205013,16.79257036
17.52911101,2.226607561,-13.27824306,-6.581660271,14.98625277
17.53366855,1.793257117,-12.41393566,-5.781997204,13.81133815
17.53909047,1.398213744,-11.24795914,-4.481945515,12.18849548
17.54412524,0.5458779931,-10.41956615,-3.782838583,11.09843274
17.54909993,-0.3615244627,-9.454702377,-2.439691544,9.771089592
17.55410393,-1.046266198,-8.789113998,-1.517923832,8.980383655
17.55911132,-1.78128612,-8.259995461,-0.9959878922,8.508378055
17.56411501,-2.729389906,-7.711723804,-0.01675941236,8.180497184
17.56911878,-3.299209833,-7.180211067,0.7110779285,7.933841964
17.57367655,-3.591302633,-7.017405033,1.26653266,7.984079971
17.57865139,-4.204218388,-6.667851925,0.7517793179,7.918388326
17.58410278,-4.352658749,-6.639121532,0.1963245422,7.941165924
17.58866001,-4.01507616,-6.804321289,-0.1604115069,7.902237445
17.59411293,-3.320757866,-7.127538681,-0.08379705995,7.863603652
17.59911816,-2.669534922,-7.429207802,0.1029506698,7.894944211
17.60412278,-1.843535304,-7.807491779,0.2106897533,8.02495735
17.60909686,-0.7661445141,-8.319850922,0.2513911724,8.35883331
17.61365509,0.02154781483,-8.667010307,0.1053448766,8.667677285
17.61910616,0.6823474765,-8.880094528,-0.3663128614,8.913801771
17.62411263,1.019929886,-8.983044624,-0.7158663273,9.069057961
17.62911716,1.168370485,-9.052476883,-0.9792284966,9.179940945
17.63412216,1.309628367,-9.102754593,-1.268926859,9.283611529
17.63912893,1.443703651,-9.133879662,-1.496376038,9.367559936
17.64410209,1.460463047,-9.222464561,-1.630451322,9.478669549
17.64910547,1.381454349,-9.29189682,-1.663970232,9.540259932
17.65366393,1.18991828,-9.224859238,-1.498770237,9.42126561
17.6591157,0.8762778044,-9.26556015,-1.572990537,9.438896488
17.66412116,0.691924274,-9.301473618,-1.642422318,9.470676942
17.66912555,0.5075707436,-9.299078941,-1.764526606,9.478610202
17.67409993,0.2466027737,-9.222464561,-1.695094824,9.380192534
17.67910516,0.09097966552,-9.085995674,-1.582567334,9.223237721
17.68410924,-0.3184288144,-8.908824921,-1.477222443,9.036080152
17.6886677,-0.5937620401,-8.724471092,-1.510741234,8.87419226
17.69364186,-1.015141487,-8.51617527,-1.56101954,8.717369757
17.69864578,-1.307234168,-8.331821442,-1.563413739,8.577433895
17.70409993,-1.515529633,-8.125920296,-1.386242747,8.381472405
17.70910309,-1.546654344,-7.941566944,-1.04147768,8.157530321
17.71410862,-1.565807939,-7.855375767,-0.6679822803,8.037716297
17.71911501,-1.606509328,-7.80509758,-0.3184288144,7.975074756
17.72411809,-1.443703651,-7.797914982,0.1029506698,7.931100626
17.72912424,-1.328781962,-7.783549786,0.390254885,7.905795826
17.73409716,-1.156399369,-7.773972988,0.6033388376,7.88263492
17.73910278,-0.9433154464,-7.831433773,0.6464344859,7.914485234
17.74410709,-0.7422025204,-8.0229702,0.6991068721,8.087500592
17.74866455,-0.5841852427,-8.157045364,0.758961916,8.213080096
17.75411686,-0.390254885,-8.382100105,0.7565677166,8.425217846
17.75912216,-0.2609679997,-8.532935143,0.5482721925,8.554512776
17.76368024,-0.1771709323,-8.729259491,0.3782838583,8.739248222
17.76910001,-0.1580173075,-9.006986618,-0.07422025502,9.008678374
17.77410609,-0.0718260482,-9.239224434,-0.7086837292,9.266642313
17.7791104,0.08379705995,-9.481039047,-1.482010841,9.596534765
17.7841157,0.3711012602,-9.828198433,-2.449268341,10.13558661
17.78867232,0.6344634295,-10.00058079,-3.215412855,10.52392701
17.79364732,0.9792284966,-10.19211674,-3.892971992,10.95414821
17.79910216,1.426944256,-10.30464458,-4.299986362,11.2566315
17.80410524,1.881842494,-10.46026707,-4.254496574,11.44811161
17.80911016,2.183511972,-10.58237171,-3.801992416,11.45466987
17.81411409,2.396595955,-10.75954247,-3.134010077,11.46008051
17.8191194,2.408566952,-10.84333992,-2.343923569,11.35223296
17.82412432,2.109291792,-10.83855152,-1.491587639,11.14217863
17.82865101,1.680729628,-10.74517727,-1.108515382,10.93217695
17.83365693,1.230619669,-10.69011021,-1.110909581,10.81790188
17.83866086,0.9145850539,-10.57997704,-1.422155857,10.71423853
17.84366586,0.5722141862,-10.41477776,-1.802833915,10.58514218
17.84908732,0.5243301988,-10.45069027,-2.523488522,10.76382105
17.85412247,0.5985504389,-10.47463226,-2.901772499,10.88560827
17.85865009,0.8427590132,-10.53688145,-2.906560898,10.96285591
17.8641024,1.237802267,-10.7092638,-2.63841033,11.09872491
17.86910763,1.549048543,-10.96783829,-2.315192938,11.31605702
17.87411232,1.814804912,-11.27668953,-1.836352706,11.56846727
17.87911963,2.035071373,-11.60469532,-1.221042871,11.84488981
17.88412186,2.118868589,-12.05241108,-0.9169792533,12.27155523
17.88912732,2.094926596,-12.37562847,-0.8379706144,12.57963005
17.89410124,1.972822189,-12.6629324,-1.07739079,12.86089636
17.89910647,1.695094824,-12.93108368,-1.74776721,13.15830391
17.90411163,1.438915253,-13.31176186,-2.432508945,13.60847459
17.90911593,1.142034173,-13.68525696,-3.031059265,14.06335025
17.91411993,0.7924807668,-14.13057804,-3.471592426,14.5723442
17.91867847,0.3639186621,-14.52083302,-3.833117008,15.02264338
17.92409993,-0.107739076,-14.83926201,-4.187458992,15.41914775
17.92910401,-0.3854664862,-14.90390587,-4.335899353,15.52659067
17.93410947,-0.5626373887,-14.81292629,-4.115632534,15.38433545
17.9391144,-0.356736064,-14.75307083,-3.34230566,15.13113898
17.94411901,0.2466027737,-14.80095482,-2.446874142,15.00387515
17.9491237,0.9983820915,-14.89672279,-1.714248419,15.02823225
17.9540987,1.812410712,-15.02361584,-1.137245774,15.17521642
17.95910493,2.456450939,-15.1720562,-0.825999558,15.39180677
17.96410893,2.554613113,-15.09304714,-0.6464344859,15.32135757
17.96911347,2.351106167,-14.74588871,-0.6296750307,14.94541484
17.9741184,1.745373011,-14.26944256,-0.653617084,14.39064047
17.97912278,0.174776718,-13.8265152,-1.019929886,13.86518397
17.98409816,-1.369483352,-13.69004536,-1.280897856,13.8178698
17.9891027,-2.796427488,-13.74032402,-1.113303781,14.06612797
17.99410678,-4.039018154,-13.66849709,-0.6224924326,14.26635823
17.99911163,-4.774038315,-13.88397598,0.2992752194,14.68488327
18.00411632,-5.305551052,-14.19761562,1.44849205,15.22561298
18.00912147,-6.117185116,-14.37478733,2.60010314,15.83713992
18.01368001,-7.010222435,-14.41069984,3.397372246,16.38150258
18.01910124,-8.140285492,-14.4753437,3.904942989,17.06014077
18.02410609,-8.535328865,-14.5974474,3.715801001,17.31313046
18.02911101,-8.604761124,-14.69321537,2.806004286,17.25706093
18.03366917,-8.530540466,-14.73631191,1.790862918,17.12122073
18.03909224,-8.281543732,-14.90390587,0.5961562395,17.06065002
18.0441267,-7.680599213,-15.07628822,-0.1723825186,16.92086838
18.04910024,-7.055712223,-15.181633,-0.4548983276,16.74729793
18.05410424,-6.600813866,-15.26782417,-0.5746083856,16.64353849
18.05910893,-6.320692539,-14.98530865,-0.6895300746,16.27839308
18.06411501,-5.916072369,-14.67406178,-1.142034173,15.86292039
18.0691187,-5.20020628,-14.30535507,-1.769315004,15.32370075
18.07412455,-3.960009575,-14.00368595,-2.446874142,14.75710301
18.07865047,-3.361459255,-13.57991219,-2.887407303,14.28462615
18.08365655,-3.411737442,-12.90474701,-3.105279684,13.70456893
18.08910793,-2.770091295,-12.73954678,-1.007958889,13.07614006
18.09366617,0.1364694983,-13.42668343,4.417302132,14.13531075
18.09864001,2.509123325,-14.06832886,4.503493309,14.98315817
18.10409224,3.387795448,-13.99650288,1.098938584,14.44253845
18.10865009,3.186682463,-13.836092,-0.691924274,14.21517309
18.11410217,3.263296843,-13.57272911,-1.656787634,14.05749007
18.11866209,3.409343243,-13.39795303,-1.56101954,13.91278365
18.12411378,3.742137194,-12.96220779,-0.8140285611,13.51610388
18.12911693,3.452438831,-12.35168648,-0.174776718,12.82630265
18.13412186,2.612074137,-11.25274754,0.1891419291,11.55348575
18.13868032,2.080561161,-10.46745014,0.1939303428,10.67398034
18.14365378,1.508347034,-9.337387085,1.15400517,9.528569477
18.14910493,1.125274777,-8.379706383,1.936909199,8.673946024
18.15366401,0.6607996821,-7.393294811,2.135627985,7.723883173
18.15866886,0.2178723514,-6.617573261,2.102109194,6.946841534
18.16409016,-0.181959331,-5.832275391,1.862688899,6.125206557
18.16912524,-0.538695395,-5.209783077,1.908178806,5.574332139
18.17409963,-1.553836942,-4.206612587,1.78368032,4.826128281
18.17910486,-1.78368032,-3.667917013,1.529894829,4.35611167
18.18410947,-1.838746905,-3.347094059,1.403002143,4.068469471
18.18911416,-1.944091797,-3.177105665,1.312022567,3.949037419
18.19411932,-1.903390408,-3.174711466,0.8283938169,3.793141739
18.19912609,-1.956062794,-3.203441858,0.5363011956,3.791548544
18.20409786,-1.960851192,-3.203441858,0.3926490843,3.776393841
18.2091027,-1.900996208,-3.217807055,0.2992752194,3.749351208
18.21410832,-1.965639591,-3.236960649,0.1651999205,3.790639031
18.21866647,-2.061407566,-3.368641853,0.0,3.949322611
18.2240874,-2.106897593,-3.550601006,-0.07661445439,4.129364932
18.2291227,-2.097320795,-3.818751812,-0.0023942017,4.356790751
18.23364978,-2.080561161,-3.948038578,0.2035071403,4.467343564
18.23910209,-2.138022184,-4.125209332,0.5482721925,4.678578127
18.24365963,-2.161964178,-4.134786129,0.8020575643,4.734325905
18.2491117,-2.444479942,-4.103661537,1.055842996,4.891863104
18.25411655,-2.913743496,-4.089296341,1.113303781,5.143120748
18.25912301,-3.064578056,-4.05577755,1.11569798,5.204397389
18.26412709,-3.095702887,-3.986345768,1.091755986,5.163938427
18.26910117,-3.100491285,-3.907337189,1.070208192,5.101536601
18.27410578,-2.942473888,-3.782838583,1.024718285,4.900823185
18.27911232,-2.79163909,-3.715801001,0.9720458984,4.748189035
18.28411532,-2.604891539,-3.670311213,0.9145850539,4.592723609
18.28912147,-2.375048161,-3.677493811,0.8188169599,4.453681141
18.29367901,-2.248155355,-3.742137194,0.7733271718,4.433489392
18.29865293,-2.152387381,-3.876212597,0.6368576288,4.479216803
18.30365686,-2.123656988,-3.981557369,0.4285621047,4.532811883
18.30910955,-2.061407566,-4.058171749,0.1316810995,4.553624821
18.31366678,-2.00873518,-4.115632534,-0.06703764945,4.580168362
18.31908947,-1.953668594,-4.144362926,-0.4860229492,4.607470385
18.32412393,-1.965639591,-4.118026733,-1.012747288,4.674135241
18.32909909,-1.752555609,-4.149151325,-1.584961534,4.774830986
18.33410278,-1.508347034,-4.321534157,-2.279279947,5.113304736
18.33910924,-1.577778935,-4.474762917,-3.155557871,5.698283514
18.34411355,-1.733402014,-4.663905144,-4.249708176,6.543448121
18.34911809,-1.771709204,-4.872200489,-5.83466959,7.805168822
18.3541234,-1.924938202,-5.142745018,-6.926425457,8.839037448
18.3590997,-2.066195965,-5.394136429,-8.233659744,10.05778437
18.3636554,-2.226607561,-5.693411827,-9.574412346,11.3596695
18.36910701,-2.509123325,-6.416460514,-10.69250488,12.71991848
18.37411194,-2.78924489,-7.366958618,-11.39161205,13.84993832
18.37911686,-2.669534922,-8.647856712,-11.86326981,14.92142798
18.38367409,-2.149993181,-10.02212811,-12.04044056,15.81258142
18.3890957,-1.422155857,-12.08832455,-12.00692177,17.09725966
18.39410117,-1.56101954,-14.21676922,-11.20007515,18.16576429
18.39910578,-1.754949808,-16.60139465,-10.49618053,19.719431
18.40411163,-1.673547029,-19.31402588,-10.73560047,22.16044839
18.40911624,-1.74776721,-22.52225494,-13.00530338,26.06615764
18.41367355,-1.482010841,-24.23171616,-15.60540676,28.86002675
18.41864732,-0.9241618514,-24.66985512,-16.59181786,29.74465072
18.4240994,-0.8643068075,-23.64513588,-15.78018379,28.44035298
18.42865786,-0.6991068721,-21.38979721,-13.86961079,25.50251514
18.43410947,-0.5195417404,-17.28853035,-11.84650993,20.96432691
18.43911663,-0.5123591423,-13.47935581,-11.21204662,17.54039722
18.44412055,-0.04788403213,-9.825803757,-11.67891598,15.26256174
18.44912432,0.4381389022,-5.851428986,-11.68370438,13.07440763
18.45409817,0.1316810995,-3.124433279,-10.9103775,11.3497031
18.45910394,-0.9481038451,-0.787692368,-9.947908401,10.02398333
18.46410894,-0.8140285611,0.04309562966,-8.015787125,8.057129946
18.46911317,-2.001552582,-0.5793967843,-6.574477673,6.896786936
18.47367078,-3.742137194,-2.252943754,-5.657498837,7.147491827
18.47909286,-4.632780075,-4.924872875,-4.38378334,8.058199578
18.48409778,-6.629544735,-7.639897823,-2.796427488,10.49470861
18.48910301,-7.869740963,-10.9151659,-1.043871999,13.49678992
18.49410709,-8.602366447,-13.38598156,1.941697598,16.02982846
18.49911232,-8.777143478,-15.56231117,4.924872875,18.53316351
18.50411632,-8.418013573,-17.74103546,5.64552784,20.43230962
18.50912147,-7.467514992,-19.25177574,3.306392431,20.9123619
18.51412586,-5.83466959,-20.67872047,-0.5051765442,21.49204627
18.51910155,-3.773261786,-21.77047539,-3.112462282,22.31319172
18.52410586,-0.7230489254,-21.01151466,-4.285621166,21.4563067
18.52910986,2.075772762,-18.68195534,-3.993528366,19.21646577
18.53411509,3.222595453,-15.77060699,-4.065354347,16.6019358
18.53911994,2.300827742,-12.48576164,-2.355894566,12.9127182
18.54412524,-0.3064578176,-7.855375767,3.315969467,8.5320864
18.54910024,-2.516305923,-4.805162907,5.944802761,8.047488175
18.55365717,-4.46279192,-2.916137695,5.372588634,7.568690733
18.5586627,-6.035782337,-1.934514999,2.547430515,6.830989601
18.5641144,-7.094019413,-1.551442742,-1.37666595,7.391028017
18.56911909,-6.833051682,-1.759738207,-1.505952835,7.214926734
18.57412401,-5.657498837,-2.403778553,0.7733271718,6.195440205
18.57909901,-3.8642416,-3.404554844,3.009511471,5.96494058
18.58365655,-1.963245392,-4.673481941,4.417302132,6.723713561
18.58910863,-0.349553436,-6.596025467,5.825092793,8.806897615
18.59366609,-0.1651999205,-8.027758598,7.809885979,11.20118378
18.59864117,-0.2059013397,-9.239224434,9.931148529,13.56589011
18.60409324,-0.9121908545,-10.49618053,11.21683502,15.38893388
18.60909724,-1.414973259,-11.43470764,11.14022064,16.02682764
18.61365532,-1.393425345,-12.11705494,10.12268448,15.85034371
18.61910701,-0.8499416113,-12.83292103,8.473079681,15.40127729
18.62411201,0.1197100878,-13.94143677,5.861005783,15.12380172
18.62911663,1.206677675,-14.93024158,2.961627483,15.26890376
18.63412178,3.059789658,-15.90707588,-1.386242747,16.25789177
18.63912647,5.085284233,-16.6157589,-5.999869347,18.38319862
18.64410032,5.027823448,-16.67322159,-8.741230011,19.48549278
18.64910586,4.003105164,-15.99326706,-8.216899872,18.4208275
18.65411109,2.889801502,-14.84644508,-6.490680695,16.45894347
18.65911624,2.102109194,-13.69483376,-3.801992416,14.36741038
18.66412001,1.247379065,-12.39238834,-2.200271368,12.64786296
18.66867909,0.2513911724,-11.34133339,-1.252167463,11.4130173
18.67365255,-0.8307880163,-10.35252857,-0.7445967197,10.41246757
18.67865878,-1.754949808,-9.47146225,-0.4453215301,9.642964132
18.6836624,-2.48996973,-8.789113998,-0.6560112834,9.158538363
18.6891147,-3.390189648,-7.836222172,-0.3878606856,8.546940955
18.69367224,-4.058171749,-7.24724865,-0.2537853718,8.309980623
18.6990944,-4.608838081,-6.612784863,0.05746084079,8.060621182
18.7040984,-5.111620426,-6.059724331,-0.2873041928,7.932935525
18.70910363,-5.561730385,-5.734113216,-0.8571242094,8.034149685
18.71410824,-5.485116005,-5.801150799,-1.362300754,8.099117947
18.71866524,-5.267243862,-5.956773758,-1.48679924,8.089350004
18.72408709,-4.855441093,-6.148310184,-1.479616642,7.972847154
18.72912247,-4.338293552,-6.344634533,-1.340752959,7.802102076
18.73364955,-3.667917013,-6.663063526,-0.9983820915,7.671166637
18.7391024,-2.772485495,-7.036558628,-0.624886632,7.588828398
18.7441077,-1.958456993,-7.347805023,-0.3926490843,7.61445768
18.7491114,-1.276109457,-7.680599213,-0.282515794,7.791012436
18.75411694,-0.8379706144,-8.042123795,-0.3423708379,8.09290848
18.75867632,-0.423773706,-8.331821442,-0.5267243981,8.35920279
18.76364924,-0.009576806799,-8.626308441,-0.7278373241,8.656964607
18.76910147,0.2178723514,-8.992621422,-1.197100878,9.074566596
18.77410586,0.356736064,-9.198522568,-1.589749932,9.341701285
18.77866363,0.5051765442,-9.323021889,-1.903390408,9.528737352
18.78366863,0.6200982332,-9.481039047,-1.953668594,9.700074444
18.78908978,0.5961562395,-9.495404243,-1.675941229,9.660583989
18.79412555,0.672770679,-9.473855972,-1.414973259,9.602536993
18.79865255,0.653617084,-9.440337181,-1.235408068,9.543239203
18.80410455,0.5315127969,-9.282320023,-1.094150186,9.361684436
18.80910986,0.2777273953,-9.02374649,-0.8834604025,9.07114301
18.81411417,0.0,-8.738836288,-0.6847416759,8.765622102
18.8191187,-0.3208230138,-8.382100105,-0.4884171486,8.402444935
18.82412401,-0.4788403511,-8.145073891,-0.2968810201,8.164536429
18.8290984,-0.586579442,-7.960720539,-0.1221042871,7.98323596
18.83410394,-0.6081272364,-7.797914982,0.0287304204,7.821644471
18.8391107,-0.457292527,-7.61356163,0.3184288144,7.633926517
18.84411409,-0.3950432837,-7.517793179,0.4118026793,7.539420065
18.8491184,-0.2896983922,-7.498639584,0.4955997467,7.520581086
18.85412363,-0.181959331,-7.462726593,0.6751648784,7.495414933
18.85909778,-0.1771709323,-7.383718014,0.7422025204,7.423041548
18.86410217,-0.1843535304,-7.515398979,0.5243301988,7.535922651
18.8691067,-0.1580173075,-7.7284832,0.1915361285,7.732471024
18.87411201,-0.1963245422,-8.142680168,-0.349553436,8.152543852
18.87911747,-0.2106897533,-8.564059258,-0.8690952063,8.610622952
18.88367386,-0.1795651317,-9.033323288,-1.553836942,9.167746861
18.88909571,-0.06703764945,-9.627084732,-2.33913517,9.907411762
18.89410086,0.08140286058,-10.34295177,-3.337517262,10.86840832
18.89910555,0.2202665508,-10.79066753,-4.084507942,11.53994057
18.90411109,0.3519476354,-11.18092155,-4.61362648,12.10051335
18.90911632,0.5099649429,-11.43710136,-4.8314991,12.42621163
18.91412086,0.5889736414,-11.54005241,-4.644751072,12.45365056
18.91912709,0.5674257874,-11.54962921,-4.120420933,12.27573931
18.9240997,0.4788403511,-11.47540855,-3.454833031,11.99375508
18.92910486,0.4716577232,-11.32936287,-2.595314741,11.63239368
18.93410955,0.4381389022,-11.11388397,-1.695094824,11.25094348
18.93866794,0.3806780577,-10.95347309,-1.458068848,11.05664747
18.94364155,0.4165911078,-10.72602367,-1.501164436,10.83857125
18.94864609,0.4979939461,-10.51293945,-1.855506301,10.68703876
18.95409878,0.8403648138,-10.32858658,-2.303221941,10.61558972
18.95910278,1.254561663,-10.30703831,-2.669534922,10.72079196
18.96410801,1.929726601,-10.25915432,-2.729389906,10.78997967
18.96911417,2.731784105,-10.20648193,-2.573766708,10.87470427
18.97411778,3.655946016,-10.27591324,-2.073378563,11.10221747
18.97912278,4.268861771,-10.43153667,-1.553836942,11.37780943
18.98409663,4.702212334,-10.68053341,-0.9097966552,11.70522638
18.98910178,4.927267075,-11.02769279,-0.2657563984,12.08133253
18.9941064,4.94402647,-11.47540855,0.3184288144,12.49919182
18.99911478,4.809951305,-11.81777954,0.4644751251,12.76758716
19.00411809,4.450820923,-12.17930412,0.282515794,12.97016079
19.00912155,3.962403774,-12.44506073,-0.174776718,13.06180413
19.01412586,3.224989653,-12.77067184,-1.098938584,13.21734783
19.01910032,2.523488522,-13.01966858,-2.051830769,13.41975312
19.02410586,1.642422318,-13.36203957,-2.987963676,13.79019867
19.02911132,0.6440402865,-13.73792934,-3.773261786,14.26124101
19.0341154,-0.7182605267,-13.99171448,-4.350264549,14.6699957
19.03912032,-1.814804912,-14.00607967,-4.685452938,14.8800959
19.04412586,-2.722207308,-13.88876438,-4.735731125,14.92432035
19.04910024,-3.265691042,-13.86482239,-4.572925091,14.96027011
19.05410486,-2.999934673,-14.00847435,-4.144362926,14.91350749
19.05910924,-2.176329374,-14.24550056,-3.473986626,14.82360546
19.0636677,-1.118092179,-14.45619011,-2.494758129,14.71242267
19.06908924,0.1556231081,-14.69082165,-1.426944256,14.7607801
19.07412371,0.9481038451,-14.98291397,-0.8643068075,15.03774046
19.07909963,1.379060149,-15.11220074,-0.5051765442,15.18339953
19.08410363,1.563413739,-15.08107662,-0.3519476354,15.16598173
19.08910978,1.137245774,-14.71955204,-0.3375824392,14.76727809
19.09366586,0.5267243981,-14.37957573,-0.4357447028,14.39581572
19.09863909,-0.7733271718,-13.98213768,-0.8164227605,14.02728609
19.10364617,-1.817199111,-13.96537876,-0.9481038451,14.11498911
19.10909663,-3.313575268,-13.87918758,-0.5267243981,14.27897292
19.11410278,-4.079719543,-13.91749477,0.2059013397,14.50459126
19.1191074,-4.525041103,-14.27662468,0.758961916,14.99580049
19.12366494,-5.202600479,-14.65730286,1.326387763,15.60970478
19.12911748,-6.35660553,-15.04516315,2.578555346,16.53518418
19.13412217,-7.606379032,-15.25585365,3.53384161,17.40936843
19.13912617,-8.645462036,-15.35401535,3.857059002,18.03792409
19.14410209,-9.255983353,-15.38753414,3.751713991,18.34461209
19.14910578,-9.737217903,-15.21275806,3.021482468,18.31313126
19.1541104,-10.19211674,-14.99009705,1.994369984,18.23622123
19.15911755,-10.34295177,-14.95657825,0.4860229492,18.1909896
19.16412032,-9.698910713,-15.07149982,-0.8978256583,17.94505689
19.16912494,-8.645462036,-15.10262394,-1.946485996,17.51062738
19.17409994,-7.896077156,-14.98530865,-2.312798738,17.0955125
19.17910432,-7.254431248,-14.68842697,-2.205059767,16.52994096
19.18410894,-6.232107162,-14.30056667,-2.183511972,15.75160599
19.18911355,-4.936843872,-13.77863121,-2.504334927,14.84906727
19.19411963,-4.762067318,-13.02206326,-3.241749048,14.23939442
19.19912494,-3.785232782,-12.46421432,-2.846705914,13.33373018
19.2040984,-1.793257117,-12.48097324,-1.628057122,12.71381273
19.2091034,-0.4022258818,-12.34210968,-0.0191536136,12.34867701
19.21410832,1.78368032,-12.78024864,3.052607059,13.26026699
19.21911317,3.620033026,-13.20402241,2.054224968,13.8445183
19.22411786,3.988739967,-13.10825443,0.1795651317,13.7028692
19.22912394,4.218583584,-12.91432381,-1.312022567,13.64908825
19.23409724,3.876212597,-12.73715305,-1.764526606,13.43032562
19.23910371,3.608062029,-12.36126328,-1.707065821,12.98972729
19.24410863,4.197035789,-11.99255657,-0.4716577232,12.71451861
19.24911317,4.199429989,-11.40118885,0.4141969085,12.15705057
19.25411724,3.555389643,-10.80982113,0.6871358752,11.40022737
19.2591224,2.590526342,-10.25197124,0.7661445141,10.60192051
19.26412586,1.321599364,-9.533711433,1.180341482,9.696983273
19.26910094,0.5746083856,-8.834604263,1.59693253,8.996143662
19.27410648,0.1101332754,-8.030152321,2.04704237,8.287693171
19.27911071,-0.3303998411,-7.249642849,2.111685991,7.55815475
19.28411601,-0.9169792533,-6.184223175,1.941697598,6.546423206
19.28912094,-1.45088625,-5.384559631,2.056619167,5.943756029
19.2941264,-2.066195965,-4.668693542,2.135627985,5.534146009
19.29865232,-2.597708941,-4.106055737,2.252943754,5.355701729
19.30410432,-3.08133769,-3.56496644,1.905784607,5.082877399
19.3086624,-3.294421434,-3.337517262,1.584961534,4.950185564
19.31411509,-3.385401249,-3.110068083,1.158793569,4.740914219
19.31867255,-3.390189648,-3.009511471,0.8475474119,4.611819788
19.32364678,-3.19865346,-3.026270866,0.5027823448,4.431984815
19.32865171,-3.016694069,-3.074155092,0.2011129409,4.31176519
19.33365748,-3.093308687,-3.007117271,0.08140286058,4.314851022
19.33866124,-3.043030262,-3.134010077,0.03112462163,4.368411734
19.34411325,-2.928108692,-3.294421434,-0.07422025502,4.408235673
19.34911817,-2.786850691,-3.466804028,-0.0143652102,4.448086476
19.35367563,-2.535459518,-3.739742994,0.1005564705,4.519330065
19.35865017,-2.346317768,-3.916913986,0.2226607651,4.571323666
19.36365594,-2.26730895,-4.010287762,0.282515794,4.615507879
19.36866086,-2.33913517,-4.072536945,0.3950432837,4.713084946
19.37411201,-2.485181332,-4.027047157,0.423773706,4.751086109
19.37911778,-2.652775526,-3.998316765,0.4501099288,4.81937277
19.38412186,-2.755726099,-3.926490784,0.5027823448,4.82329206
19.38867971,-2.71263051,-3.811569214,0.5363011956,4.708932271
19.39365386,-2.576161146,-3.739742994,0.6177040339,4.582994893
19.39910771,-2.41335535,-3.687070608,0.6607996821,4.455943215
19.40411109,-2.238578558,-3.672705412,0.6967126727,4.357224753
19.40911601,-2.099714994,-3.699041605,0.6679822803,4.305567579
19.41412086,-1.982398987,-3.732560396,0.5530605912,4.262368927
19.41912494,-1.865083098,-3.758896589,0.3950432837,4.214723921
19.42409971,-1.879448295,-3.801992416,0.1843535304,4.245168837
19.42910432,-1.948880196,-3.811569214,-0.02154781483,4.280964634
19.43410948,-1.965639591,-3.811569214,-0.2082955539,4.293621538
19.43911478,-2.001552582,-3.813963413,-0.5051765442,4.336788327
19.44411963,-2.003946781,-3.861847401,-0.8283938169,4.428984575
19.44912494,-2.013523579,-3.885789394,-1.261744261,4.554737643
19.45409871,-2.04704237,-3.892971992,-1.920149803,4.799227924
