Time (s),Acceleration x (m/s^2),Acceleration y (m/s^2),Acceleration z (m/s^2),Absolute acceleration (m/s^2)
30.00424262,-1.283292055,-7.584830761,0.1532289088,7.694152018
30.00924786,-1.213860273,-7.939172745,-0.107739076,8.032155896
30.01425339,-1.165976286,-8.238448143,-0.3974374831,8.330035117
30.01922793,-1.034295082,-8.571242332,-0.7326257229,8.664450467
30.02423278,-0.9265560508,-8.904036522,-1.18991828,9.030851455
30.02923647,-0.6368576288,-9.366117477,-1.960851192,9.590343145
30.03424116,-0.3591302633,-9.749189377,-2.746149302,10.13493976
30.03924947,-0.08140286058,-10.0556469,-3.473986626,10.63913737
30.04425216,0.1316810995,-10.22324085,-3.840299606,10.92153352
30.04922639,0.4285621047,-10.42435455,-4.003105164,11.17477894
30.05378362,0.6464344859,-10.56321812,-3.936067581,11.29123919
30.05878939,0.940921247,-10.74278259,-3.488351822,11.33407734
30.06424086,1.070208192,-10.80742645,-2.8993783,11.24064974
30.06924601,1.165976286,-10.82897472,-2.039859772,11.08093959
30.07425032,1.18752408,-10.7092638,-1.326387763,10.85623549
30.07922478,1.11569798,-10.44829655,-0.7852981687,10.53700033
30.08423001,1.015141487,-10.21127033,-0.457292527,10.27179003
30.08923524,0.962469101,-10.0460701,-0.3974374831,10.09989246
30.09423962,1.312022567,-9.892841339,-0.5817909837,9.996409042
30.09924424,1.776497602,-9.868899345,-0.9672574997,10.074061
30.10424878,2.248155355,-9.859322548,-1.321599364,10.19838558
30.10922386,2.865859509,-9.83777523,-1.668758631,10.38170157
30.11422786,3.318363667,-9.92636013,-1.685518026,10.60118549
30.11923524,3.574543238,-10.13226128,-1.37427175,10.83183737
30.12423893,3.675099611,-10.45547867,-0.8810662031,11.1175388
30.12924262,3.598485231,-10.92234802,-0.3208230138,11.50433439
30.13424786,3.445256233,-11.26950741,0.03351882473,11.78442664
30.13925286,3.165134668,-11.61427212,0.1532289088,12.03880698
30.14422701,2.760514498,-11.84650993,0.08379705995,12.16417937
30.14923193,1.984793186,-12.13860226,-0.3256114423,12.30410873
30.15423739,1.213860273,-12.37562847,-0.9768342972,12.47332522
30.1592417,0.4668693244,-12.65575027,-1.884236693,12.80376233
30.16379993,-0.2370259613,-12.99572659,-2.875436306,13.31214576
30.16921993,-1.335964561,-13.39795303,-3.809175014,13.99284678
30.17422547,-2.171540976,-13.65652657,-4.335899353,14.49194022
30.17923032,-2.873042107,-13.85285091,-4.668693542,14.89807198
30.18423655,-3.236960649,-14.08269405,-4.596867085,15.16348816
30.18924016,-3.01190567,-14.5088625,-4.42209053,15.46394359
30.19424609,-2.214636564,-14.99488544,-3.845088005,15.63764389
30.19925186,-1.00317049,-15.56709957,-2.669534922,15.82616052
30.20422455,0.4333505034,-16.06988144,-0.9002198577,16.10090923
30.20922978,1.297657371,-16.42422295,-0.01675941236,16.47541486
30.2142347,1.862688899,-16.69716263,0.4884171486,16.80783749
30.21879193,2.068590164,-16.80011368,0.5841852427,16.9370646
30.22376632,2.080561161,-16.64927864,0.2609679997,16.78080208
30.22921832,1.426944256,-16.24944687,-0.4285621047,16.31760886
30.23422386,0.5099649429,-16.00284386,-0.9911994934,16.04161938
30.23922793,-0.6607996821,-15.8448267,-1.460463047,15.92570694
30.24423339,-2.202665567,-15.65568447,-1.788468719,15.91071376
30.24879093,-3.062183857,-15.5311861,-1.723825216,15.92376479
30.25421247,-4.683058739,-14.94460678,-1.273715258,15.71288203
30.25880109,-5.705382824,-14.26465416,-0.5674257874,15.3737999
30.26422209,-6.579266071,-13.77863121,0.4788403511,15.27634472
30.26922662,-7.740454197,-13.70441055,1.22583127,15.78696177
30.27423216,-8.839392662,-13.77384281,1.929726601,16.47960719
30.2792387,-9.674968719,-13.8169384,2.087743998,16.99621962
30.28424301,-10.3261919,-13.9198885,1.723825216,17.41737949
30.28924693,-10.6111021,-13.92228317,1.168370485,17.54396039
30.29380393,-10.76672459,-13.8265152,0.5650315881,17.53322964
30.2987787,-10.6111021,-13.73792934,-0.1963245422,17.35985985
30.30423039,-9.835380554,-13.73553562,-1.072602391,16.92779151
30.30923616,-8.676587105,-13.72356415,-1.424550056,16.29873368
30.31424078,-7.491456985,-13.50569153,-1.403002143,15.50787047
30.31924601,-6.691793919,-13.06515884,-1.089361787,14.7195513
30.32425032,-5.516240597,-12.67969227,-0.9121908545,13.85769095
30.32922547,-3.960009575,-12.79700851,-0.624886632,13.41027912
30.33378232,-2.767697096,-12.70842266,-0.7062895298,13.02547499
30.33878724,-1.968033791,-12.37562847,-0.720654726,12.55183972
30.34379186,0.1101332754,-12.70123959,0.3950432837,12.70785881
30.34921378,1.63763392,-12.72039318,0.9528923035,12.86072515
30.35380178,3.773261786,-13.2183876,2.331952572,13.94278588
30.35922447,4.563348293,-13.35725117,-0.1532289088,14.11608251
30.36422824,4.247313976,-12.96220779,-1.446097851,13.71676733
30.36923286,4.13239193,-12.90235329,-1.89620769,13.68002145
30.37423801,4.110844135,-12.72278786,-1.534683347,13.45821769
30.37924239,3.699041605,-12.12902546,-1.240196466,12.74104606
30.38380109,3.871424198,-11.79144382,-0.6200982332,12.42620596
30.38922301,3.569754839,-11.23838234,-0.09337386489,11.7920781
30.3942267,2.839523315,-10.67335129,0.2466027737,11.04735866
30.39923255,1.740584612,-9.943120003,0.7062895298,10.11899773
30.40379032,1.209071875,-9.490615845,1.024718285,9.62204196
30.40879432,0.5243301988,-8.805873871,1.52510643,8.952334132
30.41421678,0.0287304204,-8.087613106,1.881842494,8.303712565
30.41880355,-0.4716577232,-7.299921036,2.114080191,7.614502163
30.42422632,-1.161187768,-6.363788128,2.272097349,6.856280532
30.42923101,-1.884236693,-5.72214222,2.121262789,6.386940998
30.43423532,-2.537853718,-5.183446884,1.886630893,6.071918908
30.43924147,-3.004723072,-4.627991676,1.714248419,5.778002712
30.44424516,-3.244143248,-4.311957359,1.520318031,5.606140258
30.44925093,-3.330334663,-4.074931145,1.213860273,5.400893405
30.45422447,-3.270479441,-3.912125587,0.9145850539,5.180466022
30.45922947,-3.229778051,-3.837905407,0.4812345505,5.039104173
30.46423439,-3.153163671,-3.871424198,0.1125274822,4.99429964
30.46923932,-3.12203908,-3.904942989,-0.2537853718,5.006007869
30.47379716,-3.016694069,-4.007893562,-0.4285621047,5.034612139
30.47921832,-2.86107111,-4.144362926,-0.5770025849,5.06896478
30.48422332,-2.758120298,-4.228160381,-0.6488286853,5.089749154
30.48922886,-2.650381327,-4.285621166,-0.6296750307,5.07814539
30.49423339,-2.580949545,-4.374206543,-0.4429273009,5.098153394
30.49923716,-2.418143749,-4.465186119,-0.2968810201,5.086594599
30.50424332,-2.365471363,-4.510675907,-0.1532289088,5.09559918
30.50924762,-2.370259762,-4.544194698,0.01197100803,5.125229761
30.51425316,-2.370259762,-4.563348293,0.141257897,5.144145486
30.51922909,-2.422932148,-4.527435303,0.2657563984,5.141876805
30.52423132,-2.49236393,-4.49870491,0.3088520169,5.15224353
30.52923678,-2.513911724,-4.527435303,0.3591302633,5.190991921
30.5342417,-2.497152328,-4.484339714,0.3615244627,5.145461336
30.5392467,-2.499546528,-4.390965939,0.3256114423,5.063036394
30.54425224,-2.45405674,-4.326322556,0.3280056417,4.984681438
30.54922578,-2.389413357,-4.304774761,0.2896983922,4.931967872
30.55378455,-2.286462545,-4.316745758,0.1604115069,4.887528697
30.55923555,-2.178723574,-4.331110954,-0.0023942017,4.848233105
30.56423993,-2.063801765,-4.38378334,-0.1867477298,4.848887379
30.56924547,-1.944091797,-4.448426723,-0.4548983276,4.875953826
30.57424978,-1.798045516,-4.525041103,-0.895431459,4.950834492
30.57922386,-1.690306425,-4.637568474,-1.276109457,5.09829702
30.5842297,-1.563413739,-4.802768707,-1.632845521,5.30820443
30.58923409,-1.472434044,-4.94402647,-2.035071373,5.545536515
30.5942387,-1.407790542,-5.006275654,-2.559401512,5.796137182
30.59924632,-1.285686255,-4.979939461,-3.076549292,5.993157909
30.60380232,-1.204283476,-4.953603268,-3.67988801,6.287293519
30.60922393,-1.221042871,-4.898536682,-4.307168961,6.636136811
30.61422824,-1.350329757,-4.833893299,-5.080495834,7.141523143
30.6192334,-1.563413739,-4.814739704,-5.72214222,7.639953699
30.6242384,-1.711854219,-4.838681698,-6.375759125,8.184961201
30.6292427,-1.74776721,-4.936843872,-7.031770229,8.767719783
30.63424793,-1.807622313,-5.104437828,-7.841010571,9.529125392
30.63925224,-1.982398987,-5.463568211,-8.456320763,10.26108397
30.64422732,-2.109291792,-6.009446144,-8.750806808,10.82308526
30.64923247,-2.161964178,-6.91445446,-8.973467827,11.5328615
30.6542377,-1.886630893,-8.420407295,-9.054870605,12.50813003
30.65924209,-1.678335428,-9.971850395,-8.29830265,13.08114815
30.66379924,-1.484405041,-11.75792408,-7.618350029,14.08870094
30.66922209,-1.568202138,-13.54639339,-7.783549786,15.70183681
30.67422578,-1.589749932,-16.10340118,-8.939949036,18.48700958
30.67923286,-1.355118155,-18.63407135,-10.31900978,21.34354523
30.68423616,-0.9744400978,-21.27966499,-12.12423706,24.51062627
30.68924047,-0.3088520169,-23.19742012,-13.46499062,26.82390095
30.6942457,0.7829039693,-23.82709503,-15.27979565,28.31634777
30.69925093,1.546654344,-23.46317673,-16.3308506,28.62882259
30.70422478,1.139639974,-22.00989532,-17.14008904,27.91983029
30.70922947,-0.2274491638,-19.39064026,-17.78173637,26.3104316
30.71378701,-1.503558636,-15.4713316,-17.46809578,23.38283901
30.71879216,-2.30801034,-9.363722801,-15.67004967,18.39990959
30.72421378,-2.226607561,-5.439626217,-14.13057804,15.30426576
30.72880263,-1.867477298,-2.705447912,-12.78503704,13.20091254
30.73422363,-1.347935557,-0.7900865674,-11.15697956,11.26584928
30.73922847,-0.7493851185,-0.3758896589,-9.380482674,9.417872705
30.7442337,-0.5961562395,-0.7158663273,-7.189787865,7.249890785
30.7492377,-1.762132406,-1.580173135,-4.541800499,5.121524141
30.75424301,-3.01190567,-2.686294317,-1.728613615,4.390427992
30.7592494,-2.851494312,-3.924096584,1.891419291,5.206440315
30.76425286,-3.117250681,-5.284003258,5.370194435,8.153338611
30.76877932,-4.606443882,-6.87854147,7.924807549,11.46020212
30.77423163,-6.560112476,-9.186552048,9.619902611,14.83139712
30.77923616,-7.95832634,-11.34851646,10.19929886,17.2089942
30.78379401,-9.555258751,-13.8025732,9.768342972,19.42252613
30.78921624,-10.50815105,-17.12093544,6.909666061,21.24361443
30.79425155,-9.878476143,-20.17833138,2.296039343,22.58364773
30.79877809,-7.934384346,-23.56133842,-4.338293552,25.23711383
30.80378424,-4.367023945,-27.05687332,-10.65419769,29.40505434
30.80923586,2.188300371,-29.92273331,-15.63413715,33.83171399
30.81423993,6.406883717,-28.17017746,-16.57984734,33.3091338
30.81879778,6.818686485,-23.47514725,-13.18008041,27.7721361
30.82421955,4.824316502,-18.1576252,-7.84340477,20.35908596
30.82922486,2.870647907,-11.6023016,1.355118155,12.0287309
30.83422947,0.2298433632,-6.452373505,8.633491516,10.78068308
30.83878732,-1.972822189,-2.700659513,11.03726959,11.53286214
30.84379216,-3.933673382,-0.586579442,9.366117477,10.17555985
30.84921286,-7.062894821,0.8020575643,5.75805521,9.147840149
30.8542494,-8.463502884,1.326387763,2.494758129,8.922667969
30.85922393,-8.918401718,1.623268723,-0.5482721925,9.08149178
30.8642294,-9.205705643,1.810016513,-1.074996591,9.443346537
30.8692344,-8.293514252,1.240196466,1.173158884,8.467394386
30.87423901,-6.370970726,-0.1005564705,2.995146275,7.040616507
30.87924293,-4.168305397,-2.300827742,4.46039772,6.524088136
30.88424786,-2.758120298,-4.824316502,6.313509941,8.410806446
30.88925286,-1.719036818,-7.927201748,9.327810287,12.36137775
30.89422793,-0.9481038451,-10.0508585,11.48738003,15.29308855
30.89923224,-0.004788403399,-11.9566431,11.84172153,16.8281819
30.9042374,0.5315127969,-13.48653793,10.52251625,17.11410411
30.90924201,0.940921247,-14.73391724,8.315062523,16.9444361
30.91424724,1.379060149,-15.52879238,5.940014362,16.68319425
30.9192534,2.396595955,-16.32366753,2.97599268,16.76491354
30.92377901,3.770867586,-16.90545845,-0.7972691655,17.33925044
30.92923101,5.204994678,-17.35078049,-5.279214859,18.86827132
30.93378824,5.57848978,-17.33162689,-7.668628216,19.7563331
30.93879432,4.963180065,-16.70673943,-8.568847656,19.42095386
30.94421463,3.232172251,-15.31331444,-8.032546997,17.59165563
30.9492507,1.922544003,-13.25430107,-6.162675381,14.74283691
30.95422547,0.921767652,-11.76989555,-4.249708176,12.54751436
30.95878263,0.0,-10.59434223,-3.280056238,11.09048494
30.9642347,-1.434126854,-9.308655739,-2.04464817,9.637861674
30.96923986,-2.327163935,-8.556877136,-1.371877551,8.973175933
30.97424424,-3.105279684,-7.934384346,-0.825999558,8.56034416
30.97924947,-3.694253206,-7.376535416,0.02633621916,8.249937884
30.98422386,-4.872200489,-6.612784863,0.3543418646,8.221485231
30.98878109,-5.425261021,-6.270414352,0.2873041928,8.296631665
30.9937857,-5.774814606,-6.014234543,0.3088520169,8.343553825
30.99923963,-5.566518784,-6.030993938,0.390254885,8.216527133
31.00379616,-5.219359875,-6.124367714,0.2226607651,8.049793489
31.00921747,-4.529829502,-6.464344501,-0.4189853072,7.904597007
31.01380578,-3.734954596,-6.852205276,-0.7517793179,7.840138718
31.01922701,-2.870647907,-7.266402245,-0.6943184733,7.843678928
31.0242337,-1.766920805,-7.80509758,-0.4429273009,8.014845099
31.02923647,-0.9576807022,-8.221688271,-0.3782838583,8.285916306
31.03424178,-0.2920926213,-8.671798706,-0.5339069963,8.693127606
31.0392464,0.2873041928,-9.076418877,-0.7374141216,9.110856321
31.04425163,0.8571242094,-9.457097054,-1.053448796,9.554114347
31.04922701,1.201889277,-9.672574997,-1.355118155,9.840710854
31.05378355,1.400607944,-9.81143856,-1.589749932,10.03759603
31.05923563,1.517923832,-9.885659218,-1.740584612,10.15184642
31.06424086,1.601720929,-9.9526968,-1.814804912,10.24281213
31.06924547,1.45088625,-9.9526968,-1.891419291,10.23419325
31.07380301,1.379060149,-9.842563629,-1.910573006,10.12067957
31.07877778,1.247379065,-9.655815125,-1.881842494,9.916251884
31.08423009,0.8786720037,-9.421183586,-1.805228114,9.632736537
31.08878786,0.4812345505,-9.203310966,-1.719036818,9.37483904
31.09423955,0.05746084079,-8.985439301,-1.640028119,9.134063357
31.09924447,-0.2585737705,-8.722076416,-1.438915253,8.843752287
31.10425001,-0.5626373887,-8.341399193,-0.9433154464,8.413402722
31.10922363,-0.7469909191,-8.109161377,-0.6823474765,8.172031066
31.11378109,-0.9097966552,-7.908048153,-0.4955997467,7.975623778
31.11923347,-0.988805294,-7.762001991,-0.383072257,7.834102066
31.1237907,-1.072602391,-7.733271599,-0.2561795712,7.811503919
31.12924332,-0.9481038451,-7.826645374,-0.1987187415,7.886365947
31.13424755,-0.8810662031,-7.855375767,-0.1987187415,7.907129392
31.1388057,-0.7852981687,-7.92001915,-0.1221042871,7.959793088
31.14422793,-0.6631938815,-8.027758598,-0.1005564705,8.055733725
31.14923378,-0.5937620401,-8.224082947,-0.2466027737,8.249176117
31.15423716,-0.5195417404,-8.437167168,-0.4357447028,8.464371618
31.15924355,-0.3351882398,-8.722076416,-0.7493851185,8.760624762
31.1637987,-0.2059013397,-9.057265282,-0.9265560508,9.106863119
31.16922109,0.004788403399,-9.39484787,-1.15161097,9.465167577
31.1737787,0.1987187415,-9.639056206,-1.316810966,9.730615849
31.17878363,0.3136404157,-9.81143856,-1.565807939,9.940545832
31.18423586,0.4501099288,-10.00058079,-2.121262789,10.23298446
31.18924201,0.5602431893,-10.09874249,-2.616862535,10.44731744
31.19379778,0.6368576288,-10.19211674,-2.959233284,10.6321161
31.19922055,0.7062895298,-10.18014526,-3.337517262,10.73653687
31.2042254,0.7134721279,-10.16099167,-3.550601006,10.78710163
31.2092304,0.7302315235,-10.12747288,-3.699041605,10.80656531
31.21378724,0.7134721279,-10.15859795,-3.572149038,10.79196013
31.21924024,0.7350199223,-10.21127033,-3.172317266,10.71792391
31.22424386,0.6775590777,-10.27351952,-2.736572504,10.65331491
31.22924947,0.5746083856,-10.29027843,-2.257732153,10.55070422
31.23422424,0.4525041282,-10.3357687,-1.81959331,10.50446545
31.23923132,0.4932055473,-10.51772785,-1.661576033,10.65958188
31.2442344,0.5985504389,-10.61349583,-1.692700624,10.76428315
31.24923809,0.9097966552,-10.88643551,-2.003946781,11.10666515
31.25424301,1.194706678,-11.12824917,-2.341529369,11.43450976
31.25880047,1.721431017,-11.14979744,-2.387019157,11.53165938
31.26422209,2.482787132,-10.98220348,-2.145204782,11.46189028
31.26922794,2.987963676,-10.81221485,-1.728613615,11.34989083
31.27423155,3.34230566,-10.58955383,-1.165976286,11.16553439
31.27923717,3.536235809,-10.40280628,-0.1508347094,10.98845273
31.28424232,3.502717018,-10.35252857,0.5889736414,10.94489672
31.2892467,3.315969467,-10.33816338,0.9983820915,10.90275389
31.29425155,3.026270866,-10.37647057,0.9792284966,10.85303392
31.29922663,2.41335535,-10.55603504,0.4405331016,10.83735343
31.30378301,1.872265697,-10.79306126,-0.4405331016,10.96310264
31.30923686,1.278503656,-11.11388397,-1.424550056,11.27751442
31.31424086,0.6129156351,-11.52808094,-2.224213362,11.75667644
31.31924724,-0.2082955539,-12.15296745,-2.796427488,12.47228975
31.32425101,-0.8020575643,-12.6389904,-3.074155092,13.0321834
31.32922478,-1.331176162,-12.9430542,-3.239354849,13.40850856
31.3342294,-1.881842494,-13.21359921,-3.399766445,13.77312408
31.33923463,-2.470816135,-13.44104862,-3.75650239,14.1731447
31.34423924,-2.576161146,-13.65413189,-3.974374771,14.45225168
31.34924486,-2.394201756,-13.91270638,-3.869029999,14.63779334
31.35424917,-1.807622313,-14.28141308,-3.205836058,14.7480047
31.35922386,-1.130063176,-14.84644508,-2.291250944,15.06465417
31.36422817,-0.3519476354,-15.27021885,-1.295263171,15.32909513
31.36923317,0.3399766386,-15.62456036,-0.538695395,15.63754019
31.3742387,0.9002198577,-15.8496151,-0.1053448766,15.87550919
31.37879624,0.9576807022,-15.85200977,-0.1963245422,15.88212547
31.3842174,0.7661445141,-15.48090839,-0.7302315235,15.51704676
31.38925309,0.3758896589,-15.07149982,-1.256955862,15.12849424
31.39422694,-0.5650315881,-14.54477501,-1.831564307,14.67052721
31.3992344,-1.443703651,-14.25747108,-2.080561161,14.48062487
31.40423717,-2.396595955,-14.11142445,-2.109291792,14.46807119
31.40924178,-3.481169224,-13.84566879,-1.951274395,14.40932182
31.4142464,-4.627991676,-13.52963352,-1.513135433,14.37911225
31.41925163,-5.35343504,-13.20402241,-0.9337386489,14.27856233
31.42422517,-5.820304394,-12.9478426,-0.1556231081,14.19671757
31.42923132,-6.308721542,-12.75151825,0.8403648138,14.25157529
31.43423555,-7.333439827,-12.6437788,1.750161409,14.72099002
31.4387937,-8.104372978,-12.61026001,1.900996208,15.11003989
31.44376855,-8.398859978,-12.69166279,1.982398987,15.3476076
31.4492187,-8.588001251,-12.77546024,1.987187386,15.52143884
31.45422455,-8.633491516,-12.87362289,1.474828243,15.57056391
31.4592297,-8.219294548,-13.06515884,0.6560112834,15.44945078
31.46423378,-7.414842606,-13.38119316,-0.2178723514,15.29979378
31.46923986,-6.378153324,-13.6206131,-0.9050082564,15.06721543
31.47379678,-5.456385612,-13.59427738,-1.07739079,14.68799824
31.4792214,-4.328716755,-13.6206131,-1.139639974,14.33728249
31.48422332,-3.150769472,-13.69483376,-1.137245774,14.09855127
31.48922847,-2.389413357,-13.5320282,-1.244984865,13.79764729
31.49378609,-1.78128612,-13.05797577,-1.26413846,13.2394017
31.49923932,0.248996973,-13.2327528,-0.4692635238,13.24341174
31.50424294,0.787692368,-13.07712936,-0.5458779931,13.11219869
31.50924847,1.867477298,-13.07952404,1.285686255,13.27457757
31.51380663,3.469198227,-13.6062479,1.565807939,14.12859062
31.51922755,3.64158082,-13.60864258,-0.605733037,14.10046723
31.52378509,3.406949043,-13.50329781,-2.157175779,14.09254274
31.52923771,3.181894064,-13.35725117,-2.67432332,13.98901761
31.53424301,2.449268341,-12.85207462,-2.161964178,13.26080038
31.53924663,1.987187386,-12.33253288,-1.180341482,12.54725018
31.54425132,1.82198751,-11.77707863,-0.248996973,11.91978267
31.54922601,1.618480325,-11.25274754,0.2801215947,11.37199515
31.55423071,1.120486379,-10.38604736,0.6177040339,10.46456057
31.55923901,0.6344634295,-9.770736694,1.000776291,9.842326584
31.56424147,0.1460463107,-9.232041359,1.510741234,9.355974362
31.56924547,-0.4525041282,-8.415618896,1.881842494,8.635318904
31.57425032,-0.8403648138,-7.659051418,1.893813491,7.934343778
31.57922424,-1.177947283,-6.957550049,1.881842494,7.303176956
31.58423009,-1.55862534,-6.320692539,1.817199111,6.75889634
31.58923378,-1.960851192,-5.748478413,1.59693253,6.280138133
31.59423924,-2.315192938,-5.413290024,1.369483352,6.044775585
31.59924547,-2.614468336,-5.125985622,1.237802267,5.885858284
31.6042497,-2.7533319,-4.932055473,0.9768342972,5.732382837
31.60877594,-2.832340717,-4.821922302,0.6296750307,5.627573125
31.61422817,-2.806004286,-4.702212334,0.1675941199,5.478370987
31.61923371,-2.798821688,-4.742913723,-0.1675941199,5.509693386
31.62423832,-2.700659513,-4.807557106,-0.4333505034,5.531180687
31.62924301,-2.56658411,-4.833893299,-0.5698199868,5.502596954
31.63424855,-2.564189911,-4.848258495,-0.5530605912,5.512400235
31.6392544,-2.49236393,-4.891354084,-0.6368576288,5.526555019
31.64422794,-2.533065319,-4.860229492,-0.825999558,5.542610026
31.6487854,-2.60010314,-4.807557106,-0.9528923035,5.548075829
31.65423771,-2.592920542,-4.853046894,-0.9504981041,5.583793311
31.65924178,-2.513911724,-4.862623692,-0.7972691655,5.531771818
31.66424855,-2.391807556,-4.876988888,-0.6129156351,5.466390909
31.66925132,-2.300827742,-4.79319191,-0.4644751251,5.337062312
31.67422663,-2.240972757,-4.728548527,-0.2394201756,5.238172591
31.67923163,-2.202665567,-4.680664539,-0.07661445439,5.173608596
31.68423594,-2.202665567,-4.606443882,0.07900865376,5.106594091
31.68879347,-2.233790159,-4.5394063,0.181959331,5.062522812
31.69421555,-2.334346771,-4.376600742,0.2681505978,4.967465516
31.69925101,-2.37744236,-4.280832767,0.2849099934,4.904990832
31.70422571,-2.37744236,-4.199429989,0.3184288144,4.836201124
31.70923009,-2.300827742,-4.175487995,0.2992752194,4.776826766
31.71378786,-2.212242365,-4.223371983,0.2801215947,4.775914079
31.71924209,-2.078166962,-4.328716755,0.1867477298,4.805355489
31.72379871,-1.984793186,-4.398148537,0.04788403213,4.825495562
31.7292187,-1.922544003,-4.426878929,-0.1771709323,4.829577832
31.73422455,-1.936909199,-4.431667328,-0.3734954596,4.850854709
31.73922794,-1.936909199,-4.441244125,-0.586579442,4.88060878
31.74423317,-1.968033791,-4.465186119,-0.8619126081,4.955192975
31.74923871,-2.085349798,-4.505887508,-1.295263171,5.131219417
31.75424332,-2.212242365,-4.541800499,-1.805228114,5.36477554
31.75924794,-2.351106167,-4.563348293,-2.470816135,5.69708524
31.7638054,-2.487575531,-4.596867085,-3.270479441,6.165651205
31.76877924,-2.607285738,-4.637568474,-4.115632534,6.726322281
31.77423124,-2.67432332,-4.723760128,-5.109226227,7.454536042
31.77879009,-2.688688517,-4.649539471,-5.935225964,8.004634312
31.78379378,-2.700659513,-4.79079771,-6.4691329,8.490876574
31.78876971,-2.662352324,-4.932055473,-7.187393665,9.114379781
31.79422171,-2.45166254,-5.430049419,-8.243236542,10.17089153
31.79922878,-2.188300371,-6.193799973,-9.018958092,11.15766202
31.80378394,-1.702277422,-7.204153061,-9.229647636,11.83148195
31.80878847,-1.173158884,-8.446743965,-8.643068314,12.14192799
31.81424109,-0.3926490843,-10.00058079,-7.39808321,12.44577939
31.81924601,0.02154781483,-11.32457447,-6.229712963,12.9250058
31.82425094,-0.4165911078,-13.26148319,-6.028599739,14.57341756
31.82922424,-0.8212111592,-15.21515179,-7.062894821,16.79463352
31.83423094,-0.9576807022,-17.41063499,-9.184157372,19.70776775
31.83923432,-0.9145850539,-19.83117294,-12.08114147,23.23931723
31.84424024,-0.55784899,-22.71139717,-15.77539539,27.65830539
31.84924478,0.2346317619,-23.9611702,-16.66364288,29.18680735
31.85380263,1.355118155,-23.90131569,-16.07467079,28.83581589
31.85922424,2.293645144,-22.64196587,-14.81053162,27.1527397
31.8642294,2.341529369,-19.4241581,-14.07551193,24.10188195
31.8692344,1.673547029,-16.01960373,-13.98692608,21.33219549
31.87423748,1.046266198,-12.31816769,-14.22874069,18.84911111
31.87924478,0.5554547906,-8.655038834,-14.23592377,16.66972563
31.88380109,0.3758896589,-5.626373768,-13.48414421,14.61572851
31.88922232,0.5937620401,-3.337517262,-11.97819138,12.44864023
31.89422786,0.7805097699,-2.336740971,-10.63264942,10.91433862
31.89923186,0.8786720037,-1.934514999,-8.863334656,9.114445348
31.90423771,0.5937620401,-2.238578558,-6.129156113,6.552124997
31.90924171,-0.02633621916,-2.863465309,-3.904942989,4.84238649
31.91424663,-0.9121908545,-3.730166197,-1.520318031,4.130084615
31.91925224,-1.810016513,-4.819528103,1.616086125,5.395900784
31.92422663,-3.131615877,-7.079654217,4.623203278,9.016791579
31.92923094,-4.508281708,-9.200917244,5.856217384,11.8015577
31.93378794,-5.475539207,-11.48738003,6.562506676,14.31809776
31.93924117,-6.02381134,-13.91270638,6.655880928,16.55748932
31.94424571,-6.586448669,-17.08502388,5.173870087,19.02756628
31.94925132,-6.258443356,-19.68273163,2.571372509,20.81321681
31.95422517,-4.991910458,-22.23734474,-1.484405041,22.83904835
31.95923217,-2.248155355,-24.27960014,-5.810727596,25.06626699
31.96423532,0.5075707436,-23.95638275,-8.808267593,25.52942382
31.96879194,3.397372246,-21.6244297,-10.05804157,24.08987959
31.97376732,3.268085241,-18.22705841,-9.583989143,20.85087258
31.97921871,1.204283476,-14.32690334,-6.730101109,15.8746565
31.98422424,-0.14844051,-9.404424667,-2.806004286,9.815238049
31.98922855,-2.533065319,-5.513846397,3.145981073,6.834919086
31.99378663,-4.546588898,-2.619256735,6.399701118,8.275756815
31.99879094,-5.865794182,-1.22822547,6.27999115,8.680689375
32.00379563,-7.88171196,-0.6177040339,4.580107689,9.136756981
32.00921771,-9.931148529,0.0287304204,-0.7230489254,9.957476402
32.01380601,-11.36527538,0.6129156351,-4.948814869,12.41112077
32.01877924,-11.53765774,0.5913678408,-2.655169725,11.85399461
32.02378517,-10.57758331,-0.007182605099,1.788468719,10.72771834
32.02923686,-8.379706383,-1.604115129,4.620809078,9.702810982
32.03379463,-5.767632008,-3.773261786,4.65193367,8.315261292
32.03877155,-2.983175278,-6.493074894,5.458779812,8.992087263
32.04422232,-1.235408068,-9.689333916,9.485827446,13.61581239
32.04922632,-0.3519476354,-11.94227791,12.53843403,17.3191858
32.05423155,0.5243301988,-13.67568016,13.88636971,19.49693344
32.05923648,1.221042871,-15.10741234,13.04121685,19.99495412
32.06424048,1.07739079,-15.84243298,11.23838234,19.45365496
32.06924578,1.233013868,-16.4194355,8.410830498,18.48946335
32.07425063,1.963245392,-16.83602715,4.534617901,17.54619338
32.07922509,3.483563423,-17.10896492,-1.333570361,17.51086248
32.0842304,4.934449673,-17.14727211,-6.014234543,18.82946498
32.08923563,5.513846397,-16.92221832,-9.44512558,20.14880573
32.0937934,4.814739704,-16.1441021,-10.50815105,19.85535166
32.09921371,3.280056238,-14.40830612,-9.078812599,17.34309351
32.10380178,2.238578558,-12.81137371,-7.094019413,14.81444031
32.10877655,1.15400517,-11.47301483,-5.121197224,12.61699086
32.1137814,-0.3734954596,-10.37886429,-3.866635799,11.08202126
32.11923563,-1.455674648,-9.220070839,-2.422932148,9.643614216
32.12423871,-2.236184359,-8.487444878,-1.333570361,8.877817916
32.12924332,-3.107673883,-7.860164165,-0.2513911724,8.455945553
32.13424848,-3.608062029,-7.414842606,0.09576806426,8.246646227
32.13880571,-4.285621166,-7.041347027,0.3806780577,8.251789655
32.14378048,-5.284003258,-6.358999729,0.9983820915,8.327924999
32.14923278,-5.588066578,-6.282385349,0.8858546019,8.454560434
32.15423748,-5.439626217,-6.505045891,0.4644751251,8.492402049
32.15924178,-4.94642067,-7.000645638,-0.03112462163,8.571877596
32.16380055,-4.089296341,-7.422025204,-0.1364694983,8.475106289
32.16922178,-2.980781078,-7.860164165,-0.05267243832,8.406545719
32.17422548,-1.814804912,-8.169015884,-0.2394201756,8.371598378
32.17878325,-1.120486379,-8.473079681,-0.4692635238,8.559718294
32.18378848,-0.1436520964,-8.844181061,-0.7302315235,8.875438729
32.1887934,0.390254885,-9.066842079,-0.8643068075,9.116301356
32.19421432,0.895431459,-9.284713745,-0.9864110947,9.379803499
32.19925255,1.237802267,-9.421183586,-1.149216771,9.571392469
32.2042254,1.467645645,-9.437943459,-1.37427175,9.649734883
32.20923009,1.616086125,-9.454702377,-1.592144132,9.723068155
32.21423563,1.572990537,-9.411606789,-1.817199111,9.713642683
32.21923955,1.55862534,-9.323021889,-1.814804912,9.625048933
32.22424448,1.498770237,-9.248801231,-1.766920805,9.534602539
32.2292494,1.323993564,-9.155426979,-1.766920805,9.417898452
32.23422294,0.9720458984,-9.050082207,-1.628057122,9.246590246
32.2387814,0.720654726,-8.992621422,-1.505952835,9.146282152
32.24423378,0.3375824392,-8.889671326,-1.364694953,9.000145026
32.24923809,-0.02394201607,-8.815450668,-1.288080573,8.909090597
32.25424325,-0.5434837937,-8.700529099,-1.120486379,8.789201952
32.25880055,-0.8882488012,-8.643068314,-1.063025594,8.753378732
32.26377494,-1.15161097,-8.470685959,-0.9768342972,8.604239286
32.26878055,-1.364694953,-8.32463932,-0.9289502501,8.48675207
32.27423255,-1.455674648,-8.190564156,-0.8571242094,8.362953532
32.27924055,-1.510741234,-8.092401505,-0.6967126727,8.261640862
32.28379586,-1.403002143,-8.027758598,-0.538695395,8.16722204
32.28921717,-1.280897856,-7.989450932,-0.2513911724,8.095382821
32.29425163,-1.180341482,-7.999027729,0.04309562966,8.085759572
32.29922725,-1.103726983,-8.078036308,0.1939303428,8.155396546
32.30378332,-1.043871999,-8.185775757,0.3040636182,8.257666025
32.30878824,-1.060631394,-8.327033043,0.2944868207,8.399472647
32.31424117,-1.108515382,-8.566453934,0.09337386489,8.638382836
32.31924517,-1.086967587,-8.702922821,-0.1939303428,8.772683349
32.32425124,-1.094150186,-8.825027466,-0.5075707436,8.907070364
32.32922486,-1.048660398,-9.011775017,-1.00556469,9.128139894
32.33422909,-0.9768342972,-9.306262016,-1.661576033,9.503765195
32.33923501,-0.9002198577,-9.591172218,-2.188300371,9.878746825
32.34423963,-0.7829039693,-9.825803757,-2.614468336,10.19778421
32.34924394,-0.6440402865,-10.03888798,-2.992752075,10.49526678
32.35380201,-0.5195417404,-10.21366405,-3.246537447,10.72981185
32.35877809,-0.282515794,-10.3261919,-3.591302633,10.9365218
32.36378148,-0.04309562966,-10.39801788,-3.873818398,11.09626523
32.36923432,0.1987187415,-10.44111347,-3.878606796,11.14001483
32.37423925,0.3303998411,-10.46026707,-3.600879431,11.0676413
32.37924294,0.3782838583,-10.46984386,-3.210624456,10.95759274
32.38424817,0.349553436,-10.47223854,-2.85867691,10.86103132
32.38925371,0.2274491638,-10.38844109,-2.67432332,10.72955948
32.39422732,0.09097966552,-10.25436592,-2.583343744,10.57515781
32.39878478,-0.03112462163,-10.17535686,-2.540247917,10.48769353
32.40423655,0.07422025502,-10.12268448,-2.439691544,10.41279715
32.40879471,0.323217243,-10.07001209,-2.372653961,10.35080189
32.4137694,0.5985504389,-9.852140427,-2.341529369,10.14424435
32.41922178,1.283292055,-9.830592155,-2.545036316,10.23545751
32.42422632,1.848323703,-9.746794701,-2.60010314,10.25557623
32.42923101,2.707842112,-9.600749016,-2.487575531,10.28079873
32.43423655,3.203441858,-9.59835434,-2.197877169,10.35476266
32.43879524,3.45722723,-9.648633003,-1.661576033,10.38312929
32.44421494,3.584120035,-9.816226959,-0.9504981041,10.49322042
32.44925101,3.586514235,-10.12986755,-0.0287304204,10.74607493
32.45422455,3.428496838,-10.48181534,0.3998316824,11.03552938
32.45923009,3.141192675,-10.84573364,0.4261679053,11.29949772
32.46423378,2.607285738,-11.20246983,0.02633621916,11.50191126
32.46879186,1.996764183,-11.58554173,-0.7948749661,11.78319441
32.47421378,1.029506683,-12.11944866,-1.853112102,12.30345254
32.47924971,0.2346317619,-12.62223148,-2.834734917,12.93875967
32.48422455,-0.5985504389,-13.07712936,-3.670311213,13.59561545
32.48922817,-1.565807939,-13.46259594,-4.438849926,14.26171913
32.49423402,-2.420537949,-13.57991219,-4.841075897,14.61879047
32.49923871,-3.110068083,-13.6158247,-5.09725523,14.86758947
32.50424271,-3.351882458,-13.70441055,-5.164293289,15.02384471
32.50924763,-3.055001259,-13.9198885,-5.061342239,15.12327721
32.51425309,-2.394201756,-14.00607967,-4.38617754,14.87081112
32.51922794,-1.429338455,-14.01565647,-3.062183857,14.41730227
32.52423224,-0.3926490843,-14.13057804,-1.833958507,14.2545015
32.52923709,0.873883605,-14.35323906,-0.9648633003,14.41215131
32.53424294,1.754949808,-14.47294903,-0.7661445141,14.59907805
32.53924724,2.355894566,-14.48252583,-0.9002198577,14.70048262
32.54425255,2.394201756,-14.36521053,-1.644816518,14.65595091
32.54922571,1.936909199,-14.03481007,-2.30561614,14.35421111
32.55423163,1.309628367,-13.8911581,-2.614468336,14.19559244
32.55923594,0.4429273009,-13.9103117,-2.540247917,14.14729005
32.56424055,-0.5506663918,-14.24071217,-2.310404539,14.43741963
32.56879963,-0.605733037,-14.64533138,-2.221819162,14.82528665
32.57421986,-0.4620809257,-15.5647049,-1.915361404,15.68891859
32.57922425,-1.182735682,-15.81849098,-1.398213744,15.92414903
32.58423009,-2.322375536,-15.83285618,-0.2059013397,16.00359829
32.58923502,-3.100491285,-15.7370882,0.962469101,16.06845786
32.59424025,-3.768473387,-15.51921558,2.042253971,16.10025606
32.59879778,-4.740519524,-15.27021885,2.669534922,16.21044496
32.60421955,-5.923254967,-15.12656593,2.698265314,16.46750078
32.60922448,-6.31590414,-15.21515179,2.470816135,16.65822384
32.61422817,-6.404489517,-15.36359215,2.398990154,16.81703313
32.6187864,-6.038176537,-15.51203251,2.382230759,16.81540222
32.62423832,-4.740519524,-15.66526127,2.592920542,16.57094363
32.62924294,-3.466804028,-15.51921558,2.930502892,16.16949689
32.63424794,-2.343923569,-15.05952835,3.141192675,15.56118451
32.63925317,-1.915361404,-14.21676922,2.571372509,14.57384963
32.64378017,-1.019929886,-13.57033539,2.372653961,13.81389686
32.64923194,0.2274491638,-12.99572659,1.778891921,13.1188833
32.65423717,0.4644751251,-12.35886955,0.3615244627,12.37287734
32.65924232,0.9696516991,-11.84650993,-0.141257897,11.88696664
32.66424702,1.944091797,-11.47540855,0.7685387731,11.66426793
32.66880509,2.195482969,-11.31978607,0.517147541,11.54231969
32.67422694,2.111685991,-11.11388397,0.7948749661,11.34061113
32.67923317,2.56897831,-11.19528675,1.194706678,11.54822147
32.68423771,3.27287364,-11.42991924,0.9265560508,11.9253202
32.68924148,3.148375273,-11.40597725,0.3711012602,11.83834026
32.69379902,2.801215887,-11.50413895,-0.2992752194,11.8440529
32.69921994,2.171540976,-11.51371574,-0.8930372596,11.75069172
32.70422509,1.728613615,-11.43949604,-0.7972691655,11.59680184
32.70923063,1.458068848,-11.25993061,-0.5770025849,11.3685942
32.71423409,1.120486379,-11.0229044,-0.349553436,11.08521983
32.71879278,0.6967126727,-10.67574501,-0.1532289088,10.69955229
32.7237664,0.356736064,-10.23521233,0.1628057212,10.2427212
32.72921863,-0.05506663769,-9.761159897,0.7110779285,9.787180732
32.73422294,-0.4261679053,-9.255983353,1.108515382,9.331862261
32.73922886,-0.7805097699,-8.678980827,1.37666595,8.822080981
32.74423371,-1.26653266,-8.109161377,1.367089152,8.320549018
32.74923955,-1.666364431,-7.809885979,1.261744261,8.084744152
32.75424355,-1.922544003,-7.51300478,1.058237195,7.826958683
32.75924855,-1.884236693,-7.062894821,0.8140285611,7.355098481
32.76380632,-1.833958507,-6.663063526,0.605733037,6.937343286
32.7692264,-1.917755604,-6.160281181,0.4453215301,6.467237591
32.77423186,-1.89860189,-5.781997204,0.2130839527,6.08946513
32.77923809,-1.805228114,-5.377377033,0.1963245422,5.675700453
32.7842424,-1.759738207,-5.245696068,0.1699883193,5.535603113
32.78924632,-1.63523972,-5.130774021,0.07900865376,5.385637694
32.79425217,-1.532289028,-5.099649429,-0.06224924326,5.325242618
32.79922671,-1.510741234,-5.121197224,-0.08619125932,5.340077622
32.80423125,-1.55862534,-5.243301868,0.1508347094,5.472136561
32.80878763,-1.539471745,-5.331887245,0.3351882398,5.559797299
32.81424048,-1.644816518,-5.461174011,0.517147541,5.72689135
32.81924602,-1.965639591,-5.595249176,0.6560112834,5.96664924
32.82425132,-2.286462545,-5.659893036,0.7996633649,6.156440664
32.82922486,-2.681505919,-5.669469833,0.8140285611,6.324239455
32.83422971,-3.023876667,-5.700594425,0.8212111592,6.504997668
32.83923655,-3.368641853,-5.734113216,0.7374141216,6.691156993
32.84424017,-3.56496644,-5.743690014,0.6584054828,6.792087932
32.84924363,-3.691859007,-5.748478413,0.5195417404,6.851623939
32.85424971,-3.732560396,-5.746084213,0.2849099934,6.857890682
32.85922355,-3.677493811,-5.755661011,-0.03112462163,6.83026816
32.86422794,-3.538630009,-5.779603004,-0.2609679997,6.78187419
32.86923278,-3.356670856,-5.820304394,-0.4812345505,6.736079659
32.87423863,-3.186682463,-5.839457989,-0.6967126727,6.688768442
32.87924394,-2.940079689,-5.894524574,-1.027112484,6.666666978
32.88424825,-2.705447912,-5.930437565,-1.331176162,6.652936802
32.8892534,-2.45166254,-5.954379559,-1.680729628,6.655083562
32.89422755,-2.200271368,-5.98789835,-2.111685991,6.719772203
32.89923155,-1.884236693,-6.045359135,-2.667140722,6.87097916
32.90423748,-1.740584612,-6.06451273,-3.066972494,7.015288285
32.90924202,-1.752555609,-6.038176537,-3.483563423,7.187923286
32.91424671,-1.8579005,-5.966350555,-3.933673382,7.383963671
32.91925286,-1.987187386,-5.875370979,-4.302380562,7.548468477
32.92422632,-2.118868589,-5.827486992,-4.527435303,7.677687097
32.92923071,-2.322375536,-5.772420406,-4.647145271,7.76596579
32.93423655,-2.693476915,-5.767632008,-4.608838081,7.858866669
32.9392414,-3.459621429,-5.801150799,-4.479551315,8.104857248
32.94424571,-4.01507616,-5.813121796,-4.565742493,8.411850337
32.94925063,-4.039018154,-5.87297678,-4.266467571,8.30712161
32.95377832,-4.082113743,-5.966350555,-3.97916317,8.251953168
32.95923009,-4.144362926,-6.260837555,-3.943250179,8.480746013
32.96423471,-3.995922565,-6.679822922,-4.486733913,8.984331507
32.96923994,-3.720589399,-7.072471619,-5.525817394,9.715827198
32.97424509,-2.695871115,-7.491456985,-6.715735912,10.41588967
32.9792504,-1.482010841,-8.243236542,-7.024587631,10.93124587
32.98422394,-0.3806780577,-9.13866806,-6.746860504,11.36575103
32.98922917,0.3782838583,-10.22084713,-6.186617374,11.95336979
32.99423317,0.8667010069,-11.32696819,-5.430049419,12.59114037
32.99924117,0.7900865674,-11.95185471,-5.245696068,13.07625309
33.00424332,0.5961562395,-12.26788998,-5.849034786,13.60396026
33.00880086,0.3974374831,-12.23676491,-7.058106422,14.13199343
33.01422325,0.4955997467,-11.99495029,-8.959102631,14.97965192
33.01878048,0.586579442,-11.81299114,-10.12507915,15.56945931
33.0237854,0.7445967197,-11.51850414,-11.26711273,16.13004003
33.02923717,0.9241618514,-11.25753593,-11.49456215,16.11555613
33.03424178,1.252167463,-11.03726959,-11.54484081,16.02100474
33.03879986,1.572990537,-10.87685871,-11.71722317,16.06467159
33.04377348,2.41574955,-10.58237171,-11.99255657,16.17540881
33.04922694,3.251325846,-10.33337498,-12.2846489,16.37871658
33.05378363,4.235342979,-9.974244118,-12.28225517,16.37917788
33.05923586,4.865017891,-9.270348549,-11.89439392,15.84564193
33.06379317,4.876988888,-8.588001251,-11.50892735,15.16555949
33.06921502,4.673481941,-7.941566944,-11.02769279,14.37080121
33.07425071,4.230554581,-7.252037048,-9.969455719,13.03378996
33.07877994,3.507505417,-6.940790653,-9.030928612,11.91783708
33.08423002,2.782062292,-6.847416878,-7.345410824,10.42027105
33.08923432,2.070984364,-7.414842606,-5.973533154,9.744329912
33.09423871,1.04147768,-8.702922821,-4.031835556,9.647861905
33.09924509,0.1053448766,-9.976638794,-1.78368032,10.13538034
33.10424909,-1.134851575,-11.37964058,1.084573388,11.48740211
33.10922417,-2.535459518,-12.8544693,3.550601006,13.57470823
33.11422856,-4.458003521,-14.5878706,4.649539471,15.94672321
33.11923348,-5.750872612,-15.76342392,4.108449936,17.27534169
33.12423802,-7.378929615,-17.24304008,2.681505919,18.94627952
33.12924356,-8.731653214,-18.75617599,0.6679822803,20.69980933
33.13424856,-8.985439301,-20.52788544,-1.18752408,22.43975074
33.13880509,-8.291120529,-21.30360603,-1.470039845,22.90736403
33.14422848,-6.449979305,-20.81279564,-2.214636564,21.90158237
33.14923217,-3.981557369,-19.19910431,-4.766855717,20.17873432
33.15423771,-1.728613615,-16.46492577,-8.104372978,18.43265436
33.15924294,-1.295263171,-13.93904209,-5.841852188,15.16910802
33.16424725,-1.441309452,-11.18331623,-1.78368032,11.41601727
33.16925225,-2.092532396,-8.468291283,0.4381389022,8.733991915
33.17422671,-2.736572504,-5.717353821,0.7350199223,6.381004472
33.17923125,-3.239354849,-4.290409565,0.5554547906,5.40458732
33.18423532,-3.356670856,-3.42131424,0.6703764796,4.8396317
33.18924117,-2.832340717,-2.774879694,2.164358377,4.51736189
33.19424486,-2.00873518,-2.645592928,4.027047157,5.220276599
33.19925032,-1.316810966,-2.851494312,5.396530628,6.244001422
33.20422548,-0.7757213712,-3.373430252,6.603208065,7.455476649
33.20878209,-0.2178723514,-4.42448473,7.673416615,8.86029661
33.21423525,-0.9816226959,-6.054935932,8.501810074,10.48363519
33.21924056,-2.255337954,-7.326257229,9.320627213,12.0679197
33.22379802,-3.191470861,-8.599972725,9.749189377,13.38625081
33.22921871,-3.737348795,-10.15859795,8.863334656,13.99012471
33.23422332,-3.79480958,-11.07797146,7.915230751,14.13410447
33.23922979,-3.545812607,-11.93030739,7.053318024,14.30574418
33.24423402,-2.810792685,-12.9574194,6.169857979,14.62403571
33.24923902,-0.9481038451,-14.63814926,4.747702122,15.41800863
33.25424356,1.321599364,-16.38831139,2.023100376,16.56551569
33.25880117,3.239354849,-17.65244865,-3.689464808,18.32251385
33.2642224,3.957615376,-17.89426422,-10.22324085,20.9852821
33.26922694,2.298433542,-16.76180649,-12.6629324,21.13269529
33.27378517,0.4620809257,-15.62216568,-11.09712505,19.16798799
33.27923679,-0.1460463107,-13.56075859,-6.739677906,15.1439348
33.28379402,-0.09097966552,-12.14339066,-3.392583847,12.60872075
33.28921709,-0.1675941199,-10.75954247,-0.7038952708,10.78384488
33.29380486,-0.2585737705,-10.00058079,-0.009576806799,10.00392764
33.29922609,-0.3854664862,-9.464279175,0.05267243832,9.472272119
33.30423186,-0.5530605912,-9.076418877,0.0023942017,9.093253619
33.30878909,-0.8643068075,-8.671798706,0.08140286058,8.715144605
33.31379286,-1.355118155,-8.154650688,0.3208230138,8.272702126
33.31876879,-1.89860189,-7.802703381,0.4979939461,8.045798105
33.32422148,-2.355894566,-7.565677166,0.6464344859,7.950319976
33.32922517,-2.71502471,-7.443572998,0.5339069963,7.941233836
33.33422948,-2.892195702,-7.443572998,0.3184288144,7.992056798
33.33923525,-3.031059265,-7.457938194,0.04309562966,8.050467043
33.34423925,-3.177105665,-7.455543995,-0.2466027737,8.108017612
33.34924448,-3.220201254,-7.522581577,-0.55784899,8.201836697
33.35425002,-2.815581083,-7.65426302,-0.6368576288,8.180515072
33.35877648,-2.803610086,-7.757213593,-0.8667010069,8.293718278
33.3637814,-2.705447912,-7.900865555,-1.108515382,8.424484036
33.36923317,-2.212242365,-8.140285492,-1.261744261,8.529376457
33.37423832,-1.757344007,-8.35097599,-1.323993564,8.635972262
33.37924325,-1.323993564,-8.535328865,-1.314416766,8.736846641
33.38424856,-0.9792284966,-8.688557625,-1.192312479,8.82448475
33.38925317,-0.8020575643,-8.851364136,-1.034295082,8.947609162
33.39422756,-0.6679822803,-8.901641846,-0.8523358107,8.967268492
33.39878702,-0.5817909837,-9.004592896,-0.7517793179,9.054631197
33.4037904,-0.5841852427,-9.071630478,-0.6584054828,9.114233358
33.40924171,-0.6464344859,-9.15063858,-0.6105214357,9.19373702
33.41379986,-0.7900865674,-9.193734169,-0.538695395,9.243331514
33.41877409,-1.024718285,-9.174580574,-0.490811348,9.244667222
33.42377932,-1.30005157,-9.15063858,-0.4094084799,9.251590988
33.42878356,-1.577778935,-9.121908188,-0.4548983276,9.268523499
33.43378886,-1.903390408,-8.992621422,-0.6033388376,9.211631388
33.43879402,-2.056619167,-8.901641846,-0.7685387731,9.168400176
33.44376794,-2.205059767,-8.841787338,-0.9935936928,9.166608988
33.44877317,-2.281674147,-8.736441612,-1.139639974,9.101111373
33.45422486,-2.276885748,-8.724471092,-1.280897856,9.107211641
33.45923063,-2.248155355,-8.705317497,-1.345541358,9.091052567
33.46378694,-2.15478158,-8.738836288,-1.33835876,9.099535565
33.46879256,-1.999158382,-8.748413086,-1.240196466,9.059219229
33.47421379,-1.788468719,-8.722076416,-0.9911994934,8.958555341
33.47925125,-1.673547029,-8.700529099,-0.7230489254,8.889475013
33.48422448,-1.587355733,-8.743624687,-0.4405331016,8.897456957
33.48878209,-1.517923832,-8.767566681,-0.2849099934,8.902555362
33.49378632,-1.477222443,-8.81066227,-0.05267243832,8.933797074
33.49923779,-1.484405041,-8.841787338,0.1029506698,8.966117359
33.50424333,-1.59693253,-8.901641846,0.3543418646,9.050689433
33.50880117,-1.764526606,-8.913613319,0.4932055473,9.099961992
33.5142224,-1.977610588,-8.916007042,0.5961562395,9.1521324
33.51922756,-2.219424963,-8.956708908,0.5913678408,9.246523539
33.52423186,-2.616862535,-8.997409821,0.3854664862,9.378162796
33.52923686,-2.887407303,-9.109937668,0.1675941199,9.558042322
33.53379463,-3.100491285,-9.224859238,-0.007182605099,9.731964126
33.53876948,-3.253720045,-9.392453194,-0.2250549644,9.94261137
33.54422079,-3.287238836,-9.605537415,-0.5195417404,10.16573715
33.54922632,-3.19625926,-9.825803757,-0.7829039693,10.3622117
33.55423063,-2.997540474,-10.01494598,-1.113303781,10.51303178
33.55923779,-2.717418909,-10.17296314,-1.496376038,10.63544479
33.56424179,-2.322375536,-10.36928749,-2.04704237,10.8215495
33.56924548,-2.037465572,-10.55842972,-2.434903145,11.0254459
33.57425002,-1.750161409,-10.68532181,-2.731784105,11.16699653
33.57922509,-1.465251446,-10.76433086,-2.851494312,11.23159831
33.58423032,-1.146822572,-10.83615685,-2.849100113,11.26298667
33.58923563,-0.8834604025,-10.84573364,-2.829946518,11.2436221
33.59423925,-0.653617084,-10.81939793,-2.837129116,11.20427991
33.59924417,-0.4788403511,-10.84094524,-2.765302896,11.19831603
33.60425032,-0.3543418646,-10.87446404,-2.63841033,11.19556766
33.60922325,-0.2178723514,-10.80742645,-2.398990154,11.0726279
33.61422879,-0.04309562966,-10.723629,-2.051830769,10.91824554
33.61923379,0.2418143749,-10.54166985,-1.687912226,10.67868555
33.62423871,0.5889736414,-10.42195988,-1.479616642,10.54293143
33.62924394,0.9792284966,-10.29746151,-1.268926859,10.42145755
33.63380025,1.510741234,-10.13704967,-1.144428372,10.31270243
33.63922425,2.26730895,-9.957485199,-0.9768342972,10.25896713
33.64422786,2.798821688,-9.890447617,-0.9935936928,10.32674127
33.64923217,3.313575268,-9.895236015,-1.058237195,10.4888199
33.65379032,3.655946016,-10.00058079,-1.125274777,10.70718454
33.65924271,3.622427225,-10.22084713,-1.15400517,10.90501825
33.66380056,3.423708439,-10.39322948,-1.063025594,10.9941358
33.66922117,2.762908697,-10.80263805,-0.9792284966,11.1932811
33.67422548,2.114080191,-11.0085392,-0.85473001,11.24223438
33.67878363,1.233013868,-11.13782597,-0.7422025204,11.23042096
33.68423656,0.141257897,-11.27668953,-0.7015010715,11.29937097
33.68924202,-0.7062895298,-11.40597725,-0.8140285611,11.45677984
33.69379863,-1.479616642,-11.52568722,-1.022324085,11.66515657
33.69921994,-2.238578558,-11.64779091,-1.249773264,11.9266173
33.7037774,-2.540247917,-11.75313568,-1.309628367,12.09562666
33.70923032,-2.643198729,-11.84650993,-1.331176162,12.21058259
33.7142334,-2.549824715,-11.93509579,-1.357512355,12.27969696
33.7192414,-2.126051188,-12.11944866,-1.55862534,12.4028401
33.72424486,-1.41257906,-12.32295609,-1.771709204,12.52954827
33.7292494,-0.4836287498,-12.64617348,-2.042253971,12.819142
33.73377679,0.7254431248,-12.98854446,-2.233790159,13.19918079
33.73878202,1.795651317,-13.39316463,-2.22900176,13.69560774
33.74423402,2.920926094,-13.97974396,-1.89860189,14.40728078
33.7492384,3.655946016,-14.45140171,-1.381454349,14.97055005
33.75424386,4.158728123,-14.8823576,-0.7445967197,15.47042377
33.75924817,4.458003521,-15.23191166,0.07900865376,15.87107969
33.76380571,4.343081951,-15.31810284,0.586579442,15.93269314
33.76922763,3.876212597,-15.19360352,0.9121908545,15.70677255
33.77423225,3.093308687,-14.97573185,0.9983820915,15.3244207
33.77923771,1.78368032,-14.60941887,0.7469909191,14.73684602
33.78379432,0.5099649429,-14.43224812,0.2322375625,14.44312238
33.78921656,-1.393425345,-13.98692608,-0.2944868207,14.05924812
33.79425256,-3.639186621,-13.50569153,-0.9026140571,14.01649368
33.79922702,-5.066130638,-13.03403378,-1.158793569,14.03191073
33.80423248,-6.169857979,-12.61983681,-1.211466074,14.09947086
33.80923594,-7.113173485,-12.17930412,-1.142034173,14.15050981
33.8137941,-7.855375767,-11.80102062,-0.9074024558,14.20543542
33.81921494,-8.353369713,-11.48977375,-0.6679822803,14.22110708
33.8238024,-8.508993149,-11.35330486,-0.5147533417,14.19737535
33.8292254,-8.6957407,-11.30063248,-0.14844051,14.25981189
33.83378202,-8.820239067,-11.40358257,0.01197100803,14.41660348
33.83923432,-8.626308441,-11.62624359,-0.316034615,14.48042179
33.84423956,-8.195352554,-11.82735634,-0.3854664862,14.39439981
33.84879686,-7.668628216,-12.05959415,-0.2106897533,14.29286745
33.8542184,-7.007828236,-12.2654953,0.0191536136,14.12630165
33.85922386,-6.454767704,-12.40914726,0.323217243,13.99126268
33.86422825,-5.963956356,-12.54322243,0.7015010715,13.90659225
33.86923402,-5.839457989,-12.48336792,0.8978256583,13.81085932
33.8742381,-4.5394063,-12.61983681,1.022324085,13.45033967
33.87924548,-2.947262287,-12.88559341,1.268926859,13.27912075
33.88424979,-1.604115129,-13.05079365,1.474828243,13.23145943
33.8892534,-0.4955997467,-13.04361057,1.527500629,13.14209474
33.89422733,0.08858546615,-12.67250919,0.9337386489,12.70717138
33.89878571,0.3136404157,-12.2654953,0.6895300746,12.28886476
33.90379033,1.18991828,-11.93270111,0.6655880809,12.01034008
33.90924271,1.625662923,-11.72201157,0.4836287498,11.84408003
33.91424663,2.571372509,-11.52329254,1.343147159,11.88285622
33.91925186,4.340687752,-12.06198788,2.621650934,13.08457777
33.9242261,4.766855717,-12.32295609,1.654393315,13.31597452
33.92923133,4.307168961,-12.22958183,0.8403648138,12.99309776
33.93423586,3.957615376,-12.09071827,-0.2585737705,12.7245844
33.93924048,3.509899616,-11.81059742,-0.7110779285,12.341606
33.94424602,2.79163909,-11.43710136,-1.022324085,11.81717745
33.94925071,1.786074519,-11.00614548,-0.9816226959,11.1932517
33.95422425,0.55784899,-10.34295177,-0.7685387731,10.38645747
33.95889408,-0.3016694188,-9.825803757,-0.7541735172,9.859320544
33.96389931,-0.55784899,-9.493009567,-0.323217243,9.514877589
33.96890339,-0.7158663273,-9.174580574,0.174776718,9.20412626
33.97390885,-1.043871999,-8.755595207,0.5770025849,8.836461292
33.97891323,-1.489193439,-8.43956089,0.6560112834,8.59501227
33.98343962,-1.879448295,-8.171410561,0.5937620401,8.405761703
33.98889285,-2.11647439,-7.824251175,0.4429273009,8.117546112
33.99389716,-2.207453966,-7.47469759,0.282515794,7.79895969
33.99890277,-2.221819162,-7.077260017,0.1699883193,7.419769927
34.0039077,-2.19308877,-6.789956093,0.08619125932,7.135865121
34.008912,-2.102109194,-6.579266071,0.09576806426,6.907588336
34.01391654,-2.075772762,-6.35421133,0.06943184882,6.68503216
34.01889347,-2.157175779,-6.030993938,-0.1005564705,6.405966503
34.023896,-2.238578558,-5.837063789,-0.2753331959,6.257663782
34.02890093,-2.236184359,-5.746084213,-0.4453215301,6.181934611
34.03390523,-2.152387381,-5.736507416,-0.5291185975,6.149817498
34.03846523,-2.035071373,-5.825092793,-0.7254431248,6.212848724
34.04388577,-2.059013367,-5.91128397,-0.8882488012,6.322325533
34.04844308,-2.264914751,-5.937620163,-0.8379706144,6.409942806
34.053447,-2.52827692,-5.851428986,-0.7254431248,6.415424622
34.05890085,-2.947262287,-5.738901615,-0.6296750307,6.482116736
34.06345693,-3.280056238,-5.691017628,-0.5410895944,6.590844294
34.06887939,-3.60327363,-5.659893036,-0.5123591423,6.729077346
34.07391439,-3.854664803,-5.61679697,-0.5458779931,6.834093336
34.07888954,-4.050989151,-5.595249176,-0.6153098345,6.935123116
34.08389439,-4.165910721,-5.631162167,-0.605733037,7.030768947
34.08889839,-4.228160381,-5.64313364,-0.5530605912,7.073059699
34.09390246,-4.211400986,-5.58088398,-0.5267243981,7.011390935
34.09890916,-4.163516521,-5.552153587,-0.5291185975,6.959974553
34.10391354,-4.127603531,-5.501875401,-0.6344634295,6.9072634
34.10888793,-3.924096584,-5.532999992,-0.7541735172,6.825056821
34.11389223,-3.648763418,-5.5042696,-0.85473001,6.658905443
34.1188997,-3.246537447,-5.509057999,-1.046266198,6.479536896
34.12390216,-2.839523315,-5.511452198,-1.323993564,6.339712686
34.12890739,-2.30561614,-5.468356609,-1.616086125,6.150652336
34.13391223,-1.934514999,-5.458779812,-1.889025092,6.091719061
34.13891754,-1.474828243,-5.513846397,-2.171540976,6.106816736
34.143891,-1.060631394,-5.61919117,-2.449268341,6.220865194
34.14889631,-0.6607996821,-5.770026207,-2.631227732,6.375987612
34.15390054,-0.248996973,-5.901707172,-2.877830505,6.570696726
34.15890616,-0.02154781483,-5.925649166,-3.040636063,6.660274019
34.16391139,0.0359130241,-5.908889771,-3.213018656,6.72605062
34.16891593,0.007182605099,-5.810727596,-3.368641853,6.716573138
34.17388954,-0.1963245422,-5.657498837,-3.488351822,6.64939357
34.17889623,-0.5674257874,-5.511452198,-3.536235809,6.572902027
34.1839,-1.034295082,-5.341464043,-3.600879431,6.524364882
34.18890393,-1.403002143,-5.176264286,-3.670311213,6.498716132
34.19391039,-1.750161409,-5.046977043,-3.778050184,6.542836191
34.1989157,-2.080561161,-4.977545261,-3.871424198,6.640227172
34.20388916,-2.30561614,-5.023035049,-3.928884983,6.781068065
34.20889293,-2.49236393,-5.183446884,-4.027047157,7.021189954
34.21389846,-2.552218914,-5.475539207,-4.355052948,7.447270451
34.218904,-2.659958124,-6.069301128,-4.556165695,8.041793286
34.22390862,-2.545036316,-6.619967937,-4.79079771,8.558792441
34.22891262,-2.33913517,-7.268796444,-5.061342239,9.161011972
34.2338877,-1.972822189,-7.908048153,-5.434837818,9.79626026
34.23889354,-1.398213744,-8.566453934,-5.793968201,10.43595718
34.24389746,-0.691924274,-9.59835434,-6.277596951,11.48979498
34.24890239,-0.2370259613,-10.57997704,-7.055712223,12.71908685
34.25346031,0.1125274822,-11.72201157,-8.403648376,14.42357527
34.258883,0.4118026793,-13.2183876,-10.42914295,16.84227939
34.26343931,0.9744400978,-15.04037476,-12.21761131,19.40186673
34.26889131,1.994369984,-17.63090134,-13.66370869,22.39471207
34.27389624,3.033453465,-19.58935738,-14.29817295,24.44140978
34.27890208,3.615244627,-20.77209473,-14.22874069,25.43633179
34.28390646,4.592078686,-20.47281837,-13.50329781,24.95120299
34.28891039,5.250484467,-19.27332306,-12.13860226,23.37464938
34.29391531,4.783615112,-17.77934265,-11.88481712,21.91430758
34.29889162,3.737348795,-16.02439117,-12.43548393,20.62498846
34.30389477,2.667140722,-14.09945393,-13.28063679,19.55207289
34.30889962,2.070984364,-11.54723454,-13.81933212,18.12736997
34.31345754,2.063801765,-10.0412817,-13.84806252,17.22949365
34.31887962,2.221819162,-7.771578789,-13.21359921,15.48977473
34.3239147,2.214636564,-6.246472359,-11.91833591,13.63707311
34.32888924,1.812410712,-4.86741209,-9.550470352,10.87143123
34.33389316,1.067813993,-3.691859007,-5.341464043,6.5803714
34.33889993,0.2442085743,-3.222595453,-1.388636947,3.517537754
34.34390339,-0.9600749016,-3.165134668,2.061407566,3.8973353
34.34890824,-2.312798738,-3.584120035,4.472368717,6.1803751
34.35391293,-3.955221176,-4.994304657,6.047753334,8.784200245
34.35892031,-5.106832027,-6.617573261,5.997475147,10.28794039
34.363892,-6.045359135,-8.473079681,5.451597214,11.74986632
34.36889777,-6.758831501,-10.38844109,4.711789131,13.25905231
34.37390147,-6.794744492,-12.03086376,3.912125587,14.3601867
34.378908,-7.850587368,-14.69561005,2.832340717,16.90014292
34.383911,-7.860164165,-16.8025074,1.956062794,18.65295197
34.38846977,-7.386112213,-18.78969574,-0.0359130241,20.18931919
34.39344362,-6.083666325,-20.75772858,-3.239354849,21.87207607
34.39889785,-2.97359848,-22.84786606,-8.793902397,24.66171103
34.40390116,0.6560112834,-23.78639412,-13.76665974,27.49079512
34.40890585,2.655169725,-23.13517189,-16.64927864,28.62664116
34.41391047,3.193865061,-20.98038864,-16.40267563,26.82210375
34.41846916,1.917755604,-17.55428696,-11.6669445,21.16479084
34.42389077,-0.5315127969,-12.04044056,-3.56736064,12.5690404
34.42889477,-2.923320293,-7.235277653,2.250549555,8.121577282
34.43389962,-4.999093056,-3.184288263,6.634333134,8.896347523
34.43890677,-6.971915245,-0.4644751251,8.954314232,11.3579524
34.4439107,-8.202534676,1.211466074,9.145850182,12.34486941
34.44891447,-8.003816605,1.647210717,8.382100105,11.70615161
34.45388862,-7.647080421,1.654393315,7.608773232,10.91367428
34.45889439,-7.429207802,1.508347034,6.282385349,9.845638883
34.46389785,-7.264008045,1.120486379,3.311181068,8.061341245
34.46890339,-6.567295074,-0.1029506698,1.592144132,6.758319789
34.47390831,-5.013458252,-2.104503393,1.776497602,5.720108557
34.47891447,-3.433285236,-4.582501888,2.67671752,6.320726837
34.4838877,-1.848323703,-6.955155849,3.031059265,7.808829212
34.48889224,0.1221042871,-9.88805294,4.027047157,10.67734092
34.49389785,1.00317049,-11.95424938,5.370194435,13.14341727
34.49890247,1.63523972,-13.67328548,6.397306919,15.1841457
34.50390731,1.594538331,-14.75546551,6.694188118,16.28123059
34.50891254,0.8882488012,-15.07868195,5.913678169,16.22119677
34.51391685,0.8499416113,-15.22712326,4.728548527,15.96705529
34.51889224,0.9600749016,-15.31570816,3.047818661,15.64550603
34.523896,1.675941229,-15.47372532,1.096544385,15.60279987
34.52890093,2.724601507,-15.59582996,-1.714248419,15.92457262
34.53390524,3.773261786,-15.61019516,-5.851428986,17.09253985
34.53891131,3.512293816,-14.91587639,-7.857769966,17.22103728
34.54346831,2.135627985,-13.61821938,-8.042123795,15.95909023
34.54889016,0.8571242094,-12.25352383,-7.213729858,14.24504849
34.55389447,-0.1891419291,-10.70208168,-5.360617638,11.97107131
34.55890054,-1.019929886,-9.651026726,-3.713406801,10.39095587
34.56390493,-1.570596337,-8.858546257,-2.015917778,9.219790623
34.56891008,-2.506729126,-8.07324791,-1.242590666,8.54429952
34.57391416,-3.12203908,-7.354987621,-0.2729389966,7.99484
34.57888924,-3.574543238,-6.866570473,0.2729389966,7.746072883
34.58389447,-3.885789394,-6.670246124,0.5027823448,7.735911883
34.588899,-4.029441357,-6.615179062,0.7948749661,7.786450917
34.59390362,-4.003105164,-6.675034523,1.161187768,7.869516749
34.59891077,-3.682282209,-6.945579052,1.340752959,7.974828471
34.60346608,-3.131615877,-7.271190643,1.206677675,8.008327065
34.60888708,-2.030282974,-7.908048153,0.8858546019,8.212430391
34.61344462,-1.182735682,-8.358158112,0.7541735172,8.475048578
34.6188987,-0.4501099288,-8.7843256,0.6584054828,8.820457639
34.62345477,0.1197100878,-9.174580574,0.5267243981,9.190467769
34.62890647,0.6224924326,-9.617507935,0.2202665508,9.640149016
34.63391139,0.9600749016,-9.832986832,-0.02154781483,9.879769135
34.63891754,1.271321058,-10.02931118,-0.4022258818,10.1175652
34.643891,1.505952835,-10.21605873,-0.9097966552,10.36645937
34.64889654,1.503558636,-10.31182671,-1.209071875,10.49077277
34.65390085,1.534683347,-10.32858658,-1.261744261,10.51793479
34.65890824,1.44849205,-10.33816338,-1.288080573,10.51831273
34.66391139,1.233013868,-10.23521233,-1.30005157,10.39086275
34.66846862,0.940921247,-10.0508585,-1.364694953,10.1866325
34.67344339,0.4788403511,-9.744400978,-1.438915253,9.861699428
34.67889716,0.07900865376,-9.325415611,-1.546654344,9.453134842
34.68390093,-0.323217243,-8.959102631,-1.551442742,9.098184649
34.68890493,-0.7254431248,-8.607154846,-1.268926859,8.7303813
34.69391047,-1.046266198,-8.418013573,-1.029506683,8.545028349
34.69891477,-1.312022567,-8.36294651,-0.8092401624,8.503831324
34.70388985,-1.553836942,-8.379706383,-0.5506663918,8.540323283
34.70889316,-1.745373011,-8.372523308,-0.3663128614,8.560353883
34.71389785,-1.891419291,-8.374917984,-0.08619125932,8.586276673
34.71845693,-1.912967205,-8.434772491,0.04788403213,8.649111133
34.72387816,-1.82198751,-8.494627953,0.1316810995,8.688825148
34.72891285,-1.711854219,-8.506598473,0.0287304204,8.677182024
34.73388762,-1.508347034,-8.475474358,-0.1628057212,8.610184787
34.73889293,-1.340752959,-8.415618896,-0.2442085743,8.525250597
34.74389685,-1.18991828,-8.429984093,-0.1604115069,8.515061313
34.74890185,-0.9768342972,-8.468291283,-0.03112462163,8.524501817
34.75390677,-0.7469909191,-8.475474358,0.1005564705,8.508923118
34.7589147,-0.5554547906,-8.599972725,-0.01675941236,8.617908202
34.76391754,-0.3950432837,-8.736441612,-0.1268926859,8.746289098
34.768891,-0.2513911724,-8.882488251,-0.2657563984,8.890018083
34.77344885,-0.1651999205,-9.107542992,-0.3615244627,9.116212497
34.77890147,-0.0287304204,-9.504981041,-0.5937620401,9.523552036
34.78345847,0.05985504389,-9.696516991,-0.7924807668,9.729031305
34.78887939,0.08140286058,-9.902418137,-1.132457376,9.967295074
34.79391477,0.0718260482,-9.99100399,-1.474828243,10.09952663
34.79889077,0.09816227108,-10.03888798,-1.829170108,10.20464458
34.8038957,0.07422025502,-9.96466732,-2.281674147,10.22282448
34.80890001,-0.004788403399,-9.835380554,-2.458845139,10.13807935
34.81390493,-0.06464344263,-9.643844604,-2.523488522,9.968746754
34.81891108,-0.1795651317,-9.514557838,-2.499546528,9.839044026
34.82391447,-0.1580173075,-9.454702377,-2.384624958,9.752066586
34.82888893,-0.1891419291,-9.488221169,-2.296039343,9.763908658
34.83389324,-0.1915361285,-9.572018623,-2.171540976,9.81711856
34.83890054,-0.1388636976,-9.655815125,-2.042253971,9.870402734
34.84390431,0.04548983276,-9.715670586,-1.850717902,9.890474256
34.84890885,0.2968810201,-9.842563629,-1.584961534,9.973780637
34.85391293,0.6392518282,-10.04846478,-1.276109457,10.14932227
34.85888731,1.015141487,-10.25436592,-0.9265560508,10.34606393
34.86389224,1.37427175,-10.40998936,-0.490811348,10.51177421
34.86889778,1.89620769,-10.57279491,-0.0287304204,10.74152789
34.87390216,2.26730895,-10.62307262,0.06464344263,10.8625292
34.87890854,2.501940727,-10.65180302,-0.05746084079,10.94184247
34.88391131,2.56658411,-10.63743782,-0.2705447972,10.9460327
34.88891685,2.475604534,-10.68292809,-0.4189853072,10.97402018
34.8938907,2.296039343,-10.77630138,-0.4836287498,11.02879708
34.89889716,1.980004787,-10.9151659,-0.4764461517,11.10352496
34.90390085,1.503558636,-11.07797146,-0.6224924326,11.19685836
34.90890616,0.921767652,-11.16895103,-0.7709329724,11.23340823
34.913911,0.05027823523,-11.26232433,-1.185129881,11.32461965
34.91891685,-0.6177040339,-11.38442898,-1.778891921,11.53911773
34.92389047,-1.18991828,-11.55202293,-2.504334927,11.88010239
34.92844831,-1.63523972,-11.72679996,-3.34230566,12.30296117
34.93389878,-2.018311977,-11.96861458,-4.098873138,12.81101398
34.93845778,-2.243366957,-12.07156467,-4.412513733,13.04705509
34.94343224,-2.595314741,-12.19366932,-4.534617901,13.26589573
34.94888431,-2.71502471,-12.31098557,-4.496310711,13.38463801
34.95388854,-2.52827692,-12.47618484,-4.479551315,13.49495285
34.95844578,-2.04464817,-12.75151825,-4.12999773,13.55871251
34.96389908,-1.221042871,-13.2279644,-3.469198227,13.72972411
34.96890393,-0.4405331016,-13.66131496,-2.762908697,13.94486502
34.97390793,0.3854664862,-14.10184765,-1.939303398,14.23978894
34.97891501,1.393425345,-14.51604462,-0.7805097699,14.60364273
34.9838877,2.025494576,-14.73391724,-0.05985504389,14.87260999
34.98889262,2.425326347,-14.83686829,0.3639186621,15.03819488
34.99345047,2.547430515,-14.83207989,0.3280056417,15.05282644
34.99890339,2.425326347,-14.74588871,-0.1987187415,14.94533141
35.00390885,1.869871497,-14.60463047,-1.438915253,14.79398958
35.00891224,1.182735682,-14.52083302,-2.315192938,14.7517312
35.01391685,0.1939303428,-14.42985344,-2.731784105,14.68744102
35.01889224,-0.8212111592,-14.33408546,-2.552218914,14.58266832
35.02389693,-2.188300371,-14.1808567,-1.908178806,14.47503028
35.02890116,-3.430891037,-13.88636971,-1.206677675,14.3547326
35.03345778,-4.491522312,-13.68765068,-0.9935936928,14.43997168
35.03888085,-5.367800236,-13.53442192,-1.039083481,14.5970391
35.04391631,-6.06211853,-13.33809757,-0.7613561153,14.67084834
35.04888954,-6.87614727,-13.11064816,0.5722141862,14.81546238
35.05344762,-7.565677166,-13.05318737,1.793257117,15.19345065
35.05890031,-8.485051155,-13.10825443,2.518700123,15.81664559
35.06390516,-9.052476883,-13.27824306,2.085349798,16.20517696
35.06891016,-8.963891029,-13.59427738,1.493981838,16.35199381
35.07391385,-8.671798706,-13.91749477,1.130063176,16.43696433
35.07889139,-7.989450932,-14.25507736,0.6751648784,16.35525617
35.08389385,-6.811503887,-14.568717,0.5961562395,16.09346149
35.08889878,-5.310339451,-14.70518684,0.9935936928,15.66618823
35.09390278,-3.56736064,-14.35802746,1.575384736,14.87820055
35.09890831,-3.181894064,-13.74990082,0.7350199223,14.13239104
35.10391378,-3.282450438,-13.13698483,-0.2681505978,13.54351343
35.10888762,-1.987187386,-12.96460247,-0.1053448766,13.11643734
35.11389224,-0.3926490843,-12.63659668,-0.7900865674,12.66735907
35.11889816,1.110909581,-12.50252151,0.2753331959,12.55479879
35.12390247,2.880224705,-12.76588345,0.9600749016,13.12193653
35.12890731,3.303998232,-12.77306652,-0.1292868853,13.19410276
35.13391193,3.442862034,-12.6485672,-0.8355764151,13.13536216
35.13891808,3.804386616,-12.76109505,-1.082179189,13.36001557
35.14389101,3.766079187,-12.79222012,-0.7972691655,13.3588879
35.14844893,3.414131641,-12.70602798,-0.7852981687,13.1801417
35.15390054,2.851494312,-12.40675354,-0.9050082564,12.76235061
35.15890854,1.965639591,-11.86566353,-0.7781155705,12.05251732
35.16391139,1.434126854,-11.28626728,-0.6033388376,11.39300517
35.1689157,1.043871999,-10.68532181,-0.05985504389,10.73635662
35.17344339,0.8236053586,-10.16817474,0.4596867263,10.21182723
35.17889593,0.2178723514,-9.469067574,1.012747288,9.525563823
35.18345231,-0.3184288144,-8.774748802,1.41257906,8.893424147
35.18845747,-0.9959878922,-7.884106159,1.695094824,8.125544183
35.19387908,-1.343147159,-7.216124058,1.731007814,7.541410926
35.19891531,-1.613691926,-6.567295074,1.67115283,6.96606905
35.20388893,-1.965639591,-5.928043365,1.352723956,6.390250327
35.20889293,-2.382230759,-5.482721806,1.046266198,6.068767152
35.21389878,-2.743755102,-5.216965675,0.7230489254,5.938663374
35.21890454,-2.8993783,-5.061342239,0.490811348,5.853586556
35.22390762,-2.832340717,-5.013458252,0.004788403399,5.758206362
35.22891324,-2.583343744,-5.090072632,-0.5219359994,5.731921274
35.23388731,-2.315192938,-5.099649429,-0.9145850539,5.674769463
35.23844678,-2.121262789,-5.142745018,-1.07739079,5.666423303
35.24344978,-2.013523579,-5.13556242,-1.180341482,5.6410535
35.24845501,-1.956062794,-5.078101635,-1.173158884,5.566830304
35.25346031,-1.874659896,-4.963180065,-1.177947283,5.434617363
35.2588827,-1.989581585,-4.86980629,-1.149216771,5.384621377
35.26388731,-2.090138197,-4.838681698,-1.158793569,5.396695358
35.26889016,-2.236184359,-4.898536682,-0.8427590132,5.450360068
35.27389531,-2.26730895,-4.958391666,-0.55784899,5.480650809
35.27890178,-2.284068346,-4.989516258,-0.2633621991,5.493778331
35.28390585,-2.398990154,-4.984727859,0.0191536136,5.532000764
35.28891016,-2.506729126,-4.929661274,0.2681505978,5.536890457
35.29346793,-2.724601507,-4.896142483,0.4716577232,5.622999697
35.2988917,-2.959233284,-4.853046894,0.5410895944,5.709807679
35.30389531,-2.995146275,-4.8314991,0.5195417404,5.708257911
35.30890031,-3.033453465,-4.805162907,0.4596867263,5.701117642
35.31390547,-3.071760893,-4.695029736,0.3280056417,5.62019634
35.31891224,-3.01190567,-4.618414879,0.2681505978,5.520256924
35.32391508,-2.949656487,-4.587290287,0.2130839527,5.457940118
35.32888893,-2.870647907,-4.61362648,0.1508347094,5.435891814
35.33389378,-2.762908697,-4.639962673,0.06703764945,5.400686264
35.33845139,-2.616862535,-4.685452938,-0.02633621916,5.366761813
35.3434557,-2.37744236,-4.778826714,-0.14844051,5.339611551
35.34887808,-2.245761156,-4.841075897,-0.3136404157,5.34582354
35.35391285,-2.073378563,-4.932055473,-0.5051765442,5.373943915
35.35888924,-2.003946781,-4.98233366,-0.9026140571,5.445563657
35.36344493,-1.960851192,-4.967968464,-1.180341482,5.469812983
35.36845008,-1.968033791,-4.922478676,-1.640028119,5.549202244
35.37345539,-2.054224968,-4.845864296,-2.121262789,5.674680327
35.37890831,-2.147598982,-4.695029736,-2.710236311,5.831026193
35.3839117,-2.30801034,-4.563348293,-3.646369219,6.280690078
35.38891624,-2.353500366,-4.431667328,-4.400542736,6.674085379
35.39389101,-2.303221941,-4.374206543,-5.209783077,7.181946387
35.39889724,-2.219424963,-4.429273129,-6.069301128,7.834585107
35.40390116,-2.059013367,-4.5394063,-7.050923824,8.634886935
35.40890616,-2.042253971,-4.881777287,-7.280767441,9.000673602
35.41391131,-1.963245392,-5.145139217,-7.467514992,9.278500428
35.41891724,-1.927332401,-5.561730385,-7.338228226,9.407286992
35.4234427,-1.980004787,-6.217741966,-7.151480675,9.681136811
35.42844731,-1.908178806,-7.156269073,-7.134721279,10.2838505
35.4338997,-1.690306425,-8.626308441,-7.003039837,11.2389012
35.43890547,-1.438915253,-10.0317049,-6.502651691,12.04118181
35.44390985,-1.213860273,-11.77229023,-6.263231754,13.38985982
35.44891385,-1.11569798,-14.38196945,-6.528987885,15.8339354
35.45388831,-0.8331822157,-16.72589302,-7.477091789,18.34002703
35.4588947,-0.5841852427,-19.27092934,-9.306262016,21.40832788
35.46389901,-0.05506663769,-22.03144455,-11.92073059,25.04977842
35.4689037,0.7613561153,-24.32269478,-14.68603325,28.42274999
35.47346085,1.687912226,-25.10799408,-15.94538307,29.79120098
35.47888485,2.408566952,-24.40888596,-15.81609631,29.18465026
35.48388801,2.964021683,-22.75928116,-15.68680954,27.80011325
35.48889316,3.167528868,-19.8958168,-16.50083733,26.04139777
35.49389724,2.71502471,-15.08347034,-16.9006691,22.81479899
35.49890393,2.319981337,-10.59913063,-16.31169701,19.59069531
35.50390732,2.152387381,-6.330269337,-14.8727808,16.30658425
35.50891162,2.11647439,-3.23456645,-12.98854446,13.5515376
35.51391624,1.752555609,-1.209071875,-10.97741508,11.18199213
35.51889293,1.019929886,0.1867477298,-8.180987358,8.246434735
35.52389632,1.019929886,0.1867477298,-8.180987358,8.246434735
35.52890085,-0.6799532771,-0.1795651317,-3.162740469,3.239985705
35.53390647,-1.199495077,-1.424550056,-0.1436520964,1.867824196
35.53846393,-2.770091295,-2.7533319,2.537853718,4.657783145
35.54388524,-3.857059002,-4.817133904,6.84023428,9.212518016
35.54889008,-4.738125324,-6.598419666,9.167398453,12.24868026
35.55389501,-6.162675381,-8.374917984,9.670180321,14.19965516
35.55890208,-8.0229702,-10.67574501,8.508993149,15.83485228
35.56390454,-8.978256226,-12.62462521,6.629544735,16.85055221
35.56890947,-9.552865028,-14.72434044,4.146757126,18.03493904
35.57391501,-9.469067574,-17.08981133,-0.8667010069,19.55699523
35.57888916,-8.262390137,-20.54224968,-5.774814606,22.88229876
35.58389354,-5.925649166,-23.26206398,-10.50336266,26.20224352
35.58889847,-2.686294317,-25.63950539,-15.61498356,30.14014143
35.59345685,1.173158884,-26.90125084,-19.36190987,33.16530042
35.59843193,3.502717018,-25.29234695,-18.03073311,31.25826575
35.60388308,3.303998232,-20.25494576,-10.26873112,22.94833481
35.60888824,1.44849205,-15.51682091,-2.145204782,15.73123529
35.61389347,-1.283292055,-9.710882187,6.086060524,11.53205116
35.61845078,-2.978386879,-6.787561893,8.063671112,10.95283418
35.6239027,-5.082890034,-3.263296843,7.249642849,9.4362174
35.62846001,-6.574477673,-1.347935557,5.307945251,8.556574649
35.63388185,-7.948749542,0.3303998411,3.454833031,8.673387724
35.63891993,-7.941566944,0.9074024558,2.482787132,8.369952012
35.64344485,-7.422025204,0.9074024558,2.236184359,7.804508814
35.64889724,-6.567295074,0.624886632,3.023876667,7.256974438
35.65390116,-4.994304657,-0.2801215947,4.98233366,7.060113017
35.65845839,-3.993528366,-1.221042871,6.31590414,7.571648408
35.66343416,-2.497152328,-3.325546265,8.396465302,9.369933685
35.66888516,-1.67115283,-5.413290024,9.600749016,11.14768327
35.67388955,-1.163581967,-7.965508938,10.05325317,12.8790976
35.67889478,-0.8427590132,-9.703699112,10.02452278,13.97723421
35.68390024,-0.6033388376,-11.288661,9.447520256,14.73273647
35.68890547,-0.4501099288,-12.70842266,8.257601738,15.16227529
35.69390916,0.4189853072,-14.36042213,5.961562157,15.5543401
35.69891416,1.855506301,-15.71314621,3.574543238,16.22107354
35.70388855,3.699041605,-17.06108093,0.8427590132,17.47780404
35.70889347,5.470750809,-18.21748161,-2.303221941,19.16013001
35.71389847,6.931213856,-19.03390312,-6.088454723,21.15184329
35.71890524,6.483498096,-18.66280174,-7.754819393,21.22435253
35.72390947,4.400542736,-17.26458931,-7.785943985,19.44355277
35.72891347,2.260126352,-15.40189934,-6.452373505,16.85110673
35.73388793,0.4381389022,-13.18247414,-4.292803764,13.87075175
35.73889285,-0.605733037,-11.72919369,-2.983175278,12.11776513
35.74389716,-1.594538331,-10.63264942,-2.094926596,10.95374382
35.7489027,-2.942473888,-9.782708168,-1.685518026,10.35376756
35.75390739,-4.005499363,-8.597578049,-0.9026140571,9.52770096
35.75891255,-4.639962673,-7.762001991,-0.06703764945,9.043363454
35.76391685,-5.408501625,-6.909666061,0.117315881,8.775485054
35.76889193,-6.186617374,-6.335057735,-0.1843535304,8.856702393
35.77389685,-6.074089527,-6.181828976,-0.2585737705,8.670434445
35.77890147,-5.870582581,-6.131550789,-0.1795651317,8.490694821
35.78390578,-5.554547787,-6.095637321,-0.457292527,8.259474071
35.78891132,-4.876988888,-6.224924564,-0.4884171486,7.922957639
35.79391632,-4.225766182,-6.390124321,-0.1651999205,7.662772323
35.79889201,-3.301604033,-6.68461132,0.1891419291,7.457908042
35.80344924,-2.23139596,-7.089231014,0.4405331016,7.445159079
35.80890024,-1.120486379,-7.61595583,0.4692635238,7.712229326
35.81390493,-0.3950432837,-8.025363922,0.3543418646,8.042890241
35.81890924,0.1316810995,-8.379706383,0.1364694983,8.381851997
35.82391508,0.4285621047,-8.700529099,-0.1843535304,8.713028078
35.82888832,0.691924274,-9.083600998,-0.672770679,9.134724226
35.83389416,0.921767652,-9.337387085,-1.015141487,9.437529625
35.83889908,1.137245774,-9.617507935,-1.343147159,9.777209782
35.84390308,1.333570361,-9.835380554,-1.63763392,10.05957084
35.84890862,1.331176162,-10.01973438,-1.841141105,10.27408914
35.85391355,1.41018486,-10.08916569,-1.908178806,10.3644118
35.85844062,1.326387763,-10.10353088,-1.833958507,10.3539386
35.86389285,1.125274777,-10.09156036,-1.683123827,10.29265465
35.86889747,0.7805097699,-9.955090523,-1.520318031,10.10071234
35.87390247,0.4165911078,-9.794678688,-1.44849205,9.909965084
35.87890924,-0.05746084079,-9.545681953,-1.33835876,9.63921936
35.88391224,-0.55784899,-9.251194954,-1.156399369,9.339864189
35.88891632,-1.125274777,-8.853757858,-0.8499416113,8.965359573
35.89389201,-1.453280449,-8.556877136,-0.7996633649,8.716170712
35.89889632,-1.687912226,-8.295908928,-0.739808321,8.498145031
35.90390116,-1.764526606,-8.101978302,-0.5339069963,8.309071141
35.9089067,-1.750161409,-7.886500359,-0.08619125932,8.078823045
35.91391101,-1.716642618,-7.785943985,0.323217243,7.979489645
35.91891508,-1.616086125,-7.752425194,0.6129156351,7.942763771
35.92389016,-1.484405041,-7.711723804,0.8643068075,7.900706843
35.9284477,-1.33835876,-7.733271599,1.034295082,7.916088687
35.93390085,-1.158793569,-7.726089001,1.103726983,7.89008663
35.93890462,-1.065419793,-7.709329605,1.058237195,7.854218501
35.94390924,-0.9528923035,-7.764396191,0.8619126081,7.869990171
35.94891478,-0.9050082564,-7.876923561,0.3806780577,7.937876323
35.95388893,-0.8643068075,-8.054094315,-0.04070143029,8.100439376
35.95889593,-0.8978256583,-8.295908928,-0.4309563041,8.35547241
35.9638997,-0.8523358107,-8.686163902,-0.9193734527,8.776170419
35.96890455,-0.758961916,-9.234436035,-1.288080573,9.3546771
35.97346124,-0.7038952708,-9.682151794,-1.642422318,9.845663157
35.97843601,-0.6392518282,-10.0460701,-1.934514999,10.25058611
35.98388701,-0.5602431893,-10.3501339,-2.343923569,10.62699966
35.98889293,-0.490811348,-10.54166985,-2.655169725,10.88198627
35.99389716,-0.4261679053,-10.65419769,-2.887407303,11.04674923
35.99890185,-0.349553436,-10.78348446,-3.112462282,11.22912045
36.00346032,-0.2082955539,-10.86249352,-3.191470861,11.32354356
36.00888147,-0.009576806799,-10.93192482,-3.114856482,11.3670314
36.01346947,0.1795651317,-10.9103775,-2.920926094,11.29603427
36.01889162,0.349553436,-10.9103775,-2.633621931,11.22918026
36.0238957,0.4213795066,-10.96065521,-2.30801034,11.20894442
36.02890155,0.4692635238,-10.994174,-2.233790159,11.22861918
36.03390647,0.4788403511,-10.96544361,-2.343923569,11.22337825
36.03891316,0.5961562395,-10.87925243,-2.573766708,11.19543705
36.04391724,0.9504981041,-10.73560047,-2.849100113,11.14782201
36.04889132,1.37666595,-10.64222622,-2.983175278,11.13784193
36.05389632,1.975216389,-10.59194851,-2.892195702,11.15596921
36.05889993,2.652775526,-10.57279491,-2.518700123,11.18771919
36.06390455,3.526659012,-10.53688145,-1.879448295,11.26922891
36.06890985,4.156333923,-10.50336266,-1.371877551,11.37883064
36.07346732,4.745307922,-10.47702694,-0.8188169599,11.53067656
36.07888824,5.063736439,-10.43393135,-0.2777273953,11.60109834
36.08389409,5.090072632,-10.51054573,0.3136404157,11.68241333
36.08845132,4.984727859,-10.7188406,0.6129156351,11.83709091
36.09345662,4.616020679,-11.0037508,0.6871358752,11.95250327
36.09887716,4.125209332,-11.22401714,0.6033388376,11.97330074
36.10391355,3.162740469,-11.38921738,0.2729389966,11.82335381
36.10888832,2.185906172,-11.45864964,-0.1221042871,11.66592245
36.11389285,1.156399369,-11.53526402,-0.6751648784,11.61272677
36.11889901,0.2130839527,-11.64060879,-1.18991828,11.70320825
36.12390308,-0.825999558,-11.88960552,-1.798045516,12.05313081
36.12890739,-1.484405041,-12.18648624,-2.284068346,12.48722842
36.13391285,-1.982398987,-12.41633034,-3.004723072,12.92762645
36.13891755,-2.614468336,-12.52167511,-3.720589399,13.32180835
36.14344362,-3.045424461,-12.50730991,-4.039018154,13.49151878
36.14889755,-3.466804028,-12.45224285,-4.333505154,13.63291418
36.15390086,-3.485957623,-12.50252151,-4.359841347,13.69208389
36.1589067,-2.870647907,-12.76348972,-4.077325344,13.70298768
36.16391139,-2.078166962,-13.10107136,-3.529053211,13.72629102
36.16891632,-1.319205165,-13.56315231,-2.806004286,13.91305369
36.17389039,-0.5530605912,-14.06593513,-1.994369984,14.21738087
36.17889508,0.3280056417,-14.53040981,-0.8786720037,14.5606477
36.18390055,0.85473001,-14.80813789,-0.2777273953,14.83538485
36.18890462,1.137245774,-14.93742466,0.08619125932,14.98090159
36.19390916,1.106121182,-14.87517548,-0.04070143029,14.91630001
36.19891539,0.6105214357,-14.42985344,-0.7110779285,14.46025721
36.20388924,0.0359130241,-13.90791798,-1.446097851,13.98294215
36.2084467,-0.7565677166,-13.48174953,-1.910573006,13.63745777
36.21389901,-1.474828243,-13.28542519,-2.078166962,13.52761689
36.21890362,-2.506729126,-13.28063679,-1.944091797,13.65424832
36.22390862,-3.447650433,-13.2423296,-1.656787634,13.78370531
36.22891262,-4.414907932,-13.18965721,-1.314416766,13.97090408
36.23344124,-5.367800236,-13.06276417,-0.940921247,14.15395421
36.23889293,-6.205770969,-12.93587208,0.05267243832,14.34751387
36.24389724,-6.660669327,-12.87122822,1.395819545,14.55957911
36.2489027,-7.32146883,-12.86643982,2.688688517,15.04587071
36.25390793,-8.037335396,-12.90235329,3.301604033,15.55538716
36.25846547,-8.46589756,-13.01727486,3.045424461,15.82388942
36.26388709,-8.808267593,-13.28781986,2.382230759,16.1191426
36.26889109,-8.750806808,-13.54639339,1.788468719,16.22590565
36.27344916,-8.386888504,-13.75947762,1.022324085,16.14646307
36.27890339,-7.240066051,-14.06354046,-0.06943184882,15.81791856
36.28390647,-6.143521786,-14.17846203,-0.7996633649,15.47291527
36.2889107,-4.936843872,-14.12339592,-1.161187768,15.00636854
36.29391532,-3.986345768,-14.17367363,-1.496376038,14.79942965
36.29888986,-2.971204281,-14.10424232,-1.975216389,14.54851148
36.30389539,-2.906560898,-13.6254015,-2.571372509,14.16727281
36.30890055,-1.537077546,-13.47456741,-1.927332401,13.6982183
36.31390516,-0.1867477298,-13.40513515,-2.147598982,13.57736
36.31891039,0.1963245422,-13.06037045,-2.197877169,13.2454703
36.32391509,0.8283938169,-12.80179691,-0.9121908545,12.86096158
36.32888886,2.389413357,-12.9574194,0.9145850539,13.20759173
36.33389378,2.856282711,-13.17289734,0.3734954596,13.48417866
36.33889909,2.698265314,-13.03403378,-0.1268926859,13.31100199
36.34390393,2.760514498,-12.96939087,-0.720654726,13.27949107
36.34890832,2.71263051,-12.81137371,-0.5817909837,13.10832336
36.35391355,2.331952572,-12.43308926,-0.4070142806,12.65643599
36.35888862,1.850717902,-12.08353615,-0.1580173075,12.22546408
36.36389286,1.302445769,-11.57596493,0.3112462163,11.6531628
36.36889755,0.7110779285,-11.05163479,0.517147541,11.08655514
36.37345655,0.1675941199,-10.41956615,0.6129156351,10.43892294
36.37890762,-0.2513911724,-9.603142738,0.7757213712,9.637701574
36.3839117,-0.7422025204,-9.011775017,1.019929886,9.099626943
36.38891747,-1.192312479,-8.444349289,1.314416766,8.628808458
36.39389078,-1.59693253,-7.781155586,1.541865945,8.091596033
36.39889716,-1.853112102,-7.192182064,1.355118155,7.549692214
36.40390055,-2.279279947,-6.600813866,1.276109457,7.098895415
36.40890616,-2.564189911,-6.10281992,1.331176162,6.752148609
36.41391078,-2.624045134,-5.623979568,1.340752959,6.349202906
36.4189157,-2.540247917,-5.248090267,1.118092179,5.936787099
36.42344424,-2.331952572,-4.896142483,0.9002198577,5.497327514
36.42844832,-2.250549555,-4.683058739,0.6631938815,5.237923116
36.43389993,-2.293645144,-4.520252705,0.2968810201,5.077561511
36.43890732,-2.281674147,-4.46279192,-0.004788403399,5.012242169
36.44390955,-2.130839586,-4.481945515,-0.2537853718,4.96917699
36.44891501,-1.989581585,-4.548983097,-0.4070142806,4.981700786
36.45388916,-1.838746905,-4.596867085,-0.3950432837,4.966712833
36.45889416,-1.881842494,-4.632780075,-0.3758896589,5.014506499
36.46389939,-2.032677174,-4.704606533,-0.3926490843,5.139968135
36.4689037,-2.159569979,-4.764461517,-0.4118026793,5.247229506
36.47346209,-2.262520552,-4.809951305,-0.3399766386,5.32636977
36.4788827,-2.422932148,-4.75249052,-0.1628057212,5.336972179
36.48344032,-2.609679937,-4.668693542,0.04548983276,5.348756687
36.48889316,-2.719813108,-4.630385876,0.2705447972,5.376899775
36.49345016,-2.841917515,-4.548983097,0.3878606856,5.377748441
36.4989027,-2.940079689,-4.443638325,0.4836287498,5.350129616
36.50390732,-3.007117271,-4.323928356,0.5195417404,5.292356218
36.50891293,-3.08373189,-4.218583584,0.5913678408,5.258855935
36.51346893,-3.117250681,-4.110844135,0.6392518282,5.198551165
36.51889262,-3.138798475,-4.005499363,0.6967126727,5.136291421
36.52344855,-3.100491285,-3.878606796,0.6607996821,5.009320624
36.52890247,-3.007117271,-3.799597979,0.5770025849,4.879818753
36.53345839,-2.956839085,-3.75650239,0.5291185975,4.809799795
36.53843324,-2.882618904,-3.711012602,0.3950432837,4.715629913
36.54388547,-2.758120298,-3.684676409,0.2944868207,4.612026703
36.54889016,-2.53067112,-3.7181952,0.04788403213,4.497951172
36.55344763,-2.41574955,-3.744531393,-0.1628057212,4.459132981
36.55845316,-2.317587137,-3.835511208,-0.6296750307,4.525356009
36.56390401,-2.224213362,-4.010287762,-1.039083481,4.702045033
36.56891016,-2.176329374,-4.335899353,-1.70946002,5.143800765
36.57391478,-2.185906172,-4.57531929,-2.379836559,5.601370765
36.57888855,-2.248155355,-4.771644115,-3.11964488,6.128211341
36.58389378,-2.274491549,-4.977545261,-3.842693806,6.686969741
36.58889901,-2.255337954,-5.262455463,-4.534617901,7.303611866
36.59390339,-2.23139596,-5.525817394,-5.106832027,7.84815387
36.59890947,-2.391807556,-5.930437565,-5.35104084,8.338133554
36.60391355,-2.355894566,-6.370970726,-5.870582581,8.977931111
36.6088877,-2.121262789,-7.242460251,-6.438008308,9.919724658
36.6138917,-1.673547029,-8.243236542,-6.385335922,10.56050298
36.61889786,-1.072602391,-9.301473618,-5.983109951,11.11150269
36.62390178,-0.3950432837,-10.39322948,-5.753266811,11.88593107
36.62890678,0.3639186621,-11.84172153,-6.040570736,13.29839466
36.63391201,0.4046200812,-13.10107136,-6.773196697,14.75391411
36.63891747,0.2705447972,-14.36521053,-8.681375504,16.78686239
36.64344455,0.4692635238,-15.74905872,-11.47301483,19.49059076
36.64889632,1.039083481,-18.20790482,-15.46414852,23.91123965
36.6534547,1.67115283,-20.57576942,-18.30846024,27.59265764
36.6589067,3.138798475,-22.46000671,-18.67956161,29.38077568
36.66391109,5.501875401,-22.97715378,-16.54393387,28.84305768
36.66891601,6.962338448,-21.6531601,-13.23035812,26.31303621
36.67344239,6.198588371,-19.38585091,-11.72440529,23.48819688
36.67844955,4.529829502,-16.55111694,-11.74116516,20.79215686
36.68389962,2.782062292,-13.57033539,-12.67250919,18.77462017
36.68890462,1.434126854,-10.26394272,-14.01086807,17.42726783
36.69390978,1.096544385,-8.197746277,-14.44421864,16.64454582
36.69891539,1.063025594,-6.694188118,-13.95580196,15.5147216
36.70388947,0.9576807022,-5.573701382,-12.6533556,13.85967919
36.70889324,0.6895300746,-4.642356873,-9.842563629,10.90426466
36.71389901,0.1604115069,-4.089296341,-7.28555584,8.356279095
36.71890393,-0.6655880809,-3.892971992,-4.491522312,5.98097075
36.72390824,-1.826775908,-3.890577793,-0.739808321,4.361309681
36.72891416,-2.997540474,-4.175487995,2.207453966,5.593996952
36.73344093,-4.352658749,-5.013458252,4.438849926,7.986475474
36.73844462,-5.346252441,-6.282385349,5.882553577,10.13189111
36.74389755,-5.992686749,-7.900865555,5.944802761,11.56186191
36.74845509,-6.179434776,-9.677363396,5.31273365,12.65155782
36.75345993,-6.184223175,-12.00213337,3.847482204,14.03919303
36.75888309,-5.899312973,-14.25507736,2.444479942,15.62000661
36.76388616,-5.377377033,-17.12811852,0.940921247,17.97703981
36.76844455,-4.884171486,-18.79208946,0.004788403399,19.41643068
36.77344893,-3.519476414,-21.45923042,-2.655169725,21.90742365
36.77845347,-2.372653961,-23.13038254,-6.16506958,24.05519
36.78345932,-1.149216771,-23.95638275,-11.10909557,26.43181753
36.78843347,-0.3543418646,-23.50148392,-15.57907009,28.19845261
36.79388524,-0.653617084,-20.68590355,-13.97016716,24.96996979
36.7988904,-1.74776721,-16.82405472,-7.783549786,18.61953691
36.80389501,-3.696647406,-11.14261436,1.292868972,11.81078182
36.80890055,-5.628767967,-6.701370716,5.307945251,10.23551079
36.81390524,-7.874529362,-3.086126089,5.762843609,10.23439072
36.81890955,-9.583989143,-0.7086837292,4.848258495,10.76386041
36.82391532,-10.30943298,0.8690952063,2.552218914,10.6561511
36.82888893,-9.84974575,1.436521053,0.8978256583,9.994357158
36.83389286,-9.014169693,1.640028119,0.825999558,9.199305558
36.83890116,-7.522581577,1.501164436,2.923320293,8.209051699
36.84390393,-4.958391666,0.6416460276,6.244078159,7.999116801
36.84890824,-2.743755102,-0.7613561153,8.092401505,8.578742175
36.85391347,-0.6871358752,-2.908955097,9.409213066,9.872561268
36.85844093,1.161187768,-5.772420406,10.87685871,12.36831637
36.86389386,1.663970232,-8.985439301,12.39717674,15.40119825
36.86844986,1.058237195,-10.86728191,12.44745445,16.55768113
36.87345532,0.3782838583,-12.33732128,11.49216843,16.86483116
36.8789074,-0.2322375625,-13.44583702,10.16338634,16.85641983
36.88391255,-0.6344634295,-14.40112305,7.807491779,16.39365172
36.88891724,0.1651999205,-15.05713463,4.939238071,15.84741831
36.89344424,1.774103403,-15.7322998,1.067813993,15.86798433
36.89889686,3.481169224,-16.46971321,-3.687070608,17.23265743
36.9034547,5.264849663,-17.22388649,-8.736441612,20.01765021
36.90845901,6.332663536,-17.70033264,-13.07712936,22.90012479
36.91343409,5.166687489,-17.17121506,-13.16810894,22.24734544
36.9188874,3.414131641,-15.89031696,-10.86728191,19.55137551
36.92344393,2.166752577,-14.31014347,-7.39808321,16.25443503
36.92889563,0.605733037,-12.55279922,-3.785232782,13.12507783
36.93345316,-0.7685387731,-11.34612179,-1.944091797,11.53709775
36.93890463,-2.23139596,-10.20169353,-0.3974374831,10.45043709
36.94346301,-2.67432332,-9.016563416,0.7015010715,9.430934461
36.94843593,-3.770867586,-7.65426302,1.493981838,8.662515019
36.95388832,-4.534617901,-6.749254704,1.142034173,8.210934211
36.95844701,-4.994304657,-6.098031521,1.149216771,7.965536179
36.96345132,-5.166687489,-5.674258232,0.9911994934,7.737851286
36.96890363,-5.066130638,-5.499481201,1.019929886,7.546537623
36.97390801,-4.862623692,-5.54257679,1.079784989,7.451926077
36.97891324,-4.513070107,-5.889736176,0.6847416759,7.451554547
36.98344086,-3.869029999,-6.179434776,0.457292527,7.305061515
36.98889255,-2.329558372,-6.720524311,0.08379705995,7.11331928
36.99344955,-1.051054597,-7.249642849,-0.2585737705,7.329999836
36.9989037,0.3399766386,-7.95832634,-0.5434837937,7.984104012
37.00346055,0.7972691655,-8.279149055,-0.6943184733,8.346377978
37.00843416,1.261744261,-8.6957407,-0.9648633003,8.839619114
37.0138874,1.527500629,-9.021351814,-1.199495077,9.228046119
37.01889232,1.742978811,-9.385271072,-1.508347034,9.664181239
37.02389593,1.855506301,-9.593565941,-1.728613615,9.923079972
37.02890086,1.8602947,-9.773131371,-1.764526606,10.10387783
37.0334587,1.836352706,-9.873687744,-1.673547029,10.18148617
37.03843386,1.757344007,-9.940725327,-1.52510643,10.20941857
37.04343847,1.510741234,-9.998186111,-1.462857246,10.21694749
37.04844301,1.22822547,-9.969455719,-1.369483352,10.13775467
37.0538954,0.8331822157,-9.789890289,-1.307234168,9.911861866
37.05889993,0.2226607651,-9.493009567,-1.422155857,9.601527782
37.06390493,-0.2394201756,-9.244012833,-1.508347034,9.369322603
37.06890947,-0.6799532771,-8.920795441,-1.529894829,9.07653601
37.07391501,-1.07739079,-8.614337921,-1.472434044,8.805433024
37.07888955,-1.489193439,-8.288725853,-1.364694953,8.531299179
37.08389447,-1.807622313,-7.991845131,-1.067813993,8.263008759
37.08889963,-2.075772762,-7.771578789,-0.9504981041,8.099982474
37.09390393,-2.157175779,-7.627926826,-0.7757213712,7.964949382
37.09890832,-1.989581585,-7.489062786,-0.423773706,7.760417544
37.10391378,-1.78368032,-7.410054207,-0.009576806799,7.621713098
37.10888732,-1.520318031,-7.424419403,0.2633621991,7.583055455
37.11389324,-1.247379065,-7.479485989,0.316034615,7.5893704
37.11889693,-0.9313444495,-7.673416615,0.1651999205,7.731495071
37.12390301,-0.6967126727,-7.783549786,0.1316810995,7.815778638
37.1289074,-0.4644751251,-8.087613106,0.09097966552,8.101450499
37.13391224,-0.2537853718,-8.429984093,-0.1987187415,8.43614414
37.13891724,-0.1436520964,-8.865729332,-0.3806780577,8.875061031
37.14389193,0.06464344263,-9.181763649,-0.490811348,9.195099687
37.14889655,0.2657563984,-9.404424667,-0.5482721925,9.424140926
37.1534544,0.4525041282,-9.526528358,-0.6033388376,9.556334041
37.1589077,0.6991068721,-9.569623947,-0.962469101,9.643277434
37.16391293,0.9074024558,-9.605537415,-1.218648672,9.724959271
37.1689154,1.072602391,-9.715670586,-1.582567334,9.901982134
37.17389047,1.347935557,-9.923966408,-2.298433542,10.27544823
37.17889601,1.544260144,-10.08677197,-2.964021683,10.62605913
37.18390001,1.721431017,-10.29506683,-3.485957623,11.00470928
37.18890463,1.865083098,-10.56561184,-3.713406801,11.35341704
37.19390986,1.862688899,-11.00614548,-3.682282209,11.7543205
37.19891447,1.788468719,-11.28626728,-3.390189648,11.91938905
37.20388916,1.534683347,-11.48019695,-2.949656487,11.95201441
37.20889347,1.218648672,-11.6717329,-2.585737944,12.01667567
37.2138987,0.921767652,-11.81299114,-2.243366957,12.05939927
37.21890393,0.7829039693,-11.79862595,-2.032677174,11.99801189
37.22390978,0.7445967197,-11.66933918,-1.814804912,11.83306461
37.22891255,0.8858546019,-11.52089882,-1.675941229,11.67581376
37.23344055,1.074996591,-11.28147888,-1.491587639,11.43032008
37.23889509,1.357512355,-10.88882923,-1.285686255,11.04818677
37.2438987,1.656787634,-10.55603504,-1.029506683,10.7347429
37.24845624,1.956062794,-10.35252857,-0.806845963,10.56655241
37.25343009,2.042253971,-10.36210537,-0.5267243981,10.57456702
37.25888209,2.099714994,-10.49618053,-0.2418143749,10.70687083
37.26391747,2.020706177,-10.72602367,-0.2106897533,10.9167407
37.26889201,1.810016513,-10.94389629,-0.3854664862,11.0992617
37.27389686,1.362300754,-11.24317074,-0.7829039693,11.35243103
37.2788997,0.9792284966,-11.54962921,-1.204283476,11.65345966
37.2839067,0.4836287498,-11.8728466,-1.59932673,11.98983858
37.28891163,-0.0359130241,-12.39717674,-2.013523579,12.55967986
37.29391624,-0.6847416759,-13.06994724,-2.219424963,13.27472181
37.2988904,-1.103726983,-13.48414421,-2.317587137,13.72630935
37.30389509,-1.503558636,-13.74271774,-2.41335535,14.03379006
37.30890001,-1.867477298,-13.8959465,-2.729389906,14.28405999
37.31390493,-2.288856745,-13.95580196,-3.373430252,14.53902697
37.3189114,-2.427720547,-13.98932076,-3.691859007,14.67054004
37.3239157,-2.212242365,-14.1904335,-3.823540211,14.86209538
37.32888978,-1.788468719,-14.4849205,-3.732560396,15.06464568
37.33389378,-1.086967587,-14.99727917,-3.167528868,15.36662357
37.33889909,-0.4668693244,-15.28937244,-2.391807556,15.48236481
37.34390455,0.1651999205,-15.5599165,-1.632845521,15.64622884
37.34890863,0.7565677166,-15.67244434,-0.7805097699,15.71009554
37.35391409,0.8475474119,-15.58625317,-0.4740519226,15.61647686
37.35888801,0.8140285611,-15.34683323,-0.6009446383,15.38015173
37.36389255,0.5315127969,-14.8775692,-1.058237195,14.92462519
37.36889693,-0.3112462163,-14.30535507,-1.632845521,14.40160555
37.37390186,-1.307234168,-13.98453236,-1.958456993,14.18138076
37.37890793,-2.26970315,-13.84806252,-1.762132406,14.1430371
37.38391263,-3.287238836,-13.59427738,-1.244984865,14.04137828
37.38891686,-4.417302132,-13.19444561,-0.2801215947,13.91705505
37.39389078,-4.991910458,-13.02445698,0.2944868207,13.95142903
37.3988987,-5.513846397,-12.88559341,1.113303781,14.05988851
37.40390186,-5.990292549,-12.74194145,2.068590164,14.23094312
37.40890578,-6.833051682,-12.53125191,2.849100113,14.5547326
37.41391132,-7.39808321,-12.34929276,2.846705914,14.6744813
37.41891624,-7.601590633,-12.2559185,2.583343744,14.65146352
37.42388955,-7.479485989,-12.21042824,2.214636564,14.4893714
37.42889563,-7.141903877,-12.37562847,1.539471745,14.3712541
37.4338994,-6.643909931,-12.70123959,0.8571242094,14.35958523
37.43890494,-5.839457989,-13.20162773,0.2753331959,14.43807649
37.44390978,-5.030217648,-13.67328548,-0.3303998411,14.57295404
37.44891378,-4.216189384,-14.04678154,-0.9696516991,14.69790968
37.45388886,-3.569754839,-14.21916389,-1.340752959,14.72159604
37.45889378,-2.796427488,-14.30535507,-1.513135433,14.65444538
37.4638994,-2.494758129,-13.97495556,-2.059013367,14.34443227
37.46890394,-1.326387763,-13.72595787,-2.027888775,13.93820494
37.47390832,-0.2035071403,-13.78820801,-1.968033791,13.92943833
37.47891409,0.248996973,-13.58470058,-1.833958507,13.71019669
37.48388678,0.7493851185,-13.25908947,-0.3112462163,13.28389649
37.48889355,2.93768549,-13.74511242,1.211466074,14.10764904
37.49389747,3.145981073,-13.8169384,0.3758896589,14.17555208
37.4989024,3.064578056,-13.77384281,-0.7350199223,14.12977844
37.50390647,2.67671752,-13.58709431,-0.8858546019,13.87655169
37.50891263,2.087743998,-13.2279644,-0.1556231081,13.3926075
37.51391747,1.707065821,-12.78743172,0.2202665508,12.90275168
37.51844401,1.474828243,-12.19127464,0.3711012602,12.2857646
37.52344863,1.010353088,-11.47301483,0.2513911724,11.52015973
37.52890117,0.3016694188,-10.37168217,0.3136404157,10.38080757
37.53345963,-0.004788403399,-9.615114212,0.9145850539,9.658514899
37.53888086,-0.5003881454,-8.949525833,1.575384736,9.100892154
37.54391563,-1.180341482,-8.255207062,1.984793186,8.572109054
37.54888947,-1.501164436,-7.24485445,2.178723574,7.712862444
37.55389478,-1.776497602,-6.540958881,2.173935175,7.118011026
37.55890178,-1.968033791,-5.975927353,2.106897593,6.635049525
37.56390555,-2.070984364,-5.386953831,1.944091797,6.089970503
37.56890978,-1.994369984,-4.936843872,1.884236693,5.648033903
37.57391509,-1.927332401,-4.57531929,1.522712231,5.192957667
37.57888924,-1.802833915,-4.311957359,1.137245774,4.810043071
37.58389355,-1.726219416,-4.249708176,0.7613561153,4.649679148
37.5888987,-1.678335428,-4.276044369,0.4692635238,4.61752894
37.5939037,-1.642422318,-4.27125597,0.2226607651,4.58156703
37.59890947,-1.517923832,-4.364629745,0.0359130241,4.621187653
37.60391347,-1.383848548,-4.527435303,-0.1580173075,4.736842481
37.60888732,-1.297657371,-4.697423935,-0.3782838583,4.888026693
37.61389232,-1.295263171,-4.788403511,-0.5267243981,4.988381848
37.61845047,-1.367089152,-4.778826714,-0.5195417404,4.997603539
37.62390301,-1.675941229,-4.766855717,-0.2633621991,5.059748222
37.62890732,-1.89860189,-4.721365929,-0.02633621916,5.088877967
37.63346486,-2.097320795,-4.635174274,0.2082955539,5.091854486
37.63844209,-2.291250944,-4.520252705,0.3591302633,5.080500955
37.64344463,-2.49236393,-4.405331135,0.5458779931,5.090854854
37.64889747,-2.746149302,-4.27125597,0.7613561153,5.134649616
37.65345417,-2.906560898,-4.165910721,0.9121908545,5.160910825
37.6589064,-3.028665066,-3.974374771,1.031900883,5.102282463
37.66346278,-3.100491285,-3.742137194,1.113303781,4.985587457
37.66843786,-3.066972494,-3.586514235,1.125274777,4.85135527
37.67344363,-2.925714493,-3.483563423,1.130063176,4.687436634
37.67889478,-2.7533319,-3.387795448,1.034295082,4.486397315
37.6838997,-2.583343744,-3.284844637,0.8858546019,4.271838897
37.68890586,-2.487575531,-3.19865346,0.7493851185,4.120800169
37.69390986,-2.379836559,-3.217807055,0.5770025849,4.043616732
37.69846678,-2.260126352,-3.282450438,0.3806780577,4.00344449
37.70388917,-2.202665567,-3.406949043,0.07661445439,4.057697273
37.70889417,-2.140416384,-3.462015629,-0.2801215947,4.07987777
37.7138987,-2.190694571,-3.483563423,-0.7541735172,4.183674763
37.71890486,-2.298433542,-3.586514235,-1.290474772,4.450978122
37.72390924,-2.466027737,-3.758896589,-1.984793186,4.914264987
37.72891355,-2.631227732,-3.90254879,-2.688688517,5.42054355
37.73344024,-2.779668093,-4.048594952,-3.514688015,6.039098246
37.73889232,-2.810792685,-4.276044369,-4.402936935,6.750626979
37.74389747,-2.624045134,-4.563348293,-5.547365189,7.647419241
37.7489024,-2.346317768,-4.740519524,-6.397306919,8.300799253
37.75390617,-2.176329374,-5.147533417,-6.981492043,8.942859775
37.75846524,-2.023100376,-5.743690014,-7.620744228,9.754929662
37.7634394,-1.702277422,-6.617573261,-8.185775757,10.66287715
37.76889201,-1.110909581,-8.192957878,-9.342175484,12.47537261
37.77344886,-0.7948749661,-9.782708168,-9.928754807,13.96113811
37.77845355,-0.4932055473,-11.40597725,-9.114726067,14.6088261
37.78345901,0.1436520964,-12.86643982,-7.709329605,14.99998908
37.78888086,0.691924274,-14.74349403,-7.211335659,16.42719506
37.79346855,-0.04070143029,-16.47450256,-8.604761124,18.58636073
37.79889224,-0.5363011956,-18.81363678,-12.49773312,22.59278382
37.8038957,-0.5889736414,-20.96363068,-16.53435707,26.70591067
37.80890055,-0.2442085743,-22.95321083,-20.31719589,30.65449354
37.81390517,1.802833915,-23.78639412,-20.48478889,31.44311262
37.81890855,4.568136692,-23.35783195,-17.44175911,29.50713723
37.8239147,4.967968464,-21.28684807,-14.54956341,26.25833976
37.82888886,3.876212597,-18.00918579,-12.46900272,22.24481571
37.83389317,2.446874142,-13.97256088,-11.54484081,18.28942317
37.83889871,1.443703651,-9.050082207,-11.6669445,14.83596516
37.84390363,1.22822547,-6.050147533,-12.18648624,13.66101277
37.84890832,1.130063176,-4.113238335,-12.36844635,13.08335727
37.85391409,1.11569798,-3.033453465,-11.82975101,12.26334502
37.8588877,1.108515382,-2.463633537,-10.14423275,10.49779761
37.86389317,1.017535686,-2.480392933,-8.135497093,8.565864868
37.86844947,0.4668693244,-2.980781078,-6.071695328,6.780007888
37.87390301,-0.55784899,-3.7181952,-4.467580318,5.839130495
37.87890886,-2.288856745,-4.723760128,-2.264914751,5.716870978
37.88391194,-2.760514498,-5.892130375,0.004788403399,6.506739858
37.88891747,-3.217807055,-6.892906666,2.291250944,7.94457522
37.8938914,-3.124433279,-8.406042099,4.522646904,10.04380217
37.8988957,-4.182670593,-10.43393135,5.018246651,12.3103394
37.90390094,-4.702212334,-12.30380249,4.431667328,13.89726706
37.90890609,-4.608838081,-14.31732655,3.165134668,15.37027343
37.91346309,-4.414907932,-16.63730812,1.04147768,17.24459653
37.91843847,-3.785232782,-19.12488365,-1.426944256,19.54802629
37.92389009,-2.092532396,-22.25889397,-5.013458252,22.91226344
37.92889478,-0.5913678408,-24.1479187,-8.145073891,25.49144802
37.93345294,0.5482721925,-24.93800545,-10.57040024,27.09129158
37.93890517,1.108515382,-23.57331085,-10.31900978,25.75678073
37.94391017,-0.5219359994,-19.9939785,-7.35977602,21.31191912
37.94891509,-2.04704237,-15.57428169,-3.581725836,16.11140567
37.95388886,-4.805162907,-10.9055891,2.595314741,12.19660292
37.95889594,-7.228095055,-5.894524574,7.747636795,12.12504243
37.96389901,-8.939949036,-3.227383852,6.816292286,11.69617612
37.9689034,-11.17613316,-1.273715258,4.414907932,12.08386176
37.97390801,-13.02206326,0.1987187415,-1.007958889,13.06252662
37.97846586,-13.39076996,0.8236053586,-4.589684486,14.17943051
37.9838874,-12.40435886,1.254561663,-4.070142746,13.11518607
37.98844494,-10.23521233,0.7733271718,0.1316810995,10.26522996
37.99345017,-7.556100368,-0.1843535304,3.536235809,8.344675111
37.99845417,-4.393360138,-1.728613615,5.039794445,6.905740104
38.0039077,-0.03351882473,-4.491522312,6.402095318,7.820595927
38.00891255,2.444479942,-7.077260017,9.619902611,12.19039039
38.01391755,2.458845139,-9.859322548,14.11142445,17.38920528
38.0188917,1.460463047,-11.49935055,15.84722137,19.63421607
38.0238957,0.5817909837,-12.72039318,15.40189934,19.98412837
38.02890117,0.1915361285,-13.69004536,13.86482239,19.48556717
38.0339064,-0.02154781483,-14.58068848,10.81460953,18.15358697
38.03891224,0.03830722719,-15.37077522,7.785943985,17.23029664
38.04391563,0.8140285611,-16.0459404,3.42131424,16.42681457
38.04889132,2.185906172,-16.55590439,-2.755726099,16.92543005
38.05344794,3.890577793,-17.12093544,-9.145850182,19.79670683
38.05890032,4.484339714,-17.33402061,-13.34288597,22.32958082
38.06390463,3.689464808,-16.74744034,-12.50012684,21.22126479
38.06890978,2.624045134,-15.68680954,-9.763554573,18.66249191
38.07391509,1.582567334,-13.82412052,-6.059724331,15.17666256
38.07888986,0.4357447028,-12.40196514,-3.837905407,12.98953928
38.08389448,-0.5506663918,-11.25274754,-2.430114746,11.52532074
38.08889871,-1.292868972,-10.18972206,-1.398213744,10.36614429
38.09390432,-2.264914751,-8.84896946,-0.2920926213,9.138895854
38.09890832,-2.949656487,-7.95832634,0.3447650373,8.494368396
38.10391348,-3.371036053,-7.125144482,1.139639974,7.964317122
38.10888794,-4.101267338,-6.409277916,0.7038952708,7.641642869
38.11389317,-4.79079771,-5.760449409,0.5770025849,7.514482822
38.11889878,-4.984727859,-5.664681435,0.6081272364,7.57006911
38.12390278,-4.67827034,-5.825092793,0.6823474765,7.502234167
38.1289077,-4.213795185,-6.076483727,0.5985504389,7.418759126
38.13346586,-3.823540211,-6.35421133,0.1125274822,7.416746174
38.13888586,-2.911349297,-6.792350292,-0.2370259613,7.393791891
38.14389163,-2.056619167,-7.139509678,-0.1795651317,7.431993304
38.14889601,-1.213860273,-7.493851185,-0.1268926859,7.592586127
38.15390186,-0.2035071403,-7.991845131,-0.3040636182,8.000216149
38.15890548,0.4932055473,-8.317456245,-0.4548983276,8.344474974
38.16391132,0.9911994934,-8.645462036,-0.55784899,8.719959045
38.16891632,1.304839969,-8.877699852,-0.7015010715,9.000459197
38.17389017,1.314416766,-9.021351814,-0.8714894056,9.158164323
38.17844771,1.249773264,-9.059659004,-1.098938584,9.211244243
38.18389994,1.175553083,-9.107542992,-1.345541358,9.281150033
38.18890609,1.101332784,-9.277531624,-1.632845521,9.484287608
38.19391017,1.07739079,-9.373299599,-1.711854219,9.589054236
38.19846894,0.9672574997,-9.35654068,-1.549048543,9.533099808
38.20344186,0.7086837292,-9.272743225,-1.307234168,9.391211888
38.20889471,0.2346317619,-9.239224434,-1.223437071,9.322827815
38.21389932,-0.07661445439,-9.13866806,-1.22822547,9.221152937
38.21890432,-0.4070142806,-9.011775017,-1.017535686,9.078167681
38.22390917,-0.7086837292,-8.889671326,-0.7302315235,8.947721888
38.22891386,-1.034295082,-8.779537201,-0.517147541,8.855364553
38.23388855,-1.271321058,-8.576030731,-0.2896983922,8.674588491
38.23889294,-1.484405041,-8.360552788,-0.1101332754,8.492021584
38.24389778,-1.63763392,-8.109161377,-0.04548983276,8.272992954
38.24845509,-1.740584612,-7.855375767,-0.06224924326,8.046144306
38.25345971,-1.78368032,-7.675810814,-0.141257897,7.881595075
38.25843478,-1.805228114,-7.563282967,-0.1604115069,7.777392213
38.26388671,-1.726219416,-7.558494568,-0.1843535304,7.755298823
38.2688914,-1.563413739,-7.663839817,-0.1508347094,7.82313584
38.27389571,-1.297657371,-7.869740963,-0.3064578176,7.981895381
38.27845571,-1.060631394,-8.130708694,-0.5051765442,8.215142492
38.28390678,-0.7781155705,-8.473079681,-0.6967126727,8.53720983
38.28846424,-0.4860229492,-8.817844391,-0.8834604025,8.875308462
38.29388524,-0.1987187415,-9.260771751,-1.197100878,9.339937531
38.29844301,0.06224924326,-9.54807663,-1.611297727,9.683280573
38.3034474,0.3088520169,-9.701305389,-2.121262789,9.935314371
38.30890124,0.7062895298,-9.794678688,-2.782062292,10.20658837
38.31345694,0.9720458984,-9.866505623,-3.153163671,10.40361704
38.31887901,1.168370485,-9.871294022,-3.399766445,10.50551984
38.32346701,1.400607944,-9.897629738,-3.526659012,10.6000991
38.32844209,1.510741234,-9.998186111,-3.49553442,10.69882356
38.33344678,1.563413739,-10.18972206,-2.918531895,10.71412743
38.33889878,1.529894829,-10.35252857,-2.111685991,10.67589077
38.34390432,1.537077546,-10.46505547,-1.355118155,10.66378631
38.34890917,1.63763392,-10.52012253,-0.8331822157,10.67937336
38.35391378,1.774103403,-10.56082344,-0.8930372596,10.74597367
38.35889017,2.001552582,-10.60391903,-1.165976286,10.85397679
38.36389286,2.169146776,-10.6398325,-1.529894829,10.9659387
38.36889755,2.576161146,-10.6206789,-1.877054095,11.08867705
38.37345509,2.942473888,-10.61349583,-2.018311977,11.19723312
38.37845963,3.251325846,-10.60391903,-1.848323703,11.24413265
38.38388155,3.409343243,-10.61828423,-1.501164436,11.25278081
38.38891755,3.435679436,-10.723629,-0.8116343617,11.28976804
38.39389163,3.327940464,-10.86488724,-0.3112462163,11.36740237
38.39889624,3.026270866,-11.03248119,0.004788403399,11.44001659
38.40390155,2.56897831,-11.26471901,0.1053448766,11.55442086
38.40890709,1.994369984,-11.40597725,-0.04788403213,11.57912438
38.41346401,1.316810966,-11.52329254,-0.5147533417,11.60970426
38.41843901,0.4979939461,-11.583148,-1.304839969,11.66704431
38.42344363,-0.3327940404,-11.65976238,-2.15478158,11.86186724
38.42844763,-1.158793569,-11.83932781,-2.873042107,12.23792697
38.43390055,-2.020706177,-12.21042824,-3.359065056,12.82423991
38.4389074,-2.580949545,-12.47618484,-3.552995205,13.22649855
38.44391009,-2.918531895,-12.81137371,-3.701435804,13.6509982
38.44891417,-3.191470861,-12.90953541,-3.624821424,13.78335667
38.45388978,-3.12203908,-13.03403378,-3.464409828,13.84324023
38.45889409,-2.640804529,-13.27105999,-3.385401249,13.9483269
38.46345171,-1.941697598,-13.61821938,-3.167528868,14.11592461
38.46890401,-0.9074024558,-14.27423096,-2.7509377,14.56518818
38.47390825,0.04309562966,-14.84644508,-2.149993181,15.00137525
38.47846609,0.9481038451,-15.36598682,-1.479616642,15.46614746
38.48388763,1.790862918,-15.92144108,-0.9576807022,16.05044013
38.48889255,2.219424963,-16.2231102,-0.5793967843,16.38446985
38.49345101,2.202665567,-16.22789955,-0.4979939461,16.3842747
38.49890248,1.786074519,-15.87355709,-0.7422025204,15.99095812
38.50346001,0.9792284966,-15.33965015,-1.024718285,15.40499279
38.50888148,-0.349553436,-14.74828243,-1.520318031,14.83055593
38.51391724,-1.446097851,-14.4849205,-1.836352706,14.67229744
38.51889324,-2.506729126,-14.42745972,-1.771709204,14.7503979
38.52389694,-4.060565948,-13.99889755,-0.8978256583,14.60354133
38.52890155,-5.032611847,-13.70441055,-0.2322375625,14.60109533
38.53390555,-5.837063789,-13.5368166,0.6368576288,14.75541612
38.53891078,-6.440402508,-13.44344234,1.731007814,15.00670899
38.54391686,-7.307103634,-13.39795303,3.08133769,15.56899325
38.54889009,-8.113949776,-13.45780754,3.715801001,16.14793924
38.5538954,-8.844181061,-13.54399872,3.684676409,16.59024654
38.55890025,-9.31823349,-13.75229454,3.074155092,16.89394892
38.56390548,-9.56004715,-14.01326275,1.872265697,17.06667552
38.56891009,-9.528923035,-14.23831749,0.8643068075,17.15450627
38.57391509,-9.021351814,-14.60463047,-0.1292868853,17.16673338
38.57844055,-8.051700592,-14.95897198,-0.8283938169,17.00843795
38.58344648,-7.084442616,-15.07628822,-1.414973259,16.71783309
38.58845132,-6.177040577,-14.74110031,-1.726219416,16.0759355
38.59345663,-5.492298603,-14.38675785,-2.056619167,15.53621021
38.59887909,-4.220977783,-14.11621284,-2.319981337,14.91530864
38.60391471,-3.356670856,-13.67568016,-2.494758129,14.30088407
38.60888794,-3.244143248,-12.96699619,-2.928108692,13.68361342
38.61389294,-1.953668594,-12.69405746,-2.303221941,13.04840018
38.61889748,-0.2394201756,-12.65575027,-1.745373011,12.77778009
38.6239024,0.8116343617,-12.53843403,0.007182605099,12.56467786
38.62890801,2.813186884,-12.8688345,2.504334927,13.40867686
38.63391201,3.770867586,-13.20881081,2.130839586,13.90081302
38.63891724,3.586514235,-13.15853214,-0.3591302633,13.64327772
38.6438914,3.526659012,-13.06276417,-1.233013868,13.58651739
38.64889655,3.608062029,-12.96220779,-1.031900883,13.49450858
38.65345324,3.646369219,-12.80419064,-0.962469101,13.34802057
38.65890671,3.442862034,-12.31816769,-0.3734954596,12.79570447
38.66346363,3.01429987,-11.85369301,-0.2130839527,12.23280207
38.6688864,1.936909199,-10.9103775,-0.1221042871,11.08164536
38.67388948,1.091755986,-10.18493366,0.2346317619,10.24596784
38.67889717,0.03830722719,-9.18894577,0.8499416113,9.228249702
38.68390001,-0.6488286853,-8.319850922,1.371877551,8.457123981
38.68890517,-1.261744261,-7.491456985,1.697489023,7.784304422
38.69390978,-1.831564307,-6.718130112,1.78128612,7.187550365
38.69846771,-2.286462545,-6.028599739,1.673547029,6.661282568
38.70388924,-2.774879694,-5.228936672,1.575384736,6.125648791
38.70889386,-2.947262287,-4.568136692,1.345541358,5.600420464
38.71389871,-3.066972494,-4.024652958,1.194706678,5.199180297
38.71890463,-3.066972494,-3.505111217,0.873883605,4.738754845
38.72390763,-3.033453465,-3.263296843,0.6703764796,4.505591063
38.72891255,-2.928108692,-3.117250681,0.356736064,4.29165853
38.73388732,-2.777273893,-3.105279684,0.04788403213,4.166329929
38.73889232,-2.391807556,-3.260902643,-0.4596867263,4.070078786
38.74345102,-2.190694571,-3.373430252,-0.6631938815,4.076640834
38.74845502,-2.111685991,-3.450044632,-0.6799532771,4.101751107
38.75390794,-2.078166962,-3.584120035,-0.6895300746,4.200017389
38.75846586,-1.956062794,-3.778050184,-0.6775590777,4.308007794
38.76388678,-2.013523579,-3.993528366,-0.7015010715,4.527101696
38.76889102,-2.106897593,-4.168305397,-0.6200982332,4.711508163
38.77389624,-2.145204782,-4.30956316,-0.5099649429,4.840898928
38.77845417,-2.212242365,-4.400542736,-0.3112462163,4.935146083
38.7834594,-2.272097349,-4.448426723,-0.05506663769,4.99539378
38.78888086,-2.303221941,-4.398148537,0.1987187415,4.968705163
38.79391602,-2.310404539,-4.362235546,0.3663128614,4.94987406
38.7988904,-2.324769735,-4.323928356,0.5985504389,4.945621637
38.80389417,-2.360682964,-4.288015366,0.7829039693,4.957099803
38.80890063,-2.406172752,-4.237737179,0.8475474119,4.946354246
38.81390486,-2.398990154,-4.223371983,0.9097966552,4.941634812
38.81891048,-2.427720547,-4.240131378,0.8690952063,4.962647241
38.82391386,-2.41335535,-4.290409565,0.7541735172,4.980027708
38.82888917,-2.300827742,-4.398148537,0.5434837937,4.993284839
38.8334464,-2.104503393,-4.563348293,0.2896983922,5.033587919
38.83845348,-1.922544003,-4.709394932,-0.0191536136,5.086741877
38.84390371,-1.675941229,-4.886565685,-0.4333505034,5.184119584
38.84890886,-1.472434044,-4.975151062,-0.7637503147,5.244378385
38.85391325,-1.343147159,-5.080495834,-1.244984865,5.400506414
38.85888825,-1.137245774,-5.051765442,-1.802833915,5.483053178
38.86344548,-0.9385270476,-5.039794445,-2.281674147,5.611274185
38.86889817,-0.8690952063,-4.994304657,-2.863465309,5.822185076
38.87390209,-1.022324085,-4.90811348,-3.806780815,6.294942783
38.87846032,-1.156399369,-4.8314991,-4.42209053,6.650979455
38.88343378,-1.26653266,-4.714183331,-5.42765522,7.299799356
38.88888648,-1.407790542,-4.718971729,-6.263231754,7.967348392
38.89389171,-1.59932673,-4.802768707,-7.187393665,8.791078486
38.89889663,-1.766920805,-4.929661274,-7.668628216,9.28608788
38.90390094,-2.00873518,-5.324704647,-7.771578789,9.632493627
38.90890525,-2.111685991,-5.803544998,-8.157045364,10.23121407
38.91391132,-2.126051188,-6.701370716,-8.585607529,11.09689685
38.91891725,-1.831564307,-7.682993412,-8.834604263,11.8504535
38.92389071,-1.350329757,-8.868123055,-9.064447403,12.75269398
38.92889502,-0.7517793179,-10.24000072,-9.52173996,14.00308248
38.93390032,0.04309562966,-12.22958183,-10.59194851,16.17881029
38.93845717,0.5243301988,-13.97974396,-11.52089882,18.12289361
38.94387902,0.9289502501,-15.80891418,-12.50252151,20.17666376
38.94891509,1.582567334,-17.66202545,-13.35246277,22.19774593
38.95388863,2.343923569,-20.05383301,-13.90312958,24.51422461
38.95889417,2.597708941,-20.9564476,-14.16649151,25.42853259
38.96345163,2.954444885,-20.7601223,-13.79778481,25.10159931
38.96890302,3.138798475,-19.96285439,-12.6389904,23.83509365
38.97390863,2.41335535,-17.88947487,-11.6860981,21.50401088
38.97891317,1.142034173,-15.43541813,-11.74595356,19.42997169
38.98388825,-0.1197100878,-12.65575027,-12.19127464,17.57297707
38.98889317,-0.9002198577,-9.770736694,-12.97417927,16.2667458
38.99389786,-0.7996633649,-6.524199486,-13.28781986,14.82466853
38.99890455,-0.538695395,-4.50109911,-12.79461384,13.57395407
39.00346002,-0.5458779931,-3.148375273,-11.37006378,11.8105292
39.00888186,-1.237802267,-2.703053713,-8.623914719,9.12198218
39.01391717,-2.707842112,-3.500322819,-6.560112476,7.91326383
39.01889194,-4.951209068,-4.865017891,-4.853046894,8.469647836
39.02389571,-6.27999115,-6.591237068,-1.960851192,9.312767168
39.02890217,-7.180211067,-8.911218643,2.133233786,11.64113118
39.03345878,-8.295908928,-10.16578007,4.405331135,13.84095848
39.03843263,-10.85052204,-12.14578533,6.617573261,17.57971006
39.04388609,-11.70525169,-13.86003399,6.883329868,19.4034453
39.04889102,-12.25831223,-16.56787491,5.568912983,21.34885218
39.05389563,-12.58152962,-18.98362541,3.373430252,23.0228789
39.05890063,-11.5879364,-21.50950813,-0.3687070608,24.43512134
39.06390455,-8.755595207,-23.99468994,-4.369418144,25.91326702
39.06891048,-3.359065056,-26.3960743,-9.306262016,28.18940526
39.07391594,0.4285621047,-25.23249245,-12.62223148,28.21671611
39.07889132,3.38061285,-21.81596565,-12.80419064,25.52081892
39.08389378,4.479551315,-17.80088997,-7.989450932,20.01922551
39.08889909,3.296815634,-11.92073059,1.161187768,12.42260714
39.09390402,1.769315004,-6.981492043,7.038952827,10.07067841
39.09890894,-0.1508347094,-2.877830505,8.798690796,9.258597045
39.10391355,-2.291250944,-0.3016694188,7.431602001,7.782643743
39.10888825,-3.909731388,1.276109457,5.118803024,6.566323117
39.11389348,-4.656722069,1.628057122,3.787626982,6.219465296
39.11889717,-5.068524837,1.352723956,2.942473888,6.014811611
39.12390302,-4.891354084,0.7038952708,3.023876667,5.793500101
39.12890679,-4.326322556,-0.4189853072,4.158728123,6.01561594
39.13346525,-4.036623955,-1.735796213,4.824316502,6.525438771
39.13888648,-3.639186621,-3.569754839,5.319916248,7.368062008
39.14389225,-3.454833031,-5.880159378,6.098031521,9.148668428
39.14889532,-3.823540211,-8.765172005,7.807491779,12.34522693
39.15390125,-3.536235809,-10.68292809,8.904036522,14.34962657
39.15890802,-2.772485495,-12.23197651,8.769960403,15.30425204
39.16391132,-1.865083098,-13.54639339,7.642292023,15.66486311
39.16891594,-0.5099649429,-15.19360352,5.140350819,16.04770571
39.17389071,0.8762778044,-16.69476891,2.398990154,16.88900013
39.17889502,2.449268341,-17.97327232,-0.5602431893,18.14803862
39.18390055,4.319139957,-18.65083122,-3.450044632,19.45279628
39.18890578,4.958391666,-18.51914978,-6.038176537,20.09985404
39.19390955,4.450820923,-17.49682617,-6.519411087,19.19508932
39.19891532,3.526659012,-15.86398029,-6.066906929,17.3467736
39.20388855,2.430114746,-14.04438686,-4.805162907,15.04127158
39.20844648,1.766920805,-12.36365795,-3.916913986,13.08908944
39.21345132,0.6272808313,-10.59673691,-2.494758129,10.90450056
39.21845748,0.0143652102,-9.504981041,-1.912967205,9.695582214
39.2234314,-0.6464344859,-8.671798706,-1.666364431,8.854080458
39.22888278,-1.417367458,-7.833827972,-1.443703651,8.090863455
39.23388771,-1.89860189,-7.328651428,-1.015141487,7.63834623
39.23889509,-2.552218914,-6.926425457,-0.6679822803,7.411841291
39.24389817,-3.332728863,-6.497863293,-0.323217243,7.309841204
39.24890271,-4.115632534,-6.234501362,0.1005564705,7.471114374
39.25390709,-4.493916512,-6.172252178,0.5267243981,7.653066128
39.25891225,-4.340687752,-6.193799973,0.5674257874,7.584635804
39.26346955,-4.074931145,-6.323086739,-0.04788403213,7.522551603
39.26844425,-3.574543238,-6.538564682,-0.3327940404,7.459285444
39.27344948,-2.731784105,-6.955155849,-0.3327940404,7.479812107
39.27890178,-2.090138197,-7.347805023,-0.3758896589,7.648542958
39.28390617,-1.316810966,-7.848193169,-0.4165911078,7.968793841
39.28891194,-0.7541735172,-8.233659744,-0.4189853072,8.278736568
39.29346917,-0.3447650373,-8.528146744,-0.4884171486,8.549076039
39.29844302,-0.2226607651,-8.690952301,-0.8164227605,8.732054503
39.30389532,0.1197100878,-9.018958092,-0.9648633003,9.071212529
39.30890025,0.2801215947,-9.277531624,-1.089361787,9.345467898
39.31390517,0.2106897533,-9.43315506,-1.364694953,9.533687475
39.31891255,0.09337386489,-9.63666153,-1.606509328,9.770099095
39.32391571,0.03351882473,-9.933543205,-1.798045516,10.09501718
39.32888948,-0.08858546615,-10.12029076,-1.807622313,10.28083804
39.33389355,-0.181959331,-10.10831928,-1.63763392,10.24173192
39.33889963,-0.2753331959,-10.02212811,-1.654393315,10.16148992
39.34345663,-0.4812345505,-9.861717224,-1.8579005,10.04673318
39.34843163,-0.7637503147,-9.543288231,-2.085349798,9.79828294
39.35343602,-0.9959878922,-9.289502144,-2.319981337,9.626481983
39.35844032,-1.108515382,-8.904036522,-2.379836559,9.283011084
39.36389286,-1.211466074,-8.42759037,-2.080561161,8.764739827
39.36889756,-1.201889277,-8.113949776,-1.707065821,8.378233257
39.37390178,-1.204283476,-7.900865555,-1.367089152,8.108200044
39.37890732,-1.156399369,-7.740454197,-1.051054597,7.896619938
39.38391286,-1.089361787,-7.637503624,-0.4884171486,7.730247216
39.38891686,-0.9672574997,-7.644686222,-0.03351882473,7.705708145
39.39389202,-0.7493851185,-7.618350029,0.4165911078,7.666445289
39.39889848,-0.605733037,-7.611167431,0.758961916,7.672861615
39.40390248,-0.4333505034,-7.711723804,0.9528923035,7.782446944
39.40890678,-0.349553436,-7.864952564,1.067813993,7.944802903
39.41346432,-0.2849099934,-8.049305916,1.07739079,8.126085795
39.41888517,-0.2442085743,-8.315062523,1.012747288,8.380069192
39.42344279,-0.2561795712,-8.602366447,0.9313444495,8.656427609
39.42844825,-0.3256114423,-9.006986618,0.7254431248,9.042018496
39.43389971,-0.4285621047,-9.284713745,0.5770025849,9.312491975
39.43890525,-0.5363011956,-9.538499832,0.4333505034,9.563388033
39.44390956,-0.6464344859,-9.674968719,0.2466027737,9.699675778
