Time (s),Acceleration x (m/s^2),Acceleration y (m/s^2),Acceleration z (m/s^2),Absolute acceleration (m/s^2)
10.00332,0.4333505034,-11.43470764,-2.942473888,11.81518024
10.00832554,0.2801215947,-10.28549004,-1.364694953,10.37941066
10.01333016,0.1197100878,-9.397241592,-0.5363011956,9.413293739
10.01830431,-0.6799532771,-8.61912632,-0.605733037,8.667097985
10.02330677,-1.795651317,-7.680599213,-0.538695395,7.906083774
10.02831285,-2.681505919,-7.043741226,-0.4213795066,7.548663798
10.03331746,-3.45722723,-6.588842869,-0.6320692301,7.467582071
10.03832308,-4.374206543,-6.114790916,-0.6967126727,7.550480738
10.04332769,-5.23851347,-5.57848978,-0.7374141216,7.688000468
10.04830208,-5.343858242,-5.46596241,-0.7230489254,7.678304873
10.05330739,-5.157110691,-5.506663799,-0.7805097699,7.584743396
10.05831192,-4.630385876,-5.635950565,-0.9097966552,7.350655895
10.06331662,-3.739742994,-5.899312973,-0.8092401624,7.0315319
10.06832092,-2.813186884,-6.339846134,-0.5554547906,6.95817501
10.07332769,-1.912967205,-6.727706909,-0.3112462163,7.001311162
10.07830392,-1.403002143,-7.026981831,-0.2873041928,7.171431681
10.08330516,-1.024718285,-7.390900612,-0.3950432837,7.472049158
10.08786277,-0.5602431893,-7.797914982,-0.5482721925,7.837215889
10.09331631,-0.0718260482,-8.415618896,-0.85473001,8.459217681
10.09832062,0.3184288144,-8.832210541,-0.9672574997,8.8907214
10.10332577,0.5913678408,-9.181763649,-0.9792284966,9.252750298
10.10832985,0.8092401624,-9.550470352,-1.084573388,9.645861964
10.11330585,0.9145850539,-9.746794701,-1.307234168,9.876504135
10.11830985,0.9313444495,-9.92636013,-1.534683347,10.08738226
10.12331377,0.8906430602,-9.969455719,-1.685518026,10.15008687
10.12832,0.7422025204,-9.852140427,-1.798045516,10.04233555
10.13332462,0.5267243981,-9.756371498,-1.82198751,9.939007088
10.13832916,0.2178723514,-9.662998199,-1.723825216,9.817972089
10.14330308,-0.07422025502,-9.449913979,-1.572990537,9.580223488
10.14830731,-0.390254885,-9.169792175,-1.314416766,9.271735482
10.15331346,-0.6847416759,-8.870517731,-1.163581967,8.972674014
10.15832031,-0.8283938169,-8.595184326,-1.034295082,8.696734803
10.16332239,-0.9265560508,-8.408436775,-1.012747288,8.519740148
10.16832831,-0.940921247,-8.195352554,-0.9528923035,8.304043595
10.17330269,-0.8643068075,-8.070854187,-0.739808321,8.150645982
10.17830677,-0.586579442,-7.910442352,-0.490811348,7.947330963
10.18331162,-0.3423708379,-7.905653954,-0.3663128614,7.921538193
10.18831662,-0.09576806426,-8.027758598,-0.3782838583,8.037236982
10.19332308,0.2011129409,-8.176198959,-0.4668693244,8.191986499
10.19832646,0.5003881454,-8.437167168,-0.8667010069,8.496313833
10.20333192,0.6895300746,-8.614337921,-1.175553083,8.721478922
10.20830608,0.7996633649,-8.760383606,-1.529894829,8.928849904
10.21331108,0.9241618514,-8.827422142,-1.944091797,9.0860855
10.21831569,0.9600749016,-8.916007042,-2.643198729,9.348979886
10.22332054,1.046266198,-8.949525833,-3.265691042,9.584019177
10.22832485,1.074996591,-9.040505409,-3.450044632,9.735972663
10.23333069,1.127668977,-9.17697525,-3.454833031,9.870379088
10.23830585,1.177947283,-9.392453194,-3.349488258,10.04115573
10.24331008,1.204283476,-9.722852707,-2.913743496,10.22125553
10.24831408,1.130063176,-10.00297451,-2.439691544,10.35802282
10.25331962,0.9576807022,-10.19690514,-1.996764183,10.43461038
10.25832308,0.6967126727,-10.25197124,-1.52510643,10.38817946
10.26332885,0.5075707436,-10.3166151,-1.156399369,10.39362472
10.26830208,0.3687070608,-10.39562416,-1.127668977,10.46310584
10.27330916,0.457292527,-10.51772785,-1.309628367,10.60880964
10.27831316,0.6416460276,-10.59194851,-1.544260144,10.72314423
10.28331808,0.8619126081,-10.58237171,-1.651999116,10.74516568
10.28832177,1.194706678,-10.59673691,-1.534683347,10.77373705
10.29332892,1.575384736,-10.61828423,-1.304839969,10.81352876
10.29830154,2.032677174,-10.65419769,-1.084573388,10.90045891
10.30330677,2.334346771,-10.78827286,-0.921767652,11.07635598
10.30831169,2.494758129,-11.01093388,-0.8690952063,11.32341863
10.31331662,2.509123325,-11.46583176,-1.070208192,11.78585352
10.318323,2.351106167,-11.83693314,-1.403002143,12.1494486
10.32332616,2.102109194,-12.22958183,-1.843535304,12.54512484
10.328331,1.754949808,-12.64617348,-2.291250944,12.97132928
10.33330639,1.256955862,-13.13459015,-2.980781078,13.52710066
10.33831016,0.7517793179,-13.5080862,-3.701435804,14.02619664
10.34331562,0.2633621991,-13.82412052,-4.328716755,14.48839041
10.34832062,-0.2801215947,-14.04438686,-4.726154327,14.82092457
10.35332646,-1.000776291,-14.13776112,-4.90811348,14.99891398
10.35833069,-1.565807939,-13.94143677,-4.718971729,14.80149005
10.36330454,-1.977610588,-13.6301899,-4.503493309,14.49049593
10.36786269,-2.092532396,-13.46259594,-4.522646904,14.35529576
10.37331477,-2.056619167,-13.40034676,-4.65193367,14.33315954
10.37787192,-1.89860189,-13.45541382,-4.929661274,14.45525546
10.38284669,-1.532289028,-13.72356415,-5.585672379,14.89576646
10.38785069,-0.8595184088,-13.92228317,-5.588066578,15.02648424
10.39285631,-0.4668693244,-14.16888523,-4.862623692,14.98734082
10.39831046,-0.3447650373,-14.26465416,-3.15795207,14.61409876
10.40331377,-0.6392518282,-14.03959846,-1.580173135,14.1426983
10.40831754,-1.046266198,-13.72835255,-0.2849099934,13.77111144
10.41332392,-1.800439715,-13.47935581,0.4525041282,13.60659312
10.41832677,-2.485181332,-13.58709431,0.7302315235,13.83179294
10.42330123,-2.640804529,-14.35802746,1.26413846,14.65349266
10.42830669,-2.765302896,-15.17444992,2.336740971,15.60035861
10.43331254,-2.97599268,-15.95974827,3.799597979,16.67354318
10.43831692,-3.220201254,-16.47210693,4.927267075,17.49222581
10.44332123,-3.751713991,-16.61815453,5.600037575,17.93317703
10.44832616,-4.65193367,-16.57505798,5.418078423,18.04795301
10.45288546,-5.863399982,-16.45055962,4.750096321,18.09872333
10.45830585,-7.362170219,-16.39788818,3.801992416,18.372464
10.46331008,-8.813055992,-16.62773132,2.456450939,18.97855516
10.46831569,-10.27351952,-17.32923126,0.1771709323,20.14643514
10.47332062,-10.43871975,-17.8535614,-1.589749932,20.74231977
10.47832616,-9.825803757,-18.15283775,-2.904166698,20.84481044
10.48333077,-8.717288017,-18.12171173,-3.584120035,20.42629342
10.48830369,-7.163451672,-17.66442108,-3.928884983,19.46234696
10.49331008,-6.009446144,-17.19276237,-4.175487995,18.68526749
10.49831439,-4.924872875,-16.56548119,-4.604049683,17.88482075
10.50331908,-4.333505154,-15.5359745,-4.879383087,16.85093914
10.50832362,-2.908955097,-14.78180122,-4.113238335,15.61673451
10.51332985,-1.280897856,-14.03241634,-3.193865061,14.44818957
10.51830393,-0.5841852427,-13.27824306,-2.30801034,13.48999344
10.523308,0.4955997467,-12.75630665,-0.4979939461,12.77563996
10.52831346,1.812410712,-12.65575027,1.501164436,12.87269755
10.53331992,3.229778051,-12.53843403,1.477222443,13.03172975
10.53787508,3.643975019,-12.2607069,0.6009446383,12.80486713
10.54329716,4.098873138,-11.99973869,0.0359130241,12.68052757
10.54830246,4.390965939,-11.93509579,0.5506663918,12.72911335
10.553307,4.302380562,-11.72440529,1.388636947,12.56584539
10.55831408,3.651157618,-11.32217979,1.759738207,12.02578005
10.56331662,2.56897831,-10.77630138,1.582567334,11.19074798
10.56832154,1.446097851,-10.05804157,1.438915253,10.26283959
10.57288,0.6512228847,-9.15063858,1.434126854,9.285203148
10.57830023,-0.14844051,-7.970297337,1.604115129,8.131473394
10.58330677,-0.4333505034,-7.259219646,1.884236693,7.51228397
10.58831016,-0.6105214357,-6.670246124,2.30801034,7.084619362
10.59331654,-1.122880578,-6.162675381,2.537853718,6.758707727
10.59832085,-1.719036818,-5.367800236,2.506729126,6.168635008
10.603324,-2.391807556,-4.553771496,2.351106167,5.655552885
10.60832954,-2.612074137,-3.919308186,2.226607561,5.20976863
10.61330485,-2.71502471,-3.213018656,2.319981337,4.803869426
10.61786177,-2.779668093,-2.722207308,2.126051188,4.433628422
10.62331416,-3.040636063,-2.248155355,1.776497602,4.177991611
10.62831939,-3.229778051,-2.006340981,1.515529633,4.093128444
10.63287693,-3.313575268,-1.886630893,1.177947283,3.99082911
10.63829908,-3.248931646,-1.874659896,0.940921247,3.867200455
10.64330362,-3.181894064,-1.893813491,0.8762778044,3.805107379
10.648308,-3.136404276,-1.872265697,0.8092401624,3.741293929
10.65331408,-3.189076662,-1.886630893,0.8140285611,3.79370908
10.65831808,-3.337517262,-1.948880196,0.8403648138,3.955169846
10.66332239,-3.356670856,-2.061407566,0.8810662031,4.036448692
10.66832708,-3.404554844,-2.19308877,0.9911994934,4.169305515
10.67330331,-3.471592426,-2.30561614,1.15161097,4.323659051
10.678307,-3.572149038,-2.442085743,1.256955862,4.505992628
10.6833117,-3.60327363,-2.578555346,1.424550056,4.654231557
10.68786954,-3.581725836,-2.693476915,1.556231141,4.743989167
10.69329262,-3.548206806,-2.796427488,1.613691926,4.797267959
10.6983267,-3.529053211,-2.889801502,1.630451322,4.843917919
10.7033307,-3.440467834,-3.016694069,1.575384736,4.839328372
10.70830585,-3.102885485,-3.052607059,1.395819545,4.571063377
10.71286339,-2.908955097,-3.102885485,1.271321058,4.439163809
10.71831785,-2.669534922,-3.215412855,1.125274777,4.3279949
10.72332123,-2.504334927,-3.34469986,0.9864110947,4.293217607
10.72787785,-2.41574955,-3.423708439,0.7350199223,4.254160275
10.73330085,-2.355894566,-3.509899616,0.4285621047,4.248917509
10.73785662,-2.315192938,-3.64158082,0.2226607651,4.320972926
10.74286216,-2.291250944,-3.881000996,-0.4596867263,4.530266163
10.74786677,-2.288856745,-4.134786129,-1.261744261,4.891556001
10.7533197,-2.26970315,-4.333505154,-2.161964178,5.348355674
10.75832546,-2.183511972,-4.589684486,-3.349488258,6.087035388
10.76332954,-2.102109194,-4.762067318,-4.465186119,6.858136429
10.76830331,-1.869871497,-4.987122059,-5.647922039,7.763171337
10.77330885,-1.771709204,-5.233725071,-6.957550049,8.884724774
10.77831254,-1.929726601,-5.657498837,-8.729259491,10.57974995
10.78331754,-2.042253971,-6.177040577,-10.12029076,12.03108127
10.78832308,-2.233790159,-6.813898087,-11.28626728,13.3715689
10.79332885,-2.576161146,-7.61356163,-11.95424938,14.40510344
10.7983037,-2.940079689,-8.638279915,-11.83214474,14.94200782
10.80330731,-3.301604033,-10.05804157,-11.22880554,15.43213736
10.80831162,-3.251325846,-11.27908421,-10.85770512,15.98995374
10.81331693,-2.624045134,-12.60547161,-11.15458584,17.03550154
10.81832277,-2.001552582,-14.30535507,-11.93509579,18.73755341
10.8233267,-1.934514999,-16.90306473,-12.98854446,21.40463111
10.82833162,-1.855506301,-19.26853561,-14.84405041,24.39395829
10.83330639,-1.422155857,-21.72738075,-16.84081459,27.5266169
10.83831008,-0.3926490843,-23.46796417,-17.24064636,29.12283301
10.84331531,0.1556231081,-23.55415726,-16.32366753,28.65806456
10.8483197,0.9648633003,-21.83511925,-13.20881081,25.53773828
10.85332646,0.9050082564,-19.16079712,-10.63264942,21.93190416
10.85833016,0.1268926859,-15.77300072,-9.332598686,18.32760354
10.86330523,-0.3423708379,-12.39478207,-9.378087997,15.54658724
10.86830946,0.04070143029,-8.413225174,-10.87685871,13.7510025
10.87331416,0.4285621047,-5.750872612,-11.88481712,13.21003707
10.87832,0.4357447028,-3.869029999,-11.63103199,12.26540549
10.883324,0.07422025502,-2.63601613,-10.38604736,10.71559935
10.88832854,-0.5219359994,-2.348711967,-8.973467827,9.290424637
10.89330393,-1.960851192,-3.229778051,-7.568071365,8.458847903
10.89830739,-3.167528868,-4.608838081,-6.945579052,8.917157392
10.90331354,-4.479551315,-6.143521786,-6.186617374,9.802217834
10.90831808,-5.621585369,-7.694964409,-4.843470097,10.68989719
10.9133237,-6.562506676,-9.56004715,-2.691082716,11.90390363
10.91832823,-6.873753071,-10.95826149,0.01197100803,12.93569169
10.92330239,-7.333439827,-12.46900272,2.748543501,14.72446468
10.92830731,-7.627926826,-14.09705925,4.153939724,16.55800599
10.93331231,-7.354987621,-15.91425896,3.90254879,17.96077304
10.93831693,-6.327875137,-18.2845192,0.9074024558,19.36979673
10.94332116,-4.654327869,-20.06580353,-1.788468719,20.67602137
10.94832608,-2.621650934,-21.34430885,-2.851494312,21.6929388
10.95333193,-0.9169792533,-21.65794945,-3.49553442,21.95737658
10.958308,0.4812345505,-20.36507988,-4.733336926,20.91345365
10.96331077,0.7829039693,-18.0786171,-5.386953831,18.88037622
10.96831446,0.2753331959,-14.94939518,-3.15795207,15.28178281
10.9733197,-0.9289502501,-11.47780323,1.889025092,11.66924725
10.97832554,-3.378218651,-8.085219383,5.609614372,10.40436962
10.98333008,-4.924872875,-5.104437828,4.319139957,8.304494467
10.98830423,-6.294356346,-3.541024208,1.529894829,7.382299943
10.99331008,-7.20894146,-2.418143749,-1.031900883,7.673400523
10.99786616,-7.065289021,-1.793257117,-1.692700624,7.483269034
11.00331993,-5.544970989,-1.754949808,0.6200982332,5.84902333
11.00832393,-3.699041605,-2.303221941,3.473986626,5.572820038
11.0128827,-1.807622313,-3.150769472,5.518634796,6.606828037
11.01830331,-0.5985504389,-4.177882195,7.06768322,8.231956533
11.023308,-0.05267243832,-5.384559631,9.495404243,10.91599554
11.02831262,-0.3184288144,-6.852205276,12.19845772,13.99487352
11.03287139,-0.4022258818,-8.142680168,13.9198885,16.1315939
11.03829346,-0.7661445141,-9.33020401,13.65173817,16.55323652
11.04332854,-1.335964561,-10.40998936,12.24394703,16.12659042
11.04830246,-1.453280449,-11.70046329,9.909601212,15.40172268
11.05286123,-1.403002143,-12.33013916,8.231265068,14.89142274
11.05831223,-0.825999558,-13.22078133,4.805162907,14.09116477
11.06286923,0.4070142806,-13.99171448,1.010353088,14.03404959
11.06829108,2.628833532,-14.82010841,-5.092466831,15.88960659
11.07287939,3.576937437,-15.24148846,-8.243236542,17.69317384
11.07830123,3.280056238,-15.03798103,-9.813833237,18.25406709
11.08330677,2.173935175,-14.26465416,-8.544905663,16.76966801
11.08831016,0.9792284966,-13.25669479,-6.452373505,14.77606068
11.09331631,-0.3974374831,-12.06677628,-3.962403774,12.70691504
11.09832023,-1.139639974,-11.24077702,-2.26970315,11.52412251
11.10332493,-1.52510643,-10.54645824,-0.8786720037,10.69232414
11.10833008,-1.903390408,-9.847352028,-0.3184288144,10.03467159
11.11330577,-2.406172752,-8.935160637,-0.2178723514,9.256037558
11.11831046,-2.918531895,-8.056488991,-0.1005564705,8.569419752
11.12331439,-4.146757126,-7.340622425,-0.6344634295,8.454754644
11.12831962,-5.176264286,-6.742072105,-0.8762778044,8.545005034
11.13332585,-5.604825974,-6.24168396,-0.7996633649,8.42687097
11.13832977,-5.284003258,-5.91128397,-0.4094084799,7.939243283
11.143303,-4.898536682,-5.71974802,-0.2777273953,7.535801984
11.14830893,-4.493916512,-5.590460777,-0.3615244627,7.181868646
11.15331408,-4.084507942,-5.571307182,-0.4740519226,6.924405684
11.15831785,-3.45722723,-5.702988625,-0.5674257874,6.693166022
11.16332216,-2.79163909,-5.916072369,-0.4788403511,6.559150033
11.16787962,-2.056619167,-6.184223175,-0.3136404157,6.524773482
11.17285508,-1.393425345,-6.58405447,-0.3256114423,6.737761518
11.17830739,-0.7613561153,-7.046135426,-0.3711012602,7.096858722
11.18331162,-0.0359130241,-7.625532627,-0.5698199868,7.646877298
11.18831654,0.5099649429,-8.113949776,-0.8882488012,8.178339143
11.19332247,0.8571242094,-8.549694061,-1.22583127,8.679550262
11.19832793,1.082179189,-9.02374649,-1.426944256,9.199743607
11.20330147,1.388636947,-9.47146225,-1.458068848,9.683123178
11.20830516,1.56101954,-9.653421402,-1.352723956,9.871939468
11.21331131,1.649604917,-9.787496567,-1.22822547,10.00124108
11.21831593,1.59932673,-9.830592155,-1.106121182,10.02107241
11.22332024,1.498770237,-9.854534149,-1.029506683,10.02088018
11.22832554,1.132457376,-9.806650162,-0.8475474119,9.908137248
11.23333077,0.6751648784,-9.641449928,-0.6895300746,9.689626208
11.23830493,0.2035071403,-9.399636269,-0.5770025849,9.419528073
11.24330954,-0.282515794,-9.169792175,-0.4836287498,9.186881978
11.24831385,-0.8212111592,-8.872911453,-0.6799532771,8.936737765
11.252872,-1.134851575,-8.599972725,-0.8834604025,8.719399133
11.25784585,-1.477222443,-8.264783859,-1.134851575,8.472114641
11.2628507,-1.580173135,-8.068459511,-1.132457376,8.299364176
11.26785562,-1.587355733,-7.999027729,-1.209071875,8.244149297
11.27330954,-1.477222443,-8.006210327,-1.45088625,8.269622776
11.27831531,-1.436521053,-7.99663353,-1.479616642,8.258268944
11.28287077,-1.41018486,-8.063671112,-1.462857246,8.315729942
11.288292,-1.352723956,-8.137891769,-1.331176162,8.356265585
11.2933277,-1.103726983,-8.35097599,-1.295263171,8.522600538
11.29830239,-0.8427590132,-8.638279915,-1.295263171,8.775410493
11.30330739,-0.5674257874,-9.081207275,-1.443703651,9.212739974
11.30831231,-0.2849099934,-9.514557838,-1.601720929,9.65264184
11.313319,0.0143652102,-9.981427193,-1.745373011,10.13288814
11.31832154,0.1699883193,-10.38125896,-1.824381709,10.54171724
11.32332677,0.2537853718,-10.56561184,-1.850717902,10.72947889
11.328331,0.2274491638,-10.67813969,-1.996764183,10.86560939
11.33330493,0.0718260482,-10.6158905,-2.061407566,10.81442053
11.33831077,-0.2777273953,-10.41238308,-2.197877169,10.64544588
11.34331531,-0.5793967843,-10.28788471,-2.334346771,10.56529447
11.34832024,-0.8667010069,-10.17296314,-2.461239338,10.50228779
11.35332608,-1.144428372,-10.07719517,-2.540247917,10.45525888
11.35833254,-1.426944256,-9.979032516,-2.705447912,10.43727495
11.36330608,-1.537077546,-10.06282997,-3.038241863,10.62327953
11.36830947,-1.513135433,-10.22084713,-3.471592426,10.8998738
11.37331539,-1.288080573,-10.48660374,-3.768473387,11.21737051
11.37787193,-0.7709329724,-10.78827286,-3.797203779,11.46298065
11.38284577,0.004788403399,-11.14261436,-3.454833031,11.66592256
11.38829816,1.144428372,-11.49935055,-2.506729126,11.82490889
11.39285631,2.08295536,-11.73637676,-1.544260144,12.01940023
11.39786116,3.055001259,-11.79383755,-0.4884171486,12.19287448
11.40331285,4.134786129,-11.74834728,0.4740519226,12.46374123
11.40831847,4.797980309,-11.85129833,0.8307880163,12.81265374
11.4133237,5.35343504,-12.12663174,0.8403648138,13.28234456
11.418328,5.774814606,-12.60068321,0.5267243981,13.87094588
11.42330216,5.91128397,-13.10585976,-0.07900865376,14.37751997
11.42830639,5.547365189,-13.59427738,-0.9816226959,14.71533966
11.43286424,4.989516258,-13.77863121,-1.613691926,14.74279323
11.43831724,4.266467571,-13.93904209,-2.595314741,14.80659645
11.44332185,3.428496838,-14.02523327,-3.248931646,14.79923362
11.44832647,2.152387381,-14.27901936,-3.715801001,14.91074587
11.453332,1.125274777,-14.51604462,-3.90254879,15.07354244
11.45830639,-0.03830722719,-14.65251446,-3.964797974,15.17950165
11.4633107,-1.290474772,-14.64772606,-3.938461781,15.22276864
11.46831531,-2.33913517,-14.5878706,-3.97676897,15.30007233
11.47287354,-2.990357876,-14.568717,-3.837905407,15.35966384
11.47829531,-3.069366693,-14.51125622,-3.356670856,15.20739321
11.48333008,-2.667140722,-14.67166805,-2.97599268,15.20618346
11.48830431,-1.975216389,-14.91827106,-2.52827692,15.25937337
11.49331077,-1.051054597,-15.1624794,-1.934514999,15.32148314
11.49786647,-0.5722141862,-15.19839191,-1.63763392,15.29707131
11.503319,0.03112462163,-14.97333717,-1.331176162,15.03242578
11.508324,0.1699883193,-14.53759289,-1.029506683,14.57499184
11.51332954,-0.05506663769,-14.09945393,-0.6464344859,14.11437249
11.518303,-0.05506663769,-14.09945393,-0.6464344859,14.11437249
11.52286177,-1.098938584,-13.67568016,0.8307880163,13.74489369
11.52831316,-2.051830769,-13.58230591,1.580173135,13.82700222
11.53331777,-2.846705914,-13.66849709,2.243366957,14.14087135
11.53832308,-3.493140221,-13.93425369,3.38300705,14.75839393
11.54332739,-4.213795185,-13.95819569,4.546588898,15.27281137
11.54785408,-5.104437828,-13.78341961,5.475539207,15.68500785
11.55330647,-6.016628742,-13.57512379,5.623979568,15.87806517
11.55831193,-6.811503887,-13.46020222,4.977545261,15.88551497
11.56331631,-7.527369976,-13.47456741,3.861847401,15.91034667
11.56832093,-8.020575523,-13.67807388,2.248155355,16.01479127
11.57332577,-7.702147007,-14.28620148,-0.1029506698,16.23050276
11.57833193,-7.031770229,-14.90390587,-1.800439715,16.57750843
11.58330524,-6.4691329,-15.58625317,-2.990357876,17.13835489
11.58831047,-6.009446144,-16.24705315,-3.548206806,17.6824758
11.59331593,-5.748478413,-16.71870995,-3.524264812,18.02722133
11.59832308,-5.714959621,-16.68519211,-3.447650433,17.97060635
11.60332485,-5.750872612,-16.38831139,-3.643975019,17.74620635
11.60833008,-5.72214222,-15.90707588,-3.617638826,17.28772065
11.61330424,-5.456385612,-15.14571953,-3.076549292,16.38993958
11.61831008,-4.814739704,-14.53040981,-2.003946781,15.43795098
11.62331416,-3.952826977,-13.9103117,-1.307234168,14.52000254
11.62831939,-3.320757866,-13.30936718,-0.5985504389,13.73043882
11.6333237,-2.554613113,-12.56716442,1.383848548,12.89863196
11.63788147,-0.3088520169,-12.91432381,5.137956619,13.90229287
11.64285477,2.209848166,-13.34767437,5.547365189,14.62248613
11.64830793,3.667917013,-13.37401104,3.763684988,14.36952021
11.65331293,4.268861771,-13.20881081,1.240196466,13.9367841
11.65831685,4.438849926,-12.82334423,0.5817909837,13.58234246
11.66332247,4.328716755,-12.26310158,0.2944868207,13.00800413
11.66832739,3.986345768,-11.62863731,0.5458779931,12.30504535
11.67285447,3.643975019,-11.30063248,0.8786720037,11.90608722
11.67830862,2.853888512,-10.60391903,1.233013868,11.05025346
11.68331201,2.197877169,-9.88805294,1.237802267,10.20472486
11.68831724,1.723825216,-9.143456459,1.405396342,9.410074828
11.6928747,1.271321058,-8.573636055,1.704671621,8.833425031
11.69784824,0.4692635238,-7.450755596,2.26970315,7.802917377
11.70285293,-0.1316810995,-6.706159115,2.449268341,7.140646007
11.70830616,-0.7469909191,-5.908889771,2.439691544,6.43623093
11.71286247,-1.00317049,-5.453991413,2.346317768,6.021426777
11.71831562,-1.350329757,-4.690241337,2.300827742,5.395883852
11.72287347,-1.632845521,-4.118026733,2.293645144,4.988500448
11.727848,-1.951274395,-3.548206806,2.291250944,4.652641636
11.7332997,-2.389413357,-2.942473888,2.217030764,4.391204183
11.73830431,-2.734178305,-2.664746523,1.853112102,4.2438932
11.74330947,-3.05021286,-2.473210335,1.55862534,4.224911929
11.74831408,-3.598485231,-2.042253971,1.403002143,4.36901731
11.75331908,-4.010287762,-1.874659896,1.37427175,4.635232519
11.75832639,-4.12999773,-1.881842494,1.290474772,4.718425327
11.76332862,-3.82593441,-1.934514999,1.206677675,4.453784167
11.76830362,-3.636792421,-1.999158382,1.161187768,4.309437363
11.77330831,-3.519476414,-2.015917778,1.173158884,4.222196168
11.77831316,-3.38061285,-2.037465572,1.137245774,4.107692436
11.78331839,-3.284844637,-2.08295536,1.096544385,4.041202409
11.78832308,-3.27287364,-2.130839586,1.139639974,4.068286922
11.79332739,-3.251325846,-2.15478158,1.302445769,4.11224615
11.79830147,-3.193865061,-2.217030764,1.534683347,4.179862726
11.80330647,-3.088520288,-2.348711967,1.711854219,4.240972807
11.80831285,-2.999934673,-2.494758129,1.762132406,4.28118404
11.81331654,-2.944868088,-2.645592928,1.67115283,4.296994505
11.81832116,-2.956839085,-2.705447912,1.503558636,4.280541362
11.82332608,-3.033453465,-2.7533319,1.230619669,4.277511103
11.82788454,-3.189076662,-2.748543501,1.060631394,4.341617243
11.83285808,-3.385401249,-2.762908697,0.6703764796,4.420860856
11.83831224,-3.708618402,-2.705447912,0.1053448766,4.591774864
11.84331508,-3.677493811,-2.770091295,-0.423773706,4.623521457
11.84832031,-3.670311213,-2.932897091,-1.118092179,4.829409888
11.85332401,-3.624821424,-3.179499865,-1.865083098,5.169824437
11.85833039,-3.636792421,-3.445256233,-2.607285738,5.647476299
11.86330493,-3.687070608,-3.790021181,-3.454833031,6.316218924
11.86830978,-3.701435804,-4.153939724,-4.23294878,6.99097258
11.87331378,-3.596091032,-4.599261284,-5.054159641,7.722020768
11.87831908,-3.517082214,-5.137956619,-5.7963624,8.506837403
11.883324,-3.519476414,-5.87297678,-6.847416878,9.683268476
11.88832893,-3.519476414,-6.655880928,-7.821856976,10.85674499
11.89330339,-3.38300705,-7.61595583,-8.130708694,11.64284947
11.89786147,-3.052607059,-8.453926086,-7.582436562,11.75927805
11.90331324,-2.952050686,-9.545681953,-6.639121532,11.99635703
11.90831816,-3.117250681,-10.64701462,-6.746860504,12.98446374
11.91332331,-3.23456645,-11.96861458,-7.702147007,14.5956577
11.91832893,-3.143586874,-13.96298409,-10.25915432,17.60958007
11.92330239,-2.552218914,-15.67962646,-12.20324612,20.03206737
11.92786031,-1.776497602,-17.68357468,-15.72990513,23.7338297
11.93331201,-0.8595184088,-20.34353256,-24.89251518,32.15953049
11.93831631,1.900996208,-24.36100197,-31.12940979,39.57413748
11.94332154,5.252878666,-25.52219009,-25.45275879,36.425511
11.9483267,6.095637321,-23.83906555,-18.1480484,30.57465456
11.95333108,4.745307922,-20.29325294,-12.46421432,24.28354795
11.95785785,3.703830004,-15.8400383,-9.765948296,18.9736374
11.96331131,4.204218388,-10.6111021,-10.39562416,15.43826227
11.96831593,4.711789131,-7.51061058,-11.86326981,14.81038145
11.97332062,4.505887508,-5.566518784,-12.17930412,14.12885708
11.97832454,3.303998232,-4.235342979,-10.60152531,11.88473278
11.98332954,1.472434044,-4.335899353,-9.239224434,10.31170953
11.98830493,-0.7613561153,-5.09725523,-7.424419403,9.037902272
11.99330954,-2.370259762,-6.50744009,-4.5370121,8.279455698
11.99831724,-2.944868088,-9.461885452,1.323993564,9.997623884
12.0033197,-4.381389141,-11.90875912,5.183446884,13.7070506
12.00832401,-6.677428722,-14.17606831,7.316680431,17.29400993
12.01288185,-8.367734909,-16.45295334,8.104372978,20.15935322
12.0183037,-8.731653214,-19.67555046,7.252037048,22.71477702
12.02330801,-7.433996201,-22.45042992,5.049371243,24.18227146
12.02831201,-6.189011574,-25.100811,2.889801502,26.01356435
12.03331778,-3.830722809,-25.80949402,2.161964178,26.18164448
12.03832278,-1.431732655,-23.60443497,0.7302315235,23.65908803
12.04332731,0.0359130241,-19.52231979,-3.131615877,19.77193157
12.04830185,-0.2801215947,-14.72912884,-3.069366693,15.04814661
12.05330739,-3.658340216,-7.850587368,5.367800236,10.18962485
12.05831224,-5.018246651,-4.604049683,5.963956356,9.05256032
12.06331685,-5.561730385,-3.148375273,-0.1795651317,6.393540128
12.06832147,-8.858546257,-1.383848548,-8.918401718,12.64621555
12.07332701,-11.83453941,0.4094084799,-14.66209126,18.84677316
12.07833416,-10.9893856,0.6344634295,-8.315062523,13.79526747
12.08330616,-8.621520042,-0.0143652102,0.2059013397,8.62399035
12.08786301,-6.785167694,-1.039083481,5.195417881,8.608749159
12.09286824,-5.889736176,-2.061407566,7.364564419,9.652730311
12.09832031,-4.663905144,-3.763684988,8.425195694,10.33930647
12.10332524,-3.945644379,-5.307945251,10.41477776,12.33734121
12.1083307,-3.481169224,-6.880935669,13.45301914,15.5064354
12.11330424,-4.082113743,-8.741230011,16.17761993,18.8358207
12.11830924,-4.893748283,-10.26154804,16.15607262,19.75517205
12.12331447,-5.516240597,-11.63821411,14.96136665,19.74131278
12.12831847,-5.537788391,-12.88559341,13.04839897,19.15636536
12.13332431,-4.824316502,-14.37957573,11.52808094,19.05105976
12.13832862,-3.490746021,-15.68920326,9.639056206,18.74160642
12.14330308,-1.37427175,-17.25501251,7.089231014,18.70511363
12.14830862,1.910573006,-19.14882469,1.707065821,19.31946816
12.15331231,5.997475147,-19.99637222,-10.12986755,23.20428467
12.15831816,8.951920509,-19.7880764,-17.62132454,27.96812341
12.16332247,8.099584579,-18.09537697,-16.4194355,25.74186862
12.1683277,4.86980629,-15.00206757,-10.18014526,18.77265038
12.17330216,3.373430252,-12.48576164,-4.886565685,13.82580195
12.1783067,2.281674147,-10.53209305,-1.065419793,10.82894917
12.18331285,1.563413739,-9.205705643,0.356736064,9.344331946
12.18831716,1.510741234,-8.473079681,0.1795651317,8.608580719
12.19287347,0.8140285611,-8.008605003,-0.5530605912,8.068845804
12.19829624,-0.08379705995,-7.623138428,-0.9576807022,7.683515716
12.20330001,-1.060631394,-7.20894146,-1.039083481,7.36026293
12.20830585,-2.149993181,-6.651092529,-0.9121908545,7.04922653
12.21286308,-2.925714493,-6.208165169,-0.6751648784,6.896156007
12.21786801,-4.158728123,-5.607220173,-0.7110779285,7.017233749
12.22331962,-4.898536682,-5.358223438,-0.7781155705,7.301485046
12.22832493,-5.667075634,-5.257667065,-0.9504981041,7.78859781
12.23332985,-5.798756599,-5.255272865,-1.503558636,7.968949715
12.23785839,-5.573701382,-5.307945251,-1.810016513,7.906743303
12.24331108,-5.023035049,-5.442020416,-2.059013367,7.686742051
12.24831501,-4.149151325,-5.870582581,-2.054224968,7.476565841
12.25331993,-3.186682463,-6.270414352,-1.817199111,7.264657864
12.2583237,-2.300827742,-6.677428722,-1.422155857,7.204470135
12.26288185,-1.630451322,-7.050923824,-1.072602391,7.316035414
12.26785531,-1.118092179,-7.429207802,-0.7996633649,7.555310727
12.27286085,-0.7350199223,-7.855375767,-0.4836287498,7.904497422
12.27831316,-0.4165911078,-8.149862289,-0.3136404157,8.166527646
12.28331693,-0.09337386489,-8.583212852,-0.2585737705,8.58761445
12.28832308,0.1197100878,-8.889671326,-0.3543418646,8.897535892
12.29332801,0.4189853072,-9.033323288,-0.2920926213,9.047750904
12.29830239,0.5770025849,-9.102754593,-0.107739076,9.121659984
12.3033067,0.5291185975,-9.047688484,0.04070143029,9.063238384
12.30831108,0.3639186621,-8.997409821,0.0191536136,9.004786901
12.31331631,0.04309562966,-8.925583839,0.02394201607,8.925719989
12.31787539,-0.3303998411,-8.844181061,0.009576806799,8.850355609
12.32284924,-0.5961562395,-8.729259491,-0.1532289088,8.750934386
12.32830001,-0.9385270476,-8.501810074,-0.4022258818,8.562907988
12.33330647,-1.060631394,-8.336610794,-0.5602431893,8.422463471
12.33831039,-1.161187768,-8.250418663,-0.5961562395,8.353033426
12.34331631,-1.201889277,-8.125920296,-0.5554547906,8.233082564
12.34832031,-1.218648672,-8.159439087,-0.5841852427,8.27059993
12.35332462,-1.125274777,-8.159439087,-0.6392518282,8.261436463
12.3578827,-0.9457096457,-8.173804283,-0.8044517636,8.267562267
12.36330485,-0.8451532125,-8.216899872,-1.273715258,8.357875209
12.36830954,-0.5746083856,-8.42759037,-1.920149803,8.662645642
12.3733147,-0.3327940404,-8.705317497,-2.738966703,9.132099605
12.37831931,-0.05027823523,-9.131484985,-3.667917013,9.840739868
12.38332362,0.2106897533,-9.526528358,-4.273650169,10.44333369
12.38832885,0.3950432837,-9.892841339,-4.582501888,10.90979801
12.39330339,0.5363011956,-10.14423275,-4.632780075,11.16493297
12.39831008,0.5051765442,-10.40998936,-4.225766182,11.24634081
12.40286647,0.3471592367,-10.53927612,-3.699041605,11.17496172
12.40831839,0.2059013397,-10.70208168,-2.480392933,10.98768842
12.41332278,0.1029506698,-10.75714779,-1.556231141,10.86962202
12.4183267,-0.1915361285,-10.83136845,-1.058237195,10.88462652
12.4233027,-0.4477157295,-10.81460953,-1.218648672,10.89226024
12.42830678,-0.6392518282,-10.68292809,-1.695094824,10.83544839
12.43331193,-0.4548983276,-10.85770512,-2.659958124,11.18803245
12.43831693,0.2537853718,-11.13303757,-3.53384161,11.68319173
12.44332185,1.082179189,-11.25274754,-3.586514235,11.85995461
12.4478787,1.999158382,-11.31499767,-3.222595453,11.93360499
12.45330124,2.803610086,-11.31499767,-2.53067112,11.92869222
12.45830578,3.60327363,-11.2982378,-1.546654344,11.95934354
12.46331047,4.369418144,-11.36527538,-0.85473001,12.2062223
12.46831408,4.999093056,-11.54484081,-0.4070142806,12.58729285
12.47332054,5.705382824,-12.03325748,-0.2202665508,13.31912896
12.47832731,6.222530365,-12.5551939,-0.3591302633,14.01719489
12.48332954,6.564900875,-13.05079365,-0.6344634295,14.62271118
12.48785747,6.622362137,-13.45541382,-1.082179189,15.03578907
12.49330954,6.258443356,-13.75708294,-1.790862918,15.21948206
12.49831439,5.714959621,-13.93425369,-2.41574955,15.25319754
12.50331931,4.991910458,-14.14015484,-3.076549292,15.30778575
12.50832362,3.849876404,-14.29577827,-3.538630009,15.2221131
12.51332955,1.690306425,-14.38436413,-3.969586372,15.01747925
12.51830247,-0.0191536136,-14.43943024,-4.355052948,15.08190965
12.52286032,-1.467645645,-14.52562141,-4.510675907,15.28050583
12.52831355,-2.221819162,-14.68842697,-4.352658749,15.48005186
12.53331778,-2.312798738,-15.07628822,-3.833117008,15.72692884
12.53832301,-2.056619167,-15.49048519,-3.327940464,15.97685831
12.54332708,-1.750161409,-15.85200977,-2.758120298,16.18507048
12.54830155,-1.256955862,-16.16086197,-2.054224968,16.33931571
12.55330708,-0.4620809257,-16.28536034,-1.180341482,16.33461619
12.55831347,-0.3327940404,-16.06269836,-0.4620809257,16.0727891
12.56287016,-0.9361328483,-15.68441486,-0.3303998411,15.71580028
12.5678427,-1.996764183,-15.20557499,-0.6631938815,15.3504529
12.57284893,-3.229778051,-14.60941887,-0.6344634295,14.97561784
12.57785378,-4.23294878,-14.21198082,-0.06464344263,14.82910763
12.58285808,-4.939238071,-14.23831749,0.5530605912,15.08083664
12.58831008,-5.5042696,-14.44421864,1.742978811,15.55539813
12.5933157,-5.932831764,-14.78180122,2.93529129,16.19617471
12.59831993,-6.849811077,-14.91827106,4.168305397,16.9366317
12.60332485,-8.082824707,-14.98291397,5.085284233,17.76738253
12.60833039,-9.806650162,-15.1481142,4.742913723,18.65826846
12.61330462,-10.88404083,-15.37077522,3.608062029,19.17657914
12.61830916,-11.96861458,-15.52400398,2.078166962,19.71195608
12.62286678,-12.88319969,-15.77539539,0.5219359994,20.37430616
12.62831901,-12.69405746,-16.29972458,-1.865083098,20.74364122
12.63287662,-11.85848141,-16.58463478,-3.110068083,20.62392338
12.63830178,-11.2838726,-17.00601387,-4.788403511,20.96327973
12.64330362,-10.90798283,-17.12811852,-5.602431774,21.06522668
12.64786062,-10.70687008,-16.91982269,-5.899312973,20.87389184
12.65286547,-10.34295177,-16.2231102,-5.968744755,20.14427636
12.65831778,-9.900024414,-15.4713316,-5.710171223,19.23482883
12.66287508,-8.937555313,-14.79616642,-5.015852451,17.99903363
12.66829716,-6.883329868,-13.72356415,-4.211400986,15.9201866
12.67330216,-5.726930618,-12.66772079,-3.667917013,14.37784753
12.67830708,-5.023035049,-11.60948372,-2.118868589,12.82577863
12.68331162,-3.330334663,-11.3078146,0.5937620401,11.8029807
12.68831593,-0.7038952708,-11.39640045,4.098873138,12.13153629
12.69332155,1.434126854,-11.44428444,5.432443619,12.74911016
12.69832647,3.445256233,-11.56159973,5.128379822,13.1088008
12.70333108,4.805162907,-11.52808094,1.850717902,12.62582265
12.70830547,5.482721806,-11.36527538,-0.08140286058,12.61888859
12.71331078,5.892130375,-11.06839466,-0.9050082564,12.57161886
12.71831693,5.707777023,-10.83855152,-0.7110779285,12.27023021
12.72332032,5.420472622,-10.29267311,0.09576806426,11.63313435
12.72832516,4.850652695,-9.696516991,0.282515794,10.84578667
12.73333008,4.113238335,-8.963891029,0.4261679053,9.871762308
12.73830462,3.191470861,-8.068459511,0.5985504389,8.697343719
12.74330985,2.178723574,-6.947973251,0.9816226959,7.347431648
12.74831355,1.37666595,-5.906495571,1.429338455,6.230963608
12.75331816,0.5746083856,-4.900930882,1.800439715,5.252702302
12.75787662,-0.107739076,-4.022258759,2.097320795,4.537502369
12.76329847,-0.8786720037,-3.071760893,2.126051188,3.837691119
12.76785562,-1.067813993,-2.710236311,2.224213362,3.665069258
12.77330832,-1.146822572,-2.310404539,1.999158382,3.263403957
12.77786585,-1.321599364,-2.197877169,1.537077546,2.989965938
12.78331808,-1.501164436,-2.061407566,0.988805294,2.735074355
12.78832332,-1.927332401,-1.987187386,0.8523358107,2.89654971
12.79332708,-2.387019157,-1.78368032,0.9600749016,3.13067401
12.79830401,-2.844311714,-1.771709204,1.221042871,3.566512067
12.80330762,-3.074155092,-2.018311977,1.345541358,3.915928283
12.8083117,-3.153163671,-2.171540976,1.460463047,4.097680278
12.81331685,-3.241749048,-2.334346771,1.465251446,4.255005704
12.81832124,-3.442862034,-2.552218914,1.383848548,4.503571602
12.82332585,-3.502717018,-2.664746523,1.297657371,4.588443657
12.8283317,-3.711012602,-2.810792685,1.132457376,4.791099013
12.83330578,-3.727771997,-2.923320293,1.132457376,4.870784876
12.8383107,-3.696647406,-2.920926094,1.163581967,4.852930484
12.84331562,-3.67988801,-2.889801502,1.233013868,4.838682846
12.84832032,-3.476380825,-2.82276392,1.312022567,4.666328643
12.85332493,-3.248931646,-2.717418909,1.333570361,4.440532882
12.85788239,-2.995146275,-2.647987127,1.288080573,4.200224827
12.86330424,-2.688688517,-2.616862535,1.161187768,3.9275148
12.86830947,-2.396595955,-2.612074137,1.046266198,3.696116398
12.87286701,-2.109291792,-2.67671752,0.8595184088,3.514640869
12.87832062,-1.829170108,-2.827552319,0.6895300746,3.437494309
12.8833237,-1.678335428,-2.954444885,0.5099649429,3.435930534
12.88832885,-1.666364431,-3.134010077,0.323217243,3.564163151
12.89330339,-1.745373011,-3.287238836,0.009576806799,3.721875579
12.89830855,-1.829170108,-3.505111217,-0.4955997467,3.984631356
12.90331255,-1.8579005,-3.699041605,-1.00556469,4.25979617
12.90831747,-1.900996208,-3.895366192,-1.604115129,4.621779927
12.91287532,-1.982398987,-4.079719543,-2.255337954,5.065625981
12.91829816,-2.08295536,-4.369418144,-3.086126089,5.740617753
12.92330216,-2.209848166,-4.649539471,-4.036623955,6.541863584
12.9283067,-2.293645144,-4.979939461,-5.121197224,7.502483994
12.93331232,-2.324769735,-5.374982834,-6.605602264,8.827739012
12.93831685,-2.382230759,-5.87297678,-7.769184589,10.0263208
12.94332147,-2.60010314,-6.35421133,-9.040505409,11.35197234
12.94787908,-2.681505919,-6.902483463,-10.51054573,12.85715068
12.95330055,-2.647987127,-7.714118004,-11.96382618,14.47938498
12.95830862,-2.655169725,-8.429984093,-12.74672985,15.51108249
12.96331078,-2.782062292,-9.442731857,-13.08431244,16.37389042
12.96786862,-2.619256735,-10.63743782,-13.05797577,17.04483266
12.97287262,-2.394201756,-12.2702837,-12.78024864,17.87811006
12.97829439,-2.671929121,-15.19360352,-12.42830086,19.8102866
12.98333008,-2.841917515,-18.15044403,-12.97657299,22.49236671
12.98830455,-2.918531895,-21.4185276,-15.37316895,26.5255627
12.99286216,-2.585737944,-25.03616714,-18.92855835,31.49263449
12.99786578,-0.5195417404,-28.74239159,-19.58456993,34.78434098
13.00331932,1.405396342,-29.00335884,-17.18797493,33.74309478
13.00832401,1.651999116,-27.26277542,-14.21676922,30.79130643
13.01332947,0.8499416113,-23.34346581,-11.42752457,26.00438644
13.01830309,-0.04070143029,-18.90940475,-10.60391903,21.67972194
13.02330801,-0.5889736414,-13.76905441,-10.94868469,17.60134784
13.02831255,-0.3351882398,-8.738836288,-11.70285797,14.60946596
13.03331785,0.2537853718,-3.974374771,-11.97340298,12.61833748
13.03832516,0.6655880809,-1.568202138,-11.24795914,11.3762406
13.04332801,0.6799532771,-0.3806780577,-9.629479408,9.660958851
13.04830247,-0.349553436,-0.3591302633,-7.407660007,7.42459352
13.05330647,-1.879448295,-1.508347034,-5.647922039,6.140558609
13.05786401,-3.615244627,-2.767697096,-3.730166197,5.885939244
13.06331685,-4.661510944,-4.110844135,-1.134851575,6.317959472
13.06832178,-6.342240334,-5.861005783,1.8602947,8.833804255
13.07332639,-7.946355343,-7.601590633,3.426102638,11.51811281
13.07833108,-9.093177795,-9.722852707,5.070919037,14.24548936
13.08330608,-9.684545517,-12.12423706,6.797138691,16.94073908
13.08831078,-9.763554573,-15.35641003,7.39808321,19.64377667
13.09331632,-9.351752281,-18.10495377,5.956773758,21.23035033
13.09832024,-8.204929352,-20.89419746,2.63841033,22.60198138
13.10332555,-6.246472359,-23.55655098,-2.82276392,24.53359956
13.10833008,-2.765302896,-25.52697945,-9.382876396,27.33700695
13.11330462,1.355118155,-24.3250885,-11.25514221,26.83699875
13.11831132,3.387795448,-20.83194923,-9.296685219,23.06242882
13.12331416,2.885013103,-16.64448929,-6.20337677,17.99567191
13.12831993,0.8475474119,-10.9008007,2.470816135,11.20940342
13.13332362,-1.312022567,-6.572083473,7.194576263,9.832375705
13.13832893,-2.808398485,-3.653551817,6.646304131,8.087576987
13.14330309,-4.730942726,-1.833958507,4.987122059,7.114535073
13.14830855,-7.326257229,-0.4596867263,1.606509328,7.514401446
13.15331286,-8.312667847,0.1460463107,-1.817199111,8.510228485
13.15831724,-8.087613106,0.356736064,-1.802833915,8.293790237
13.16332247,-6.505045891,-0.2705447972,2.497152328,6.973133175
13.16832801,-5.204994678,-1.283292055,5.434837818,7.633889586
13.17285439,-3.75650239,-2.724601507,6.928819656,8.339262882
13.17830609,-2.248155355,-4.711789131,8.226476669,9.743206747
13.1833117,-2.068590164,-7.388506413,10.3214035,12.86081112
13.18831724,-3.141192675,-8.963891029,11.86566353,15.19909224
13.19332147,-2.949656487,-10.32858658,12.44506073,16.43957757
13.19832824,-2.63601613,-11.50413895,12.00931549,16.8379765
13.20330093,-2.30561614,-12.82334423,10.34774017,16.63820152
13.20830639,-1.989581585,-13.72356415,8.334216118,16.17880731
13.21331139,-1.158793569,-14.64293766,5.995080948,15.86503771
13.21831532,0.423773706,-15.60780048,3.033453465,15.90549779
13.22332093,3.138798475,-16.58942413,-3.035847664,17.15451602
13.22832547,5.442020416,-17.1065712,-8.4012537,19.81997548
13.23333047,5.626373768,-16.67800903,-10.9199543,20.71370245
13.23830462,4.106055737,-15.21994019,-10.48420906,18.93211326
13.24331009,2.190694571,-13.12022495,-7.639897823,15.33973547
13.24831378,0.9911994934,-11.57357121,-5.432443619,12.82347342
13.25331932,0.3447650373,-10.29506683,-3.790021181,10.9759521
13.25832516,-0.07900865376,-9.481039047,-2.456450939,9.794411417
13.26332824,-0.6967126727,-8.710105896,-1.45088625,8.857563106
13.26830186,-1.41257906,-8.075642586,-1.017535686,8.261159824
13.27330893,-2.226607561,-7.498639584,-0.586579442,7.844198638
13.27831539,-3.047818661,-6.974309444,-1.149216771,7.697459971
13.28331755,-3.835511208,-6.538564682,-0.5746083856,7.602246321
13.28832239,-4.096478939,-6.239289761,0.1244984865,7.464943154
13.29332732,-3.928884983,-6.136339188,0.5003881454,7.303504921
13.29830178,-3.866635799,-6.016628742,0.3208230138,7.159163445
13.30330739,-3.734954596,-5.973533154,-0.1268926859,7.046210749
13.30831286,-3.347094059,-6.083666325,-0.2442085743,6.947925764
13.31286947,-2.784456491,-6.272808552,-0.2537853718,6.867731219
13.31829132,-1.991975784,-6.526593685,-0.3208230138,6.831348334
13.32332616,-1.182735682,-6.806715488,-0.5075707436,6.927327587
13.32833139,-0.4429273009,-7.122750282,-0.691924274,7.169973178
13.33330578,0.1053448766,-7.412448406,-0.8571242094,7.462583388
13.33830947,0.5123591423,-7.723694801,-1.101332784,7.818625658
13.34331562,0.7086837292,-7.965508938,-1.431732655,8.124126024
13.34831993,0.8044517636,-8.221688271,-1.745373011,8.443318518
13.35332432,0.8092401624,-8.485051155,-1.867477298,8.725734021
13.35833193,0.9433154464,-8.839392662,-1.826775908,9.075341144
13.36330401,0.9744400978,-9.179368973,-1.912967205,9.427077584
13.36786155,0.8044517636,-9.481039047,-2.066195965,9.736858314
13.37286616,0.5889736414,-9.595960617,-2.023100376,9.824575576
13.37787132,0.3998316824,-9.684545517,-1.900996208,9.877452801
13.38329347,0.1987187415,-9.689333916,-1.441309452,9.797961717
13.38832916,-0.07422025502,-9.533711433,-1.00556469,9.586882845
13.39285662,-0.390254885,-9.301473618,-0.6679822803,9.333590448
13.39830832,-0.7757213712,-8.973467827,-0.4932055473,9.020427939
13.40331378,-1.084573388,-8.652645111,-0.4261679053,8.730760902
13.40831839,-1.285686255,-8.377311707,-0.3758896589,8.483727578
13.41332309,-1.472434044,-8.0229702,-0.2442085743,8.160621953
13.41832793,-1.656787634,-7.793126583,-0.1891419291,7.969538373
13.42330209,-1.776497602,-7.659051418,-0.2873041928,7.867627092
13.42830639,-1.754949808,-7.570465565,-0.5961562395,7.794049009
13.43331193,-1.721431017,-7.584830761,-1.249773264,7.877494248
13.43831778,-1.690306425,-7.682993412,-1.82198751,8.074971335
13.44332178,-1.651999116,-7.893682957,-2.449268341,8.428419016
13.44832647,-1.537077546,-8.200140953,-3.102885485,8.901281782
13.45333139,-1.359906554,-8.73404789,-3.871424198,9.649915217
13.45830578,-1.230619669,-9.289502144,-4.367023945,10.33828675
13.46331016,-1.098938584,-9.792284966,-4.67827034,10.90792025
13.46831501,-0.9816226959,-10.14902115,-4.690241337,11.22339419
13.47332062,-1.022324085,-10.51772785,-4.110844135,11.33872944
13.47832493,-1.04147768,-10.75954247,-3.19865346,11.27314569
13.48333009,-0.8355764151,-10.95107841,-2.217030764,11.2044425
13.4883037,-0.5506663918,-11.10430717,-1.393425345,11.2049322
13.49330924,-0.2178723514,-11.17134476,-0.8595184088,11.20647955
13.49786678,-0.0718260482,-11.11867237,-0.962469101,11.16048301
13.5033187,0.06943184882,-11.05881786,-1.441309452,11.15256232
13.50832401,0.390254885,-10.97980881,-2.252943754,11.21535804
13.51332832,0.8283938169,-10.86488724,-2.621650934,11.20736653
13.51830555,1.462857246,-10.79306126,-2.767697096,11.23789437
13.52330824,2.183511972,-10.64701462,-2.590526342,11.17306903
13.52831286,3.162740469,-10.44350815,-2.006340981,11.09482735
13.53287078,3.699041605,-10.36689377,-1.592144132,11.12161491
13.53829286,4.582501888,-10.42914295,-0.7757213712,11.41788465
13.54332732,5.075707436,-10.61828423,-0.07900865376,11.76932488
13.54830239,5.590460777,-11.14261436,0.5315127969,12.47772465
13.55330701,5.803544998,-11.65018559,0.7422025204,13.03682566
13.5583117,5.877765179,-12.20085144,0.4381389022,13.54993967
13.56331693,5.808333397,-12.71560478,-0.2849099934,13.98229293
13.56832124,5.609614372,-13.36922264,-1.584961534,14.58478627
13.57332586,5.090072632,-13.83848572,-2.585737944,14.96992208
13.57833139,4.256890774,-14.25986576,-3.268085241,15.23631424
13.58330586,3.117250681,-14.68363857,-3.560178041,15.42729274
13.58831078,0.9792284966,-15.01403904,-3.64158082,15.48035425
13.59331539,-1.048660398,-15.05473995,-4.01507616,15.61620057
13.59832178,-2.691082716,-15.20078659,-4.479551315,16.0739609
13.60332609,-3.830722809,-15.48330212,-4.711789131,16.63153747
13.60832986,-3.948038578,-16.07945824,-4.264073372,17.09731872
13.61285724,-3.790021181,-16.45774269,-3.430891037,17.23347232
13.61830886,-3.462015629,-16.77138329,-2.590526342,17.3198059
13.62331439,-3.007117271,-16.99404335,-1.565807939,17.32893586
13.62831909,-2.588132143,-17.04432106,-0.9935936928,17.26831019
13.63332424,-2.370259762,-16.67322159,-0.4716577232,16.84746006
13.63832832,-2.647987127,-16.12015915,-0.3375824392,16.3396857
13.64330393,-3.450044632,-15.37077522,-0.5722141862,15.76359629
13.6483077,-4.122815132,-14.7937727,-0.4070142806,15.3629091
13.65331286,-4.649539471,-14.34845066,0.2705447972,15.08540514
13.65831786,-5.202600479,-13.97495556,1.357512355,14.97361928
13.66332278,-5.595249176,-13.67328548,2.592920542,14.9996262
13.66832639,-5.829881191,-13.6301899,3.102885485,15.14587368
13.67330186,-6.672640324,-13.57512379,3.452438831,15.51539392
13.67830855,-7.568071365,-13.58948898,3.64158082,15.97532553
13.68331293,-8.781931877,-13.83369732,3.026270866,16.66288764
13.68831716,-9.830592155,-14.12339592,1.956062794,17.31869037
13.69332178,-10.81460953,-14.38436413,0.6224924326,18.00703217
13.69832639,-11.2982378,-14.74349403,-0.9457096457,18.5987946
13.70288362,-10.81700325,-15.18402672,-2.487575531,18.80824975
13.70830616,-9.854534149,-15.68202114,-4.175487995,18.98610888
13.71286332,-9.361329079,-15.96214294,-4.884171486,19.13843308
13.71831509,-9.165003777,-15.96453667,-4.989516258,19.07246701
13.72332086,-8.820239067,-15.70596313,-4.630385876,18.59877331
13.72787809,-8.38928318,-15.27740097,-4.082113743,17.90091353
13.73330024,-7.776367188,-14.72434044,-3.315969467,16.97862602
13.73830432,-6.572083473,-14.06354046,-2.647987127,15.74761211
13.74330863,-5.68383503,-13.16332054,-2.466027737,14.54854911
13.74831347,-4.800374508,-12.42111874,-2.504334927,13.54988854
13.7533197,-3.730166197,-11.71722317,-1.903390408,12.44308457
13.7583267,-1.814804912,-11.32936287,0.141257897,11.47466486
13.76332893,-0.8212111592,-10.86249352,1.132457376,10.95219671
13.76830301,0.6631938815,-10.76672459,3.172317266,11.24392197
13.77286055,2.621650934,-10.95826149,4.888959885,12.2824459
13.77786555,3.373430252,-11.11388397,3.7181952,12.19522137
13.78331778,3.632004023,-10.78108978,0.6991068721,11.39789895
13.78832239,3.857059002,-10.45308495,0.3734954596,11.14824596
13.79332739,3.986345768,-10.16578007,0.5985504389,10.93582642
13.79785416,4.192247391,-9.847352028,0.9050082564,10.74077837
13.8033067,3.507505417,-9.289502144,0.7374141216,9.956968611
13.80831132,2.19308877,-8.698134422,0.6296750307,8.992423001
13.81286893,1.340752959,-8.006210327,0.6296750307,8.142082838
13.81832178,0.4812345505,-7.115567684,1.058237195,7.209906804
13.8233267,-0.09337386489,-6.349422932,1.63523972,6.557278337
13.82788393,-0.4022258818,-5.635950565,2.185906172,6.058375213
13.83285809,-0.8595184088,-4.824316502,2.466027737,5.485808455
13.83786393,-1.515529633,-4.010287762,2.466027737,4.94575887
13.84331447,-2.372653961,-3.19865346,2.042253971,4.475675598
13.8483197,-2.851494312,-2.683900118,1.663970232,4.254778089
13.85332524,-3.035847664,-2.410961151,1.651999116,4.214048622
13.85833016,-2.952050686,-2.394201756,1.59693253,4.122741661
13.86330486,-2.868253708,-2.434903145,1.331176162,3.990947586
13.86830893,-2.954444885,-2.485181332,1.106121182,4.016014803
13.87331386,-3.201047659,-2.396595955,0.8164227605,4.081289552
13.87831901,-3.500322819,-2.389413357,0.4955997467,4.266986657
13.8833234,-3.722983599,-2.542642117,0.3399766386,4.521196736
13.88832824,-3.833117008,-2.770091295,0.01197100803,4.729305984
13.89285624,-3.749319792,-3.066972494,-0.09816227108,4.844930857
13.89830832,-3.524264812,-3.282450438,-0.1268926859,4.817782176
13.90331286,-3.34230566,-3.438073635,-0.1604115069,4.797612875
13.90831878,-3.145981073,-3.509899616,-0.1364694983,4.715423221
13.91332247,-2.93768549,-3.548206806,-0.1101332754,4.607808255
13.91832947,-2.825158119,-3.529053211,-0.0191536136,4.520630689
13.92330147,-2.67432332,-3.435679436,0.05506663769,4.354185428
13.92830701,-2.604891539,-3.397372246,0.141257897,4.283404242
13.93331109,-2.425326347,-3.373430252,0.2370259613,4.161540684
13.93831686,-2.250549555,-3.356670856,0.2849099934,4.051343758
13.94332209,-2.011129379,-3.34469986,0.2082955539,3.908330279
13.94787909,-1.733402014,-3.313575268,0.08619125932,3.740573824
13.95285355,-1.436521053,-3.318363667,-0.0143652102,3.615983479
13.95830578,-1.053448796,-3.356670856,-0.1244984865,3.520297357
13.96286278,-0.787692368,-3.445256233,-0.2059013397,3.540147616
13.96786801,-0.5889736414,-3.552995205,-0.3758896589,3.62104376
13.9733197,-0.5363011956,-3.691859007,-0.6105214357,3.780235221
13.97832555,-0.6823474765,-3.835511208,-0.8690952063,3.991499816
13.98288363,-0.9552865028,-3.981557369,-1.343147159,4.309224487
13.98830486,-1.280897856,-4.141968727,-2.118868589,4.825578551
13.99330893,-1.532289028,-4.299986362,-2.851494312,5.382268313
13.99831601,-1.719036818,-4.438849926,-3.651157618,5.999118951
14.00332001,-1.707065821,-4.580107689,-4.5370121,6.669028337
14.00832401,-1.491587639,-4.740519524,-5.705382824,7.566290518
14.01332955,-1.391031146,-4.941632271,-6.854599476,8.56389112
14.0183034,-1.304839969,-5.264849663,-8.331821442,9.941855855
14.02330886,-1.132457376,-5.72214222,-10.0412817,11.61260993
14.02831286,-0.8667010069,-6.495469093,-12.35408115,13.98447749
14.03331786,-0.3639186621,-7.402871609,-14.17127991,15.99250196
14.0383227,0.4333505034,-8.731653214,-15.29655457,17.61857378
14.04332763,1.22822547,-10.81460953,-15.88792229,19.25851478
14.04830216,1.654393315,-14.30535507,-15.82327938,21.39524179
14.05330678,2.252943754,-17.89426422,-15.61019516,23.85285393
14.05831163,2.389413357,-21.88539696,-16.33324432,27.41267529
14.06331686,2.41574955,-26.13510513,-18.43774796,32.07538177
14.06832178,2.382230759,-30.66493607,-19.0315094,36.16920897
14.07332701,1.862688899,-31.59627914,-17.27416611,36.05816524
14.07788578,0.1268926859,-29.77189827,-15.14332581,33.40213084
14.08330586,-3.761290789,-26.28115273,-12.8353157,29.48883901
14.08831109,-4.934449673,-20.51351929,-11.86087513,24.20400021
14.09331478,-5.154716492,-15.21994019,-11.50174522,19.76127082
14.09832086,-4.774038315,-10.03888798,-11.51611042,16.00598366
14.10287847,-4.352658749,-5.377377033,-11.12824917,13.10342518
14.1082997,-3.347094059,-0.6943184733,-10.09395409,10.6570646
14.11285786,-2.786850691,1.958456993,-8.894459724,9.524363724
14.11830863,-2.592920542,3.600879431,-7.374141216,8.606249374
14.12331409,-3.019088268,3.914519787,-4.632780075,6.77502844
14.1283187,-3.442862034,2.384624958,-2.398990154,4.826477902
14.1333234,-3.835511208,0.5243301988,-0.2394201756,3.878580978
14.13832855,-3.952826977,-1.110909581,2.11647439,4.619353315
14.14330301,-4.441244125,-3.454833031,4.809951305,7.402442314
14.14830793,-5.463568211,-5.590460777,5.98789835,9.846763729
14.15331324,-6.385335922,-8.063671112,6.713341713,12.28268145
14.1583194,-6.931213856,-10.62786102,7.249642849,14.61336638
14.16332301,-7.242460251,-13.94143677,7.565677166,17.43721195
14.16832763,-7.307103634,-16.53196335,5.403713226,18.86530393
14.1728557,-6.871358871,-19.26853561,1.606509328,20.52006115
14.17830678,-5.68144083,-22.33790207,-2.590526342,23.1942119
14.18331193,-4.225766182,-26.08722115,-7.508216381,27.4731418
14.18831632,-1.616086125,-27.98342896,-11.91115379,30.4558634
14.19332186,1.307234168,-27.29389954,-14.05875206,30.72969773
14.19832586,2.08295536,-22.75928116,-12.58392429,26.08982048
14.20288432,1.690306425,-19.17995071,-7.627926826,20.71021277
14.20830609,-0.08858546615,-12.33732128,5.535394192,13.52249728
14.21286301,-2.499546528,-7.769184589,9.502586365,12.52625681
14.21831532,-4.548983097,-4.304774761,7.663839817,9.897412475
14.22332063,-6.766014099,-2.351106167,4.580107689,8.502001731
14.22832455,-8.38928318,-0.8714894056,1.130063176,8.509794877
14.2333304,-8.722076416,0.117315881,-1.328781962,8.823493726
14.23830678,-7.584830761,0.4141969085,-0.1364694983,7.59735748
14.24286116,-6.449979305,0.1891419291,1.977610588,6.748996321
14.24831501,-5.363011837,-0.6488286853,3.797203779,6.603153123
14.25331909,-3.974374771,-1.982398987,5.295974255,6.911794548
14.25787663,-2.52827692,-3.813963413,7.536946774,8.817259652
14.26329847,-2.264914751,-6.10042572,11.14500904,12.90566772
14.26830401,-2.657563925,-7.896077156,12.6629324,15.15785398
14.27286086,-3.19625926,-9.354146004,12.70123959,16.09464531
14.27831293,-3.203441858,-10.93192482,11.81538582,16.4125672
14.28331755,-2.928108692,-12.12423706,10.43153667,16.26000929
14.28832278,-2.171540976,-13.43386555,8.59278965,16.09410972
14.29332763,-0.05985504389,-14.94221306,5.494692802,15.92058299
14.29785447,1.601720929,-16.37633896,2.877830505,16.70424784
14.30285878,5.372588634,-18.28930664,-3.306392431,19.34672264
14.30831193,7.417236805,-18.90461731,-7.886500359,21.78524375
14.31286978,6.981492043,-18.34676743,-9.844957352,21.96060772
14.31829293,4.256890774,-16.27099419,-8.956708908,19.05489452
14.3233267,2.245761156,-14.29098988,-6.99106884,16.06707435
14.3283314,1.053448796,-12.41633034,-4.939238071,13.40414436
14.33330524,0.490811348,-10.47463226,-2.983175278,10.90220856
14.3383104,0.2202665508,-9.533711433,-2.205059767,9.78787309
14.34331632,-0.3375824392,-8.942343712,-1.522712231,9.077341323
14.34831901,-1.211466074,-8.204929352,-0.9935936928,8.353187664
14.35332517,-2.04704237,-7.524975777,-0.7709329724,7.836452038
14.35833047,-2.655169725,-7.041347027,-0.7254431248,7.560209121
14.36330455,-3.615244627,-6.493074894,-0.6847416759,7.46316866
14.36786216,-4.371812344,-6.02381134,-0.6416460276,7.470659667
14.37331409,-4.65193367,-5.698200226,-0.6296750307,7.382849269
14.37832001,-4.709394932,-5.568912983,-0.6775590777,7.324635058
14.38332432,-4.551377296,-5.5042696,-0.6607996821,7.172773198
14.38832924,-3.806780815,-5.609614372,-0.6631938815,6.811694334
14.39330247,-3.052607059,-5.875370979,-0.605733037,6.648707131
14.39831047,-2.298433542,-6.141127586,-0.5626373887,6.581246509
14.40331378,-1.642422318,-6.502651691,-0.5315127969,6.727892385
14.40831847,-0.9696516991,-6.945579052,-0.691924274,7.046988859
14.41332309,-0.4740519226,-7.491456985,-0.8786720037,7.557692603
14.4183277,0.01197100803,-7.924807549,-1.027112484,7.991099927
14.42285501,0.3327940404,-8.295908928,-1.132457376,8.379458009
14.42830709,0.4812345505,-8.70771122,-1.216254473,8.805401542
14.43286432,0.4979939461,-8.937555313,-1.254561663,9.038905792
14.43786855,0.4764461517,-9.224859238,-1.362300754,9.337070859
14.44287478,0.3447650373,-9.344569206,-1.379060149,9.452070856
14.44829594,0.1101332754,-9.3685112,-1.30005157,9.458925178
14.45330032,-0.08140286058,-9.294290543,-1.261744261,9.379896678
14.45830524,-0.2896983922,-9.21528244,-1.261744261,9.305769941
14.4633107,-0.624886632,-9.131484985,-1.197100878,9.230793674
14.46786886,-1.067813993,-8.966285706,-0.8690952063,9.071374348
14.47332032,-1.477222443,-8.626308441,-0.4213795066,8.762017128
14.47832678,-1.824381709,-8.327033043,-0.2705447972,8.528835935
14.4833307,-2.051830769,-7.977479935,-0.3854664862,8.246137279
14.48830486,-2.188300371,-7.491456985,-0.4165911078,7.815633975
14.49330824,-2.15478158,-7.182605267,-0.3256114423,7.505925984
14.49786586,-2.109291792,-7.072471619,-0.1149216816,7.381204079
14.50331994,-1.963245392,-7.10599041,0.04070143029,7.372319091
14.50832424,-1.757344007,-7.304709435,-0.02394201607,7.513162523
14.51332924,-1.551442742,-7.582436562,-0.2250549644,7.742801078
14.51830309,-1.328781962,-7.912836552,-0.6129156351,8.047006237
14.5233077,-0.9504981041,-8.331821442,-1.347935557,8.493504898
14.52831286,-0.5937620401,-8.77235508,-2.032677174,9.02433064
14.53331786,-0.09816227108,-9.327810287,-2.777273893,9.732981602
14.53832332,0.3375824392,-9.959878922,-3.524264812,10.57041118
14.54288063,0.6967126727,-10.50575733,-4.13239193,11.31074749
14.54785386,1.010353088,-10.9247427,-4.443638325,11.83709162
14.5533067,1.194706678,-11.22401714,-4.446032524,12.13149167
14.55831478,1.292868972,-11.34133339,-4.108449936,12.13164103
14.56331717,1.309628367,-11.31978607,-3.416525841,11.89644199
14.56832155,1.175553083,-11.22162342,-2.817975283,11.62960627
14.5728797,0.8930372596,-11.04684639,-2.291250944,11.31725062
14.57785255,0.5698199868,-10.85770512,-1.972822189,11.05018021
14.58330609,0.2130839527,-10.76433086,-2.032677174,10.95664183
14.58831101,0.03830722719,-10.75954247,-2.169146776,10.97608397
14.59331655,-0.09337386489,-10.699687,-2.217030764,10.92736227
14.59832032,0.2537853718,-10.84573364,-2.497152328,11.13239035
14.60332578,0.8667010069,-10.94629002,-2.669534922,11.30039169
14.6083304,1.44849205,-10.99656868,-2.710236311,11.41788215
14.61285717,1.934514999,-11.09951878,-2.444479942,11.52896992
14.61830924,2.458845139,-11.27908421,-1.795651317,11.68280889
14.62331417,2.837129116,-11.76510715,-1.063025594,12.14895351
14.62831932,3.19865346,-12.25352383,-0.4501099288,12.67212804
14.63332394,3.462015629,-12.75151825,-0.1628057212,13.21413166
14.63832924,3.636792421,-13.30936718,-0.3136404157,13.80086534
14.64330278,3.629609823,-13.69243908,-0.6751648784,14.18142458
14.64830794,3.433285236,-14.02523327,-1.096544385,14.48091935
14.65286578,3.095702887,-14.30774975,-1.594538331,14.72540769
14.65787047,2.624045134,-14.61181259,-2.130839586,14.99770507
14.66284455,1.934514999,-14.92305946,-2.719813108,15.29174403
14.66784986,0.9265560508,-15.25345898,-3.423708439,15.66040537
14.6728547,0.1197100878,-15.43302441,-3.909731388,15.92101041
14.6783074,-0.7637503147,-15.52400398,-4.400542736,16.15372374
14.6833117,-1.254561663,-15.51442719,-4.458003521,16.19089779
14.68831724,-1.477222443,-15.42344761,-3.790021181,15.95083643
14.69332217,-1.534683347,-15.59104156,-3.229778051,15.99585247
14.6983267,-1.098938584,-15.81130791,-2.693476915,16.07668939
14.70333163,-0.6751648784,-15.93341255,-2.183511972,16.09649675
14.70785847,-0.5458779931,-15.89510536,-1.915361404,16.01939345
14.71331078,-0.7278373241,-15.67962646,-2.15478158,15.84372169
14.71831601,-1.055842996,-15.14093113,-2.355894566,15.35945439
14.72332024,-1.678335428,-14.71236992,-2.286462545,14.98327566
14.72832517,-2.710236311,-14.35084534,-1.63523972,14.69578687
14.73332924,-4.05577755,-13.59906578,0.3064578176,14.19428892
14.73830394,-4.730942726,-13.12501335,2.319981337,14.14320006
14.74330886,-5.195417881,-13.04121685,3.766079187,14.53440939
14.74786732,-5.485116005,-13.13937855,4.42209053,14.90921362
14.75287078,-5.908889771,-13.18486881,4.510675907,15.1361138
14.75829324,-6.607996464,-13.18486881,4.213795185,15.33826759
14.76332855,-7.20894146,-13.02445698,3.993528366,15.41277345
14.7683034,-7.632715225,-12.88080502,3.524264812,15.38160986
14.77286178,-8.046912193,-12.78503704,2.60010314,15.32874764
14.77786647,-8.456320763,-12.77785492,1.26413846,15.37468644
14.78286978,-7.831433773,-13.14895535,-0.6991068721,15.32041553
14.7882917,-6.900089264,-13.69483376,-2.013523579,15.46654391
14.7928797,-6.212953568,-14.32929707,-3.071760893,15.91745147
14.7983037,-5.851428986,-15.1529026,-3.742137194,16.66893126
14.80330709,-5.875370979,-15.49287891,-3.849876404,17.01090325
14.80831163,-5.925649166,-15.45936012,-3.82593441,16.99243678
14.81331601,-5.760449409,-15.15529633,-3.746925592,16.64046981
14.81832063,-5.231330872,-14.89432907,-3.359065056,16.13973913
14.8233274,-4.623203278,-14.50167942,-3.134010077,15.54010083
14.82833163,-3.931279182,-14.01805115,-2.425326347,14.75950277
14.83330524,-2.815581083,-13.41231823,-1.036689281,13.74381686
14.83830955,-0.720654726,-13.46020222,1.63763392,13.57859462
14.84331501,1.091755986,-13.67568016,3.445256233,14.14517407
14.84831994,2.755726099,-13.78341961,2.643198729,14.30255858
14.85332555,3.224989653,-13.37161636,1.209071875,13.80806059
14.85832947,3.148375273,-12.99572659,0.2801215947,13.37458951
14.86330371,2.841917515,-12.43787766,-0.9145850539,12.79115951
14.86830955,2.765302896,-11.71961689,-0.1532289088,12.04241667
14.87331347,2.482787132,-11.21683502,0.6847416759,11.5087137
14.87832186,2.00873518,-10.62786102,1.043871999,10.86628344
14.88287686,1.314416766,-9.880870819,1.271321058,10.04865945
14.88829786,0.5458779931,-9.040505409,1.812410712,9.236533626
14.89330309,0.1149216816,-8.315062523,2.075772762,8.571015361
14.89830801,-0.1628057212,-7.544129372,2.255337954,7.875718568
14.90331255,-0.6703764796,-6.586448669,2.324769735,7.016784522
14.90831694,-1.462857246,-5.451597214,2.260126352,6.080134426
14.91332217,-1.89620769,-4.786009312,2.401384354,5.680504868
14.91832709,-2.149993181,-4.254496574,2.554613113,5.408258494
14.92285532,-2.22900176,-3.746925592,2.45166254,5.001854602
14.92830709,-2.205059767,-3.248931646,2.099714994,4.452712485
14.93331109,-2.288856745,-3.01429987,1.659181833,4.132523836
14.93831694,-2.427720547,-2.932897091,1.091755986,3.960762999
14.94332086,-2.427720547,-2.930502892,0.7302315235,3.874908041
14.94832647,-2.475604534,-2.97599268,0.5506663918,3.91003628
14.9533314,-2.501940727,-3.040636063,0.4405331016,3.962227212
14.95830794,-2.540247917,-3.179499865,0.4381389022,4.093170479
14.96331132,-2.71502471,-3.217807055,0.3303998411,4.223127451
14.96831509,-2.762908697,-3.208230257,0.3040636182,4.244862841
14.97287255,-2.82276392,-3.16034627,0.4165911078,4.257855428
14.97784763,-2.782062292,-3.145981073,0.5219359994,4.231959912
14.98285201,-2.78924489,-3.107673883,0.6584054828,4.227413134
14.98785724,-2.731784105,-3.01429987,0.7182605267,4.130925597
14.99286155,-2.724601507,-2.908955097,0.7781155705,4.060903467
14.99786678,-2.837129116,-2.908955097,0.8834604025,4.15834386
15.00331963,-2.506729126,-2.762908697,0.921767652,3.842786877
15.0083234,-2.482787132,-2.705447912,1.031900883,3.81424957
15.01332855,-2.504334927,-2.698265314,1.125274777,3.849489895
15.01830332,-2.45166254,-2.71502471,1.177947283,3.843119591
15.02330855,-2.365471363,-2.710236311,1.096544385,3.760750619
15.02831347,-2.279279947,-2.734178305,0.9792284966,3.691847306
15.03331778,-2.025494576,-2.885013103,0.9433154464,3.649078365
15.03832517,-1.845929503,-3.021482468,0.8355764151,3.63799395
15.04332771,-1.81959331,-3.124433279,0.6488286853,3.673415549
15.04830147,-1.874659896,-3.193865061,0.3734954596,3.72217982
15.0533067,-2.051830769,-3.210624456,-0.08858546615,3.811294568
15.0583114,-2.049436569,-3.244143248,-0.605733037,3.88478676
15.06331686,-2.214636564,-3.34469986,-1.156399369,4.174792422
15.06832209,-2.30801034,-3.481169224,-1.982398987,4.623349071
15.07332586,-2.240972757,-3.584120035,-2.923320293,5.139423787
15.0783317,-1.889025092,-3.837905407,-4.307168961,6.070390281
15.08330555,-1.52510643,-4.244919777,-5.638344765,7.220541892
15.08786278,-1.180341482,-4.922478676,-7.297526836,8.881323114
15.09331478,-0.9074024558,-5.798756599,-8.971074104,10.72050036
15.09832032,-0.9002198577,-6.933608055,-10.66616821,12.75352739
15.10332548,-1.096544385,-7.929595947,-11.56399441,14.06438296
15.10833101,-1.18991828,-8.942343712,-12.6437788,15.5321138
15.11330432,-1.130063176,-9.950302124,-13.5368166,16.83837756
15.1183107,-1.592144132,-11.70525169,-14.04199314,18.35007933
15.12331386,-2.358288765,-13.49372101,-13.35725117,19.13264726
15.1283194,-2.626439333,-15.76821232,-11.83453941,19.88947024
15.13332424,-2.837129116,-18.72265816,-10.57040024,21.68687602
15.13832886,-4.106055737,-22.54380226,-11.06121159,25.44470703
15.1433034,-5.657498837,-25.07208061,-15.00685596,29.76276609
15.14830855,-6.689399719,-26.65704155,-20.4656353,34.26642907
15.15286617,-6.694188118,-26.90125084,-21.03306198,34.79768883
15.15787048,-7.204153061,-25.12475204,-18.43535233,31.98460883
15.16284463,-5.54257679,-20.57098007,-14.63096619,25.84473931
15.16784986,-3.318363667,-15.452178,-12.39957047,20.08807333
15.17330209,-0.07661445439,-10.16817474,-11.64300251,15.45823906
15.17830701,1.865083098,-4.821922302,-11.42752457,12.54263877
15.18331171,2.513911724,-1.716642618,-10.41717148,10.85283722
15.18831624,2.33913517,0.5291185975,-8.767566681,9.089650452
15.19332271,1.335964561,1.726219416,-6.806715488,7.148147349
15.19788055,-0.04548983276,1.256955862,-5.528211594,5.669491228
15.2028544,-2.856282711,-1.079784989,-4.407725334,5.362119839
15.20830648,-5.027823448,-3.67988801,-3.636792421,7.214349833
15.21331078,-7.13232708,-7.539340973,-2.863465309,10.76620571
15.21831509,-8.473079681,-10.79784966,-1.321599364,13.7888818
15.22332063,-9.579200745,-14.03002167,1.501164436,17.0545035
15.22787817,-10.15620327,-17.25501251,3.97916317,20.41366359
15.23329871,-9.617507935,-20.99475479,3.232172251,23.31787137
15.23830455,-7.635109425,-23.5493679,-0.356736064,24.75873351
15.24330894,-4.321534157,-25.29474068,-3.538630009,25.90408203
15.24831417,-0.6440402865,-25.03616714,-5.111620426,25.560773
15.25331901,3.857059002,-21.61006546,-4.235342979,22.35643003
15.25787748,5.339069843,-17.51119041,-2.53067112,18.48111882
15.26329871,4.357447147,-12.87362289,0.09097966552,13.59138659
15.2683034,0.9313444495,-7.977479935,5.573701382,9.776182061
15.27330832,-1.951274395,-3.351882458,8.576030731,9.412273417
15.27786671,-4.654327869,-1.474828243,6.660669327,8.258474565
15.28287048,-7.218518257,-0.4165911078,2.810792685,7.757648451
15.28829294,-9.385271072,0.1604115069,-3.392583847,9.980915294
15.29287994,-9.885659218,0.1221042871,-4.61362648,10.90993661
15.2983024,-8.6957407,-0.7829039693,-0.9768342972,8.785388448
15.30285871,-6.564900875,-2.161964178,2.523488522,7.357989326
15.30786463,-4.340687752,-3.888183594,4.429273129,7.319699602
15.31286978,-2.382230759,-5.880159378,5.461174011,8.371124135
15.31829101,-1.18752408,-8.264783859,7.970297337,11.54307175
15.32332609,-1.742978811,-9.662998199,10.61828423,14.4623466
15.3283314,-2.667140722,-10.87925243,12.33253288,16.6602263
15.33330524,-3.153163671,-11.61666679,12.08832455,17.05921976
15.33831109,-3.301604033,-12.18409252,10.48181534,16.40796004
15.34331532,-2.990357876,-12.88798809,8.942343712,15.96896954
15.34832032,-1.347935557,-14.34366226,6.698976517,15.88816741
15.35332517,0.383072257,-15.49287891,4.041412354,16.01590007
15.35788371,2.557007313,-16.81687355,-0.04070143029,17.01020808
15.36330494,4.685452938,-17.73385239,-4.79319191,18.95831423
15.36786148,5.439626217,-17.85116768,-7.685387611,20.18214319
15.37286709,4.79319191,-16.81687355,-8.916007042,19.62847692
15.3783194,3.545812607,-15.23909378,-7.371747017,17.29582089
15.38332424,2.296039343,-13.55836391,-4.865017891,14.58661811
15.38832917,1.666364431,-11.81777954,-3.524264812,12.44416032
15.39285571,1.209071875,-10.76433086,-2.782062292,11.1835837
15.39830794,0.7805097699,-9.916783333,-2.164358377,10.18018833
15.40286486,0.2681505978,-9.200917244,-1.489193439,9.324509637
15.40831748,-0.538695395,-8.468291283,-0.8307880163,8.525981392
15.41332248,-1.326387763,-7.915230751,-0.4716577232,8.039442975
15.41832671,-2.214636564,-7.462726593,-0.2753331959,7.789269008
15.42330148,-3.090914488,-7.034164429,0.4525041282,7.696621438
15.4283074,-3.711012602,-6.737283707,0.1364694983,7.692933784
15.43286555,-4.295197964,-6.50983429,-0.7254431248,7.832811485
15.43831717,-4.599261284,-6.275202751,-1.273715258,7.883763345
15.44332248,-4.551377296,-6.20337677,-1.754949808,7.891563056
15.44832648,-3.90254879,-6.296750546,-1.742978811,7.610317314
15.45333132,-3.201047659,-6.411672115,-1.728613615,7.371862075
15.45830555,-2.825158119,-6.481103897,-2.102109194,7.375980558
15.46331048,-2.501940727,-6.615179062,-2.094926596,7.376246936
15.46831509,-2.051830769,-6.830657482,-1.807622313,7.357675555
15.47332001,-1.479616642,-7.108384609,-1.606509328,7.436347852
15.47832555,-0.7685387731,-7.402871609,-1.441309452,7.580932188
15.48332986,-0.3303998411,-7.673416615,-1.398213744,7.80675914
15.48830455,-0.05027823523,-7.785943985,-1.319205165,7.89707249
15.49330948,0.08379705995,-7.886500359,-1.158793569,7.971619182
15.4983144,0.07661445439,-8.204929352,-1.221042871,8.295642298
15.5033194,0.1029506698,-8.372523308,-1.213860273,8.460685678
15.50832332,0.1316810995,-8.374917984,-1.15400517,8.455076527
15.51332863,0.1556231081,-8.382100105,-1.197100878,8.468581418
15.51830494,0.08140286058,-8.461109161,-1.30005157,8.560790194
15.5233074,-0.04309562966,-8.489839554,-1.268926859,8.584253506
15.52831317,-0.1963245422,-8.46589756,-1.137245774,8.544196438
15.53331717,-0.4764461517,-8.418013573,-0.9074024558,8.480172915
15.53832278,-0.8595184088,-8.29830265,-0.5410895944,8.360225877
15.54332771,-1.197100878,-8.171410561,-0.2992752194,8.264052681
15.54830178,-1.537077546,-8.006210327,-0.0359130241,8.15250274
15.55330732,-1.78128612,-7.80509758,0.1244984865,8.006748925
15.55831109,-2.015917778,-7.520187378,0.1699883193,7.787556659
15.56286917,-2.138022184,-7.28555584,0.1795651317,7.594913192
15.56829132,-2.248155355,-7.13232708,0.2059013397,7.481088653
15.57332701,-2.260126352,-7.077260017,0.3375824392,7.437051996
15.57833163,-2.054224968,-7.108384609,0.6081272364,7.424203035
15.58330617,-1.862688899,-7.264008045,0.7062895298,7.532215326
15.58786394,-1.668758631,-7.472303391,0.5243301988,7.674307492
15.59331478,-1.381454349,-7.702147007,0.03112462163,7.825116828
15.59832209,-1.106121182,-8.111555099,-0.6847416759,8.215211584
15.60332578,-0.9074024558,-8.497021675,-1.529894829,8.681205835
15.60833078,-0.6105214357,-8.939949036,-2.513911724,9.306727531
15.61330486,-0.2274491638,-9.488221169,-3.67988801,10.17937374
15.61830886,0.09576806426,-9.840168953,-4.280832767,10.73143167
15.62331378,0.3016694188,-10.12268448,-4.402936935,11.04289813
15.62831848,0.4644751251,-10.37168217,-4.156333923,11.18314087
15.63332332,0.4118026793,-10.71644688,-3.409343243,11.25324115
15.63832925,0.3256114423,-10.9295311,-2.640804529,11.24875644
15.64330278,0.05267243832,-11.08036518,-1.78368032,11.22313603
15.64830763,-0.2681505978,-11.24795914,-1.283292055,11.32410385
15.65331263,-0.6009446383,-11.37485218,-1.26653266,11.4609119
15.65831786,-0.7230489254,-11.53765774,-1.843535304,11.70636443
15.66287478,-0.5698199868,-11.69806957,-2.67432332,12.01338969
15.66829663,-0.215478152,-11.81299114,-3.402160645,12.29503508
15.67330209,0.605733037,-11.77229023,-4.024652958,12.45598495
15.67830978,1.364694953,-11.63821411,-4.079719543,12.40784154
15.68331294,2.061407566,-11.49216843,-3.670311213,12.23889377
15.68786925,2.578555346,-11.55441761,-3.007117271,12.21459243
15.69329071,3.294421434,-11.65018559,-1.824381709,12.24370881
15.6983264,3.746925592,-11.8824234,-0.9792284966,12.4976128
15.70333163,4.156333923,-12.27746677,-0.4453215301,12.96956489
15.70830525,4.436455727,-12.6389904,-0.04309562966,13.39507652
15.71286301,4.508281708,-13.06515884,-0.08858546615,13.8213902
15.71831478,4.455609322,-13.5368166,-0.7086837292,14.26885036
15.72287286,4.254496574,-13.89834118,-1.63763392,14.62690923
15.7282944,3.751713991,-14.41788292,-3.059789658,15.20897822
15.73288186,3.236960649,-14.73631191,-3.727771997,15.54133479
15.73785748,1.960851192,-15.17444992,-4.359841347,15.90965381
15.7428624,0.8571242094,-15.33725643,-4.417302132,15.98369966
15.74786709,-0.09576806426,-15.36838055,-4.592078686,16.04005857
15.7533184,-0.9792284966,-15.06192303,-4.247313976,15.67992633
15.75787755,-1.297657371,-14.84165668,-3.859453201,15.3900639
15.76285109,-1.381454349,-14.75307083,-3.311181068,15.18306409
15.76785725,-1.161187768,-14.75785923,-2.808398485,15.06751035
15.77330802,-0.6871358752,-14.8584156,-2.437297344,15.07266029
15.77831348,-0.1292868853,-14.97812557,-2.200271368,15.13942386
15.7833184,0.1604115069,-14.90151119,-1.872265697,15.01952551
15.78832248,-0.1771709323,-14.44421864,-1.280897856,14.50198403
15.79332732,-0.8403648138,-14.05396366,-0.739808321,14.09849013
15.79830209,-1.800439715,-13.78341961,-0.2130839527,13.9021453
15.80330702,-3.055001259,-13.59906578,0.2896983922,13.9410024
15.80786463,-3.493140221,-13.84088039,0.9313444495,14.30522286
15.81286886,-4.189853191,-14.36999893,1.999158382,15.10127059
15.81832248,-4.972756863,-14.76025391,3.102885485,15.88147677
15.82332648,-5.916072369,-15.10741234,4.393360138,16.80879035
15.82833163,-6.646304131,-15.12177753,5.300762653,17.34761076
15.83330617,-7.433996201,-15.07628822,5.710171223,17.75288206
15.83831232,-7.874529362,-15.05473995,5.164293289,17.75734588
15.84331563,-8.951920509,-15.12417221,3.689464808,17.95799589
15.84832025,-9.787496567,-15.23430538,2.207453966,18.24149124
15.85332517,-10.39083576,-15.5647049,0.4261679053,18.7192715
15.85833009,-10.15859795,-16.14649582,-1.467645645,19.13270559
15.86330432,-9.3685112,-16.85757446,-3.035847664,19.52340108
15.86830955,-8.599972725,-17.16403198,-3.588908434,19.53058597
15.87331409,-7.886500359,-17.19276237,-3.921702385,19.31754942
15.87831878,-7.390900612,-16.81447792,-3.921702385,18.78115623
15.88332394,-6.497863293,-15.95974827,-3.981557369,17.68583024
15.88832886,-5.396530628,-15.27740097,-3.837905407,16.65085707
15.89330271,-4.446032524,-14.53759289,-3.05021286,15.50524462
15.89830732,-3.830722809,-13.68286228,-2.573766708,14.44020196
15.90331355,-2.731784105,-12.89756489,-1.204283476,13.23858463
15.9083184,-0.5099649429,-12.92150688,2.226607561,13.12185907
15.91332271,1.508347034,-13.05797577,4.292803764,13.82801526
15.91788155,3.423708439,-13.23035812,4.343081951,14.33968327
15.92285502,4.12999773,-12.8401041,2.420537949,13.70343601
15.92830771,4.101267338,-12.48815632,0.5913678408,13.15766537
15.93331171,4.211400986,-12.30859089,-0.2585737705,13.01169352
15.93831655,3.75650239,-11.82735634,-0.6416460276,12.426157
15.94332155,2.947262287,-11.312603,-0.5075707436,11.70123795
15.94832671,2.446874142,-10.79784966,0.1987187415,11.07340234
15.95333132,1.958456993,-10.38604736,1.084573388,10.62458625
15.95830578,1.206677675,-9.787496567,1.651999116,9.999013008
15.96331048,0.6847416759,-9.301473618,1.850717902,9.508493013
15.96831471,0.1699883193,-8.588001251,1.917755604,8.801161746
15.97332094,-0.2944868207,-7.809885979,2.075772762,8.086400562
15.97832486,-0.85473001,-6.732495308,2.066195965,7.094097703
15.98333017,-1.419761658,-5.815515995,1.958456993,6.298531833
15.98830432,-1.874659896,-4.958391666,2.018311977,5.672176027
15.99330948,-2.360682964,-4.218583584,1.862688899,5.180625584
15.99831509,-2.710236311,-3.574543238,1.649604917,4.779533094
16.00331848,-2.798821688,-3.210624456,1.41018486,4.486661741
16.00832394,-2.79163909,-2.980781078,1.259350061,4.273671398
16.01332855,-2.808398485,-2.849100113,1.098938584,4.148751561
16.01785563,-2.894589901,-2.738966703,0.8283938169,4.070236555
16.02286055,-3.071760893,-2.734178305,0.6584054828,4.164726133
16.02786548,-3.186682463,-2.655169725,0.6440402865,4.197577787
16.03287048,-3.296815634,-2.518700123,0.6464344859,4.198895233
16.03829225,-3.454833031,-2.387019157,0.691924274,4.255877222
16.04332678,-3.505111217,-2.33913517,0.8427590132,4.297394646
16.04830271,-3.500322819,-2.30561614,0.9744400978,4.303214976
16.05330648,-3.445256233,-2.243366957,1.223437071,4.289438667
16.0583114,-3.373430252,-2.248155355,1.41018486,4.2921854
16.06331694,-3.347094059,-2.274491549,1.592144132,4.348709392
16.06787409,-3.222595453,-2.336740971,1.735796213,4.342633799
16.07329655,-3.124433279,-2.312798738,1.8579005,4.308470214
16.07788517,-3.076549292,-2.30801034,1.922544003,4.29979566
16.0828584,-3.033453465,-2.375048161,1.977610588,4.330547001
16.0883114,-2.8969841,-2.463633537,1.936909199,4.267742299
16.09331478,-2.624045134,-2.614468336,1.78368032,4.111273893
16.09832025,-2.45166254,-2.767697096,1.59693253,4.027529011
16.10332548,-2.355894566,-2.908955097,1.33835876,3.975356982
16.10833071,-2.26970315,-3.028665066,1.096544385,3.940402779
16.11330371,-2.190694571,-3.169923067,0.7924807668,3.933901463
16.11830832,-2.171540976,-3.246537447,0.4213795066,3.928505605
16.12286732,-2.166752577,-3.292027235,-0.1508347094,3.943984173
16.12787194,-2.130839586,-3.313575268,-0.7661445141,4.013382092
16.13284648,-2.049436569,-3.375824451,-1.441309452,4.204016403
16.13785132,-1.963245392,-3.459621429,-2.468421936,4.681497598
16.14285594,-1.848323703,-3.562572241,-3.390189648,5.253723187
16.14830763,-1.829170108,-3.708618402,-4.474762917,6.092882479
16.15331263,-1.881842494,-4.019864559,-5.863399982,7.353917432
16.1583184,-1.884236693,-4.314351559,-6.969521046,8.410600507
16.1633234,-1.754949808,-4.783615112,-7.948749542,9.441686378
16.16788032,-1.568202138,-5.492298603,-8.726864815,10.42989796
16.17330186,-1.462857246,-6.557718277,-9.998186111,12.04605105
16.17830702,-0.9744400978,-7.532158375,-10.93671322,13.31520331
16.18331194,-0.07661445439,-8.664615631,-11.23359394,14.18714441
16.18831632,0.4357447028,-10.22084713,-10.74278259,14.83451945
16.19332209,0.02633621916,-11.85369301,-10.18732834,15.62985573
16.19832671,-0.6320692301,-13.65413189,-10.04846478,16.96485996
16.20333171,-1.496376038,-15.93341255,-10.69729328,19.24954182
16.20830578,-2.480392933,-19.27092934,-12.6485672,23.18420408
16.2128634,-3.375824451,-21.40416336,-15.7562418,26.79166952
16.21786832,-3.639186621,-24.56211472,-18.69392776,31.08060639
16.22287294,-2.966415882,-25.48867035,-19.06981659,31.97076546
16.22829502,-2.126051188,-24.15031242,-16.68997955,29.43319727
16.23288248,-0.9744400978,-21.52387238,-13.99410915,25.69166609
16.23830555,-0.5482721925,-17.88708115,-12.30380249,21.71708613
16.24331017,-0.2394201756,-13.80496693,-11.75313568,18.13203332
16.24831386,0.5363011956,-8.698134422,-11.9566431,14.79548836
16.25332025,1.185129881,-5.260061264,-11.81059742,12.98318099
16.25787717,1.472434044,-2.738966703,-10.77151299,11.21140012
16.26329786,1.307234168,-1.316810966,-9.210494041,9.395533661
16.2683034,0.2657563984,-1.362300754,-7.378929615,7.50833484
16.27330794,-1.252167463,-2.770091295,-6.643909931,7.306358075
16.27831317,-3.057395458,-4.809951305,-5.813121796,8.140987874
16.28331817,-4.939238071,-7.680599213,-3.34230566,9.724128964
16.28832271,-5.983109951,-9.940725327,-0.03351882473,11.60244579
16.29332794,-8.068459511,-12.10747814,3.881000996,15.05832775
16.29830248,-10.31900978,-14.27901936,6.493074894,18.77584561
16.30330648,-11.59511852,-17.00122643,7.280767441,21.82883524
16.30831132,-11.59033012,-19.53429222,5.597643375,23.39354476
16.31286925,-10.82658005,-22.22058678,2.470816135,24.84097914
16.31832363,-9.186552048,-24.57408714,-0.6488286853,26.24308435
16.32332648,-5.837063789,-25.73048592,-3.622427225,26.63177047
16.32833102,-2.449268341,-24.16467857,-6.794744492,25.2210063
16.33285848,0.5003881454,-21.02587891,-9.62469101,23.12947576
16.33831048,1.685518026,-17.28853035,-7.232883453,18.816186
16.34331602,0.2944868207,-11.018116,3.663128614,11.61482302
16.34831994,-0.8834604025,-6.294356346,8.753201485,10.81748401
16.35332525,-2.724601507,-3.306392431,7.491456985,8.630041254
16.35833009,-4.65193367,-1.484405041,4.110844135,6.383023163
16.36330525,-6.54574728,-0.1149216816,-0.1221042871,6.547894616
16.36830832,-6.526593685,0.07661445439,-1.335964561,6.662364161
16.37331409,-5.231330872,-0.14844051,-0.05027823523,5.233677978
16.37831932,-2.875436306,-0.8379706144,2.468421936,3.881164201
16.38332309,-1.304839969,-2.250549555,4.90811348,5.554922013
16.38832894,-0.2561795712,-3.629609823,6.35660553,7.324351801
16.39330248,0.3399766386,-5.121197224,8.07324791,9.566586483
16.39830948,-0.1987187415,-6.87614727,10.98220348,12.95876861
16.40331294,-1.256955862,-8.336610794,13.06037045,15.54516947
16.40831717,-2.396595955,-9.746794701,13.9151001,17.15732176
16.41332309,-2.786850691,-11.018116,13.37640476,17.55259586
16.41832802,-2.841917515,-12.37084007,11.48738003,17.11940651
16.42330278,-2.310404539,-13.38119316,9.402029991,16.51643023
16.42830678,-1.302445769,-14.46576691,6.821080685,16.04624314
16.43331202,0.181959331,-15.51203251,2.803610086,15.76440583
16.43831594,3.318363667,-17.02995682,-5.410895824,18.17439848
16.44332063,5.667075634,-17.84877396,-10.10592556,21.27966657
16.44832648,6.210559368,-17.74582291,-11.16655636,21.86726456
16.45333048,4.936843872,-16.75222969,-9.655815125,19.95606155
16.45830671,2.93529129,-14.86559868,-6.449979305,16.46827836
16.46331017,1.632845521,-13.46020222,-4.000710964,14.136793
16.46831571,0.7541735172,-12.16733265,-2.60010314,12.46488258
16.47332002,-0.05267243832,-11.07797146,-1.853112102,11.23201899
16.47832702,-1.019929886,-9.87608242,-1.259350061,10.00815785
16.48333009,-1.640028119,-9.076418877,-1.079784989,9.28638829
16.48785786,-2.092532396,-8.42759037,-0.9457096457,8.734834744
16.4928624,-2.683900118,-7.762001991,-0.7709329724,8.249020087
16.49786763,-3.572149038,-6.993463039,-0.7278373241,7.886603908
16.50287132,-4.762067318,-6.145915985,-0.6967126727,7.806085894
16.50829286,-5.391742229,-5.631162167,-0.7637503147,7.833529611
16.51332917,-5.494692802,-5.372588634,-0.7278373241,7.719203638
16.51830309,-5.784391403,-5.114014626,-1.130063176,7.803164248
16.52330794,-5.676652431,-5.070919037,-1.474828243,7.75330388
16.52786556,-5.130774021,-5.245696068,-1.467645645,7.483057733
16.53287017,-4.376600742,-5.413290024,-1.63523972,7.15068891
16.53829225,-3.330334663,-5.743690014,-1.551442742,6.818216668
16.54332771,-2.425326347,-6.160281181,-1.37666595,6.762135851
16.54830156,-1.551442742,-6.631938934,-1.11569798,6.901765759
16.55330679,-0.6607996821,-7.163451672,-0.7038952708,7.228220018
16.55831317,-0.1005564705,-7.58722496,-0.5147533417,7.605331367
16.56331694,0.4094084799,-7.991845131,-0.4596867263,8.015517188
16.56832179,0.8212111592,-8.398859978,-0.5746083856,8.458452074
16.57332556,1.065419793,-8.894459724,-0.8595184088,8.999183575
16.57833132,1.182735682,-9.196128845,-0.9648633003,9.321942427
16.58330579,1.26653266,-9.437943459,-1.055842996,9.580902157
16.58831079,1.273715258,-9.619902611,-1.163581967,9.773371977
16.59331509,1.156399369,-9.684545517,-1.101332784,9.815325531
16.59832063,1.010353088,-9.646238327,-1.017535686,9.752235954
16.60331146,0.7015010715,-9.538499832,-0.8882488012,9.605418717
16.60831546,0.2466027737,-9.315838814,-0.5817909837,9.337245123
16.61329016,-0.181959331,-8.980650902,-0.3423708379,8.989016498
16.61829569,-0.5003881454,-8.638279915,-0.2609679997,8.65669524
16.62330008,-0.8116343617,-8.410830498,-0.390254885,8.458907664
16.62830462,-1.079784989,-8.154650688,-0.6871358752,8.254478735
16.63330931,-1.283292055,-7.838616371,-0.9959878922,8.005169392
16.63831662,-1.326387763,-7.661445618,-1.101332784,7.85302409
16.64328954,-1.381454349,-7.560888767,-1.101332784,7.764559805
16.64829323,-1.331176162,-7.539340973,-1.039083481,7.726149543
16.65329846,-1.247379065,-7.580042362,-0.9792284966,7.744151677
16.65830308,-1.072602391,-7.793126583,-0.940921247,7.922665626
16.66331046,-0.9193734527,-8.078036308,-1.022324085,8.194209216
16.66831331,-0.7781155705,-8.43956089,-1.118092179,8.548788334
16.67328739,-0.5243301988,-8.851364136,-1.122880578,8.937697131
16.67829169,-0.1867477298,-9.43315506,-1.237802267,9.515852224
16.68285046,-0.01675941236,-9.794678688,-1.357512355,9.888318931
16.68830223,0.2777273953,-10.38125896,-1.575384736,10.50378538
16.69285939,0.3639186621,-10.69729328,-1.668758631,10.83278707
16.69783446,0.4141969085,-10.91755962,-1.754949808,11.06546502
16.70328808,0.3974374831,-10.99178028,-1.829170108,11.15002482
16.70829146,0.3806780577,-10.89601231,-1.963245392,11.07801121
16.713296,0.2657563984,-10.69250488,-2.197877169,10.91929261
16.71830246,0.1699883193,-10.42435455,-2.456450939,10.71121912
16.72285854,0.0143652102,-10.11789608,-2.801215887,10.49851599
16.72783292,-0.1891419291,-9.938331604,-3.08373189,10.40747866
16.73283823,-0.4764461517,-9.87608242,-3.282450438,10.41818054
16.73828923,-0.5793967843,-9.931148529,-3.385401249,10.50829926
16.74284739,-0.5027823448,-10.01015759,-3.502717018,10.61720639
16.74785208,-0.4501099288,-10.0508585,-3.442862034,10.6337037
16.75330346,0.0191536136,-10.3357687,-3.090914488,10.78805978
16.75786123,0.5793967843,-10.58716011,-2.571372509,10.91034447
16.76328462,1.221042871,-10.85770512,-1.910573006,11.09193379
16.76828862,2.018311977,-11.21922874,-1.18752408,11.46101611
16.77329331,2.645592928,-11.45864964,-0.6464344859,11.77784747
16.7778517,3.090914488,-11.83453941,-0.3375824392,12.2361774
16.78330531,3.368641853,-12.31337929,-0.390254885,12.77181883
16.78830777,3.617638826,-12.82095051,-0.7086837292,13.34040161
16.79331331,3.574543238,-13.38119316,-1.11569798,13.89526796
16.79828954,3.447650433,-13.68765068,-1.640028119,14.21012902
16.80329323,3.117250681,-13.89355278,-2.08295536,14.3905095
16.80784931,2.7533319,-14.05396366,-2.394201756,14.51988062
16.81330192,2.188300371,-14.31014347,-2.695871115,14.72537218
16.81830739,1.534683347,-14.54238129,-2.784456491,14.885876
16.823313,0.7685387731,-14.7698307,-2.736572504,15.04085702
16.82828585,-0.0287304204,-14.89911747,-2.846705914,15.1686605
16.83329046,-0.9289502501,-14.99967384,-3.246537447,15.37508274
16.83829539,-1.426944256,-14.91348267,-3.318363667,15.34469526
16.84330008,-1.441309452,-14.87517548,-3.145981073,15.27237425
16.84830616,-1.254561663,-15.06910515,-3.220201254,15.46032183
16.85331046,-0.962469101,-15.27261257,-3.229778051,15.64002902
16.85831546,-0.5770025849,-15.45457172,-2.801215887,15.7169822
16.86329146,-0.1915361285,-15.44978333,-2.149993181,15.59983851
16.86829485,0.1364694983,-15.27979565,-1.544260144,15.35823943
16.8733,0.007182605099,-14.92066479,-0.8786720037,14.94651644
16.87830623,-0.8307880163,-14.49689102,-0.1628057212,14.52158957
16.88331108,-1.522712231,-14.46576691,0.538695395,14.55566067
16.88831508,-2.355894566,-14.50646782,1.474828243,14.77034076
16.89328831,-3.098097086,-14.70758057,2.473210335,15.23246208
16.8982927,-3.90254879,-14.91827106,3.428496838,15.79681263
16.90330031,-5.169081688,-15.07628822,4.402936935,16.53480347
16.90830377,-6.361393929,-15.05234623,4.927267075,17.06805263
16.91330862,-7.462726593,-15.02840424,5.207388878,17.56878257
16.918313,-8.243236542,-15.03798103,5.094861031,17.88992541
16.9232877,-9.045293808,-15.08825874,4.065354347,18.05547003
16.928293,-9.639056206,-15.14093113,2.597708941,18.13580138
16.93329754,-10.18493366,-15.38274574,0.7038952708,18.46231862
16.93830154,-10.09874249,-15.7658186,-1.240196466,18.76389413
16.94330777,-9.567230225,-16.14649582,-2.794033289,18.9749267
16.948312,-8.918401718,-16.55351067,-3.588908434,19.1425408
16.9533167,-8.489839554,-16.72589302,-3.588908434,19.09746414
16.958293,-8.010998726,-16.52478027,-3.572149038,18.70841288
16.96329693,-7.635109425,-15.94059467,-3.507505417,18.0194353
16.96830062,-7.347805023,-14.94939518,-3.426102638,17.00625868
16.97285846,-6.897695065,-14.28620148,-3.411737442,16.22694371
16.97783239,-5.590460777,-13.39795303,-3.026270866,14.82958909
16.98328585,-4.788403511,-12.73475838,-3.01190567,13.93464943
16.98829054,-4.156333923,-12.14339066,-2.437297344,13.06435864
16.99329423,-2.370259762,-11.9566431,1.027112484,12.23251428
16.99830039,0.5219359994,-12.54322243,5.116408825,13.5566399
17.00330554,2.839523315,-12.89756489,5.815515995,14.43018707
17.00830985,4.335899353,-13.03164005,3.574543238,14.19158289
17.01331423,4.692635536,-12.79222012,0.6607996821,13.64178801
17.01828862,4.541800499,-12.58152962,-0.1628057212,13.37719496
17.02329485,4.513070107,-12.37562847,-0.4309563041,13.17989777
17.02829823,4.000710964,-11.92312431,-0.3040636182,12.58010478
17.03330346,3.579331636,-11.42513084,0.215478152,11.9746257
17.03830923,3.026270866,-10.73560047,0.9504981041,11.19441287
17.04286623,2.312798738,-10.16817474,1.44849205,10.52800764
17.04783939,1.544260144,-9.495404243,1.850717902,9.796560513
17.05329239,0.8427590132,-8.599972725,2.130839586,8.900014099
17.05829754,-0.1987187415,-7.16824007,2.312798738,7.534732434
17.06330246,-0.9457096457,-6.047753334,2.482787132,6.605597556
17.06830746,-1.462857246,-5.049371243,2.734178305,5.925523797
17.07331323,-1.97042799,-4.079719543,2.743755102,5.296686708
17.07828654,-2.310404539,-3.282450438,2.578555346,4.770890659
17.0832917,-2.614468336,-2.466027737,2.056619167,4.140823575
17.08829608,-2.863465309,-2.011129379,1.766920805,3.919959705
17.09285262,-3.043030262,-1.757344007,1.565807939,3.847082744
17.09785846,-3.275267839,-1.675941229,1.395819545,3.93503121
17.10328193,-3.303998232,-1.496376038,1.307234168,3.855438591
17.10831639,-3.282450438,-1.395819545,1.273715258,3.787498335
17.11328962,-3.263296843,-1.443703651,1.156399369,3.751085978
17.11829662,-3.222595453,-1.697489023,1.034295082,3.786338172
17.12330185,-3.035847664,-1.987187386,0.7733271718,3.709894831
17.1283037,-2.815581083,-2.430114746,0.6009446383,3.767504343
17.13330954,-2.554613113,-2.755726099,0.5219359994,3.793743755
17.13831423,-2.427720547,-2.956839085,0.4979939461,3.858072368
17.14328831,-2.461239338,-3.189076662,0.691924274,4.08737914
17.14829323,-2.501940727,-3.256114244,0.895431459,4.202830579
17.15285077,-2.559401512,-3.191470861,1.070208192,4.228636652
17.1583037,-2.640804529,-3.126827478,1.460463047,4.34555531
17.16330893,-2.710236311,-3.066972494,1.606509328,4.396882232
17.16831385,-2.748543501,-2.954444885,1.726219416,4.38897134
17.17284008,-2.770091295,-2.8969841,1.752555609,4.374628421
17.17784431,-2.631227732,-2.786850691,1.668758631,4.180269312
17.18329793,-2.48996973,-2.762908697,1.544260144,4.027201649
17.18830162,-2.353500366,-2.7533319,1.422155857,3.891314406
17.19330593,-2.279279947,-2.815581083,1.204283476,3.817448442
17.19831262,-2.315192938,-2.856282711,0.9145850539,3.788790715
17.203317,-2.358288765,-2.889801502,0.5267243981,3.766950652
17.20829147,-2.422932148,-2.942473888,0.07900865376,3.812478871
17.21329539,-2.571372509,-3.069366693,-0.7900865674,4.08132396
17.21830123,-2.671929121,-3.222595453,-1.769315004,4.544755468
17.22330623,-2.52827692,-3.478775024,-2.86107111,5.165248082
17.22831077,-2.224213362,-3.835511208,-3.804386616,5.84222807
17.23331516,-1.841141105,-4.242525578,-4.71657753,6.605673882
17.23829016,-1.41257906,-4.79319191,-5.98550415,7.797200024
17.24329631,-1.355118155,-5.272032261,-7.225700855,9.046624908
17.24829947,-1.719036818,-5.83466959,-8.46589756,10.42448456
17.25330439,-2.149993181,-6.50744009,-9.607931137,11.80176207
17.25786223,-2.743755102,-7.28316164,-10.6446209,13.18637894
17.2632837,-3.473986626,-8.374917984,-11.63342571,14.74938738
17.26828839,-3.962403774,-9.366117477,-11.81059742,15.58573103
17.27329293,-4.38617754,-10.29027843,-11.32936287,15.92114464
17.27830039,-4.431667328,-11.29105568,-10.23760605,15.87249795
17.28330431,-4.27125597,-12.9382658,-9.18894577,16.43408269
17.288308,-4.283226967,-14.67166805,-9.107542992,17.79188624
17.29286523,-4.529829502,-16.7234993,-10.16099167,20.08582923
17.29784008,-4.5370121,-19.07939339,-13.33809757,23.71734761
17.30284493,-4.05338335,-21.72738075,-18.12650108,28.58459432
17.30829731,-1.74776721,-24.57169151,-21.70343781,32.83080758
17.31330254,0.8379706144,-24.93800545,-20.39620399,32.22749522
17.31830562,3.746925592,-23.76963425,-16.3212738,29.07608884
17.3233127,4.826710701,-20.7601223,-13.03882217,24.98580993
17.32828554,5.147533417,-15.5359745,-11.54484081,20.02865331
17.33329054,5.025429249,-10.97741508,-12.29662037,17.23268562
17.33829639,5.070919037,-7.115567684,-13.39076996,15.98931654
17.34330154,4.584896088,-4.42209053,-13.69722748,15.10596562
17.34830616,3.742137194,-2.442085743,-12.15775585,12.95293021
17.35331046,2.681505919,-2.133233786,-10.18493366,10.74588452
17.35831639,1.15400517,-3.143586874,-8.487444878,9.124175958
17.36329231,-0.8020575643,-4.728548527,-6.847416878,8.359999127
17.36829454,-2.355894566,-6.296750546,-4.517858505,8.100021735
17.3733,-3.737348795,-8.078036308,-0.2609679997,8.904524182
17.37830347,-5.410895824,-9.54807663,3.332728863,11.46955285
17.38331024,-7.012616634,-11.19528675,5.868188381,14.45499472
17.38831446,-8.185775757,-13.03403378,6.99106884,16.90467405
17.39328777,-9.033323288,-15.49048519,6.777985096,19.170215
17.39829239,-9.165003777,-17.87989807,5.973533154,20.96118192
17.40330008,-8.549694061,-20.40817451,4.302380562,22.54110321
17.4078567,-7.259219646,-22.6754837,1.436521053,23.85240918
17.41283047,-5.741295815,-23.84624863,-2.171540976,24.62359928
17.41828216,-2.013523579,-22.94124031,-7.493851185,24.218022
17.42328739,0.2346317619,-20.08495712,-10.54166985,22.68451802
17.42784524,-0.007182605099,-16.01721001,-6.983886242,17.47357247
17.43329639,-1.910573006,-11.09233665,1.288080573,11.32913824
17.43830377,-4.086902142,-6.414066315,5.513846397,9.393908553
17.443308,-5.717353821,-4.247313976,3.241749048,7.825391212
17.44831231,-8.221688271,-2.130839586,-0.720654726,8.52384764
17.45328685,-9.859322548,-0.4357447028,-4.249708176,10.74505161
17.45784408,-9.751583099,0.4309563041,-4.335899353,10.68078272
17.46329631,-7.575253963,0.1675941199,0.0287304204,7.577162123
17.46785293,-5.640739441,-0.605733037,3.191470861,6.509250357
17.47330554,-3.921702385,-1.704671621,5.406107426,6.89286968
17.47831085,-2.406172752,-3.11964488,6.758831501,7.823276472
17.48331762,-0.5123591423,-5.147533417,9.919178009,11.18703287
17.48829047,-0.3519476354,-6.756437302,12.97417927,14.63224657
17.49329454,-1.400607944,-8.173804283,14.67166805,16.85320808
17.49829885,-2.853888512,-9.380482674,14.70758057,17.67628527
17.50285693,-3.275267839,-10.50575733,14.00368595,17.81015263
17.50783108,-3.253720045,-11.51611042,12.68926907,17.44204812
17.51328408,-3.033453465,-12.70363426,10.39801788,16.69439844
17.51829077,-2.513911724,-13.75947762,8.231265068,16.22950095
17.52329416,-1.156399369,-15.07628822,5.252878666,16.00701285
17.52829854,2.073378563,-17.06108093,-2.128445387,17.31790002
17.53330254,5.521028996,-18.74420547,-11.47062016,22.65837873
17.53830747,6.557718277,-19.19910431,-14.91348267,25.1797784
17.54331424,5.212177277,-18.13607788,-12.98375607,22.90550227
17.54828677,3.311181068,-15.80891418,-7.496245384,17.80672296
17.55329116,1.97042799,-13.86003399,-3.617638826,14.45926828
17.55829693,1.230619669,-12.24394703,-1.733402014,12.42712139
17.56330316,1.134851575,-10.9989624,-1.000776291,11.10254994
17.56830654,0.8786720037,-10.07719517,-0.6272808313,10.13486103
17.57331177,-0.007182605099,-9.047688484,-0.2442085743,9.050986484
17.57828562,-0.8667010069,-8.279149055,-0.05746084079,8.324588967
17.58329324,-1.59693253,-7.575253963,0.1891419291,7.744058418
17.58829539,-2.784456491,-6.713341713,-0.07422025502,7.268264136
17.59330093,-3.79241538,-5.820304394,-0.3687070608,6.956601365
17.59830808,-4.299986362,-5.329493046,-0.4548983276,6.862966657
17.60331116,-5.066130638,-4.924872875,-0.5793967843,7.089129221
17.6083157,-5.173870087,-4.893748283,-1.007958889,7.192613229
17.61329016,-5.303156853,-5.02064085,-1.462857246,7.447835825
17.61829447,-4.94402647,-5.307945251,-1.628057122,7.434261935
17.6233007,-4.175487995,-5.68144083,-1.472434044,7.202883584
17.62830431,-3.150769472,-6.155492783,-1.223437071,7.022409695
17.63330924,-2.035071373,-6.667851925,-0.9552865028,7.036642458
17.63831454,-0.825999558,-7.173028469,-0.5889736414,7.244411821
17.64328985,-0.2681505978,-7.58722496,-0.5123591423,7.609231185
17.64829385,0.06943184882,-7.95593214,-0.5961562395,7.978538667
17.65329816,0.2992752194,-8.329427719,-0.7924807668,8.372392582
17.65830377,0.5267243981,-8.597578049,-0.9361328483,8.664417557
17.66330862,0.7015010715,-8.887276649,-0.921767652,8.962446407
17.668313,0.7781155705,-9.078812599,-1.036689281,9.170879277
17.67283977,0.7948749661,-9.15063858,-1.22583127,9.266535218
17.67829424,0.758961916,-9.155426979,-1.362300754,9.287288609
17.68329824,0.5626373887,-9.11233139,-1.613691926,9.271199805
17.68785447,0.3280056417,-9.042900085,-1.690306425,9.205366123
17.693276,-0.02633621916,-8.805873871,-1.589749932,8.948263132
17.698312,-0.3375824392,-8.607154846,-1.383848548,8.724225653
17.70331693,-0.8690952063,-8.281543732,-0.8643068075,8.371757242
17.70829108,-1.273715258,-7.943961143,-0.4668693244,8.058959993
17.712848,-1.572990537,-7.733271599,-0.2466027737,7.895479832
17.71830131,-1.869871497,-7.429207802,-0.1005564705,7.661570308
17.72330708,-2.023100376,-7.177816868,0.107739076,7.458257023
17.72831054,-2.190694571,-7.034164429,0.4070142806,7.378636225
17.73331508,-2.212242365,-6.971915245,0.6129156351,7.340114716
17.73829047,-2.207453966,-7.062894821,0.6775590777,7.430775368
17.7428477,-2.138022184,-7.24485445,0.517147541,7.571426315
17.7482997,-2.015917778,-7.498639584,0.05985504389,7.765120908
17.75330524,-1.908178806,-7.886500359,-0.4716577232,8.127760778
17.75831108,-1.790862918,-8.178592682,-1.048660398,8.43778744
17.7633157,-1.503558636,-8.528146744,-1.620874524,8.810062978
17.76828924,-1.060631394,-8.944737434,-2.140416384,9.258220618
17.77329362,-0.4213795066,-9.588777542,-2.624045134,9.95026775
17.77829824,-0.03830722719,-10.0269165,-2.772485495,10.40323016
17.78285577,0.3016694188,-10.38604736,-2.686294317,10.73206231
17.78783024,0.5219359994,-10.6350441,-2.403778553,10.91580192
17.79328254,0.7158663273,-10.80503273,-2.075772762,11.02587999
17.79828777,0.7422025204,-10.91755962,-2.011129379,11.12603317
17.8032927,0.6153098345,-10.91277122,-1.996764183,11.11099677
17.80829693,0.323217243,-10.87925243,-1.862688899,11.04229201
17.813301,-0.06464344263,-10.85531044,-1.721431017,10.99114499
17.81830677,-0.4165911078,-10.93192482,-1.683123827,11.06857869
17.82331201,-0.4644751251,-10.98699188,-1.766920805,11.13785154
17.82828716,-0.3878606856,-10.96544361,-2.04704237,11.16162049
17.83329147,0.1244984865,-11.08754826,-2.482787132,11.36281031
17.83829816,0.988805294,-11.18331623,-2.827552319,11.57753644
17.84330216,1.814804912,-11.20725822,-2.650381327,11.65850226
17.84830531,2.518700123,-11.37964058,-2.205059767,11.8618025
17.85331077,3.368641853,-11.54962921,-1.371877551,12.10882863
17.85786739,4.204218388,-11.80102062,-0.423773706,12.53471676
17.86329116,4.948814869,-12.34929276,0.3591302633,13.30882319
17.86829454,5.298368454,-12.85686302,0.4644751251,13.91356792
17.87329947,5.257667065,-13.39316463,0.1316810995,14.38878945
17.87830431,4.941632271,-13.8959465,-0.4979939461,14.75686473
17.883312,4.343081951,-14.35563374,-1.503558636,15.07339608
17.88831539,3.816357613,-14.59505367,-2.358288765,15.26897845
17.89328924,3.16034627,-14.76025391,-3.174711466,15.42503409
17.89829362,2.463633537,-14.86559868,-3.909731388,15.56732199
17.9032997,1.723825216,-15.03558636,-4.486733913,15.78515796
17.90830347,0.6464344859,-15.1768446,-5.003881454,15.99353992
17.913308,-0.2178723514,-15.1720562,-5.173870087,16.03145936
17.91786624,-1.063025594,-15.08347034,-5.19781208,15.98931992
17.923289,-1.795651317,-14.863204,-5.154716492,15.83383399
17.92829262,-2.056619167,-14.73631191,-4.548983097,15.55897871
17.933297,-1.877054095,-14.60702419,-3.67988801,15.17992304
17.93830224,-1.417367458,-14.71955204,-3.244143248,15.13930673
17.94330808,-0.7422025204,-14.94700146,-2.990357876,15.26125674
17.94831231,0.02394201607,-15.17923832,-2.698265314,15.41721391
17.95331639,0.6224924326,-15.30373764,-2.166752577,15.46889457
17.95829147,0.8858546019,-15.26303577,-1.810016513,15.39549152
17.96284862,0.9481038451,-14.98530865,-1.479616642,15.08799661
17.96830062,0.5770025849,-14.50646782,-1.33835876,14.57949741
17.97330562,-0.4213795066,-13.77863121,-1.285686255,13.84489898
17.97786224,-1.254561663,-13.35246277,-0.8403648138,13.43757418
17.98328685,-2.7509377,-12.70363426,1.034295082,13.03916209
17.98829016,-3.507505417,-12.63659668,2.23139596,13.30283044
17.99329516,-4.192247391,-12.85207462,2.71502471,13.78847778
17.99830247,-4.817133904,-13.15613842,3.007117271,14.32939327
18.00330554,-5.458779812,-13.25430107,3.677493811,14.79860583
18.00786216,-6.270414352,-13.223176,4.376600742,15.27498327
18.01328347,-6.99106884,-13.07234097,4.42448473,15.47052704
18.01784193,-7.606379032,-12.94544888,3.67988801,15.45908226
18.02329508,-8.470685959,-13.00530338,2.410961151,15.7067874
18.02829885,-9.232041359,-13.32612705,1.165976286,16.25348426
18.03330308,-9.579200745,-13.93185997,-0.2059013397,16.90858375
18.038308,-9.212887764,-14.66687965,-1.97042799,17.43207521
18.04286562,-8.995016098,-15.40189934,-2.887407303,18.06836846
18.04828716,-8.793902397,-16.16564941,-4.213795185,18.87900978
18.05284501,-8.73404789,-16.46971321,-4.800374508,19.25041925
18.05829762,-8.573636055,-16.46253014,-4.94402647,19.20847551
18.06330439,-8.429984093,-16.01002693,-4.668693542,18.68642003
18.06830708,-8.085219383,-15.42823601,-3.833117008,17.83519063
18.07331201,-7.117961884,-14.75307083,-3.064578056,16.66463678
18.07831762,-5.968744755,-13.96777248,-2.691082716,15.42616311
18.08329139,-5.331887245,-13.13219643,-2.214636564,14.34532048
18.08829631,-3.823540211,-12.73715305,-0.06703764945,13.29883535
18.09330031,-1.460463047,-12.89517021,3.256114244,13.37985976
18.09830524,0.1795651317,-13.08191776,5.511452198,14.19665176
18.10331078,2.070984364,-13.15135002,4.587290287,14.08155587
18.1083157,2.837129116,-12.74672985,1.805228114,13.18284006
18.11329047,2.882618904,-12.42111874,0.517147541,12.76170537
18.11829454,3.442862034,-12.13381386,-0.1891419291,12.61421866
18.12330062,3.330334663,-11.17134476,-0.06464344263,11.65736898
18.12785701,3.60327363,-10.26633644,1.312022567,10.95913537
18.13327878,2.748543501,-9.488221169,1.805228114,10.04189628
18.13786654,1.731007814,-8.803479195,1.328781962,9.069911548
18.14284101,0.9457096457,-8.238448143,0.9600749016,8.347942163
18.14829416,0.5291185975,-7.503427982,1.505952835,7.671329215
18.15329793,0.05027823523,-6.452373505,2.020706177,6.761575645
18.15830531,-0.2920926213,-5.789179802,1.89860189,6.099558182
18.16330808,-0.2920926213,-5.789179802,1.89860189,6.099558182
18.16786654,-1.977610588,-4.290409565,2.219424963,5.219617327
18.17328778,-1.97042799,-3.711012602,1.630451322,4.506947138
18.17829239,-1.539471745,-3.584120035,0.2418143749,3.908243067
18.18329639,-1.156399369,-3.651157618,-1.302445769,4.045315369
18.18830247,-1.505952835,-3.684676409,-1.209071875,4.160118866
18.19330708,-1.170764685,-3.672705412,-0.04309562966,3.855037253
18.19831147,-1.326387763,-3.588908434,0.3351882398,3.840822751
18.20331601,-1.707065821,-3.428496838,0.6440402865,3.883742032
18.20829085,-1.968033791,-3.145981073,0.6943184733,3.775239338
18.21329608,-2.487575531,-2.82276392,0.5817909837,3.80716547
18.21830039,-2.645592928,-2.664746523,0.5650315881,3.7972749
18.22330585,-2.71502471,-2.561795712,0.5506663918,3.773246602
18.22786401,-2.770091295,-2.422932148,0.5315127969,3.718401784
18.23283762,-2.743755102,-2.367865562,0.6751648784,3.686573883
18.2378437,-2.45405674,-2.425326347,1.091755986,3.618913305
18.24284716,-2.420537949,-2.351106167,1.168370485,3.570965382
18.24785116,-2.549824715,-2.178723574,1.18991828,3.558700324
18.25285731,-2.645592928,-1.924938202,1.261744261,3.506643352
18.25783201,-2.633621931,-1.673547029,1.460463047,3.445239679
18.26283662,-2.559401512,-1.513135433,1.620874524,3.386347466
18.26784193,-2.41574955,-1.379060149,1.546654344,3.182733486
18.27329362,-2.049436569,-1.316810966,1.474828243,2.847683219
18.27829824,-1.752555609,-1.414973259,1.45088625,2.679304274
18.2833037,-1.654393315,-1.510741234,1.326387763,2.603586145
18.28830839,-1.651999116,-1.527500629,1.127668977,2.516743247
18.2928647,-1.719036818,-1.584961534,0.8667010069,2.493664227
18.29828808,-1.81959331,-1.659181833,0.5267243981,2.518182432
18.30329262,-1.908178806,-1.733402014,0.0718260482,2.578950926
18.30829639,-2.04704237,-1.908178806,-0.6631938815,2.87599634
18.31330162,-2.104503393,-2.068590164,-1.362300754,3.250209707
18.31830893,-1.903390408,-2.343923569,-2.207453966,3.740284181
18.32331201,-1.551442742,-2.837129116,-3.220201254,4.563548216
18.32831639,-1.04147768,-3.677493811,-4.491522312,5.89766133
18.33329139,-0.6799532771,-4.472368717,-5.64552784,7.234390298
18.33829601,-0.5554547906,-5.461174011,-7.015010834,8.907487222
18.34285331,-0.5123591423,-6.670246124,-8.561665535,10.86539516
18.34830624,-0.7900865674,-8.343792915,-10.99656868,13.82633862
18.35330931,-0.6895300746,-9.753977776,-12.78503704,16.09573566
18.35786801,-0.517147541,-11.30542088,-14.03241634,18.02744272
18.36328985,-0.5602431893,-13.247118,-14.5735054,19.70246348
18.36784708,-0.8379706144,-14.60463047,-14.68124485,20.72525938
18.37285208,-1.501164436,-17.97805977,-14.82010841,23.34737118
18.37785731,-2.26730895,-21.21262741,-14.89672279,26.01977328
18.38327908,-4.110844135,-25.0409565,-18.46408272,31.38265273
18.38786647,-4.979939461,-27.04250908,-23.28840065,36.03396591
18.3928407,-3.828328609,-28.45029831,-23.62358856,37.17727142
18.39829455,-3.047818661,-26.97068214,-19.53668594,33.44232336
18.40329785,-1.982398987,-22.53183174,-14.44661331,26.83874035
18.40830347,-0.9816226959,-17.49921989,-11.83932781,21.15079107
18.41330801,0.07661445439,-11.79144382,-10.59673691,15.85354378
18.41831324,1.058237195,-6.696582317,-10.17296314,12.22510776
18.42328778,1.340752959,-1.874659896,-9.461885452,9.738544272
18.42829231,0.9026140571,0.3423708379,-7.939172745,7.997649267
18.43329693,-0.2896983922,0.9816226959,-6.174646378,6.258894963
18.43830193,-2.245761156,-0.09097966552,-5.420472622,5.867984655
18.44330647,-5.082890034,-3.019088268,-4.268861771,7.292039899
18.44831178,-7.060500622,-5.573701382,-2.626439333,9.370965782
18.45331608,-8.197746277,-8.027758598,0.2729389966,11.47704003
18.45829108,-9.327810287,-10.3309803,4.587290287,14.65538914
18.46329578,-10.19211674,-13.15853214,6.866570473,18.00488827
18.46785331,-10.77630138,-15.37556362,6.909666061,20.00700161
18.47285854,-10.54645824,-17.64047813,4.704606533,21.08429683
18.4782807,-9.03571701,-20.53506851,0.1244984865,22.43543449
18.48331485,-6.777985096,-22.72576332,-2.743755102,23.87319821
18.48829024,-4.364629745,-24.19340897,-6.270414352,25.37102927
18.4928477,-0.8571242094,-24.08327484,-11.02769279,26.50186404
18.4978517,2.992752075,-22.16791344,-12.58871269,25.66804703
18.50330462,3.696647406,-17.42499924,-4.381389141,18.34372839
18.50830931,2.370259762,-12.26310158,5.190629482,13.52569503
18.51331447,0.6105214357,-7.69017601,9.042900085,11.88636132
18.51828839,-2.387019157,-4.000710964,7.012616634,8.419046308
18.52329385,-4.757278919,-2.178723574,3.936067581,6.547607741
18.52785085,-6.588842869,-1.084573388,1.101332784,6.767723671
18.53330224,-7.024587631,-0.7374141216,-0.3711012602,7.072929175
18.53830839,-5.652710438,-1.070208192,0.490811348,5.774026034
18.54331239,-3.773261786,-1.980004787,2.272097349,4.829114808
18.54828801,-1.989581585,-3.325546265,3.897760391,5.496383257
18.55329239,-0.2035071403,-4.860229492,5.511452198,7.351146251
18.55829939,0.3663128614,-6.64869833,8.236053467,10.59112606
18.56330216,-0.2226607651,-7.88171196,10.39801788,13.04951099
18.56830655,-1.316810966,-8.939949036,11.82735634,14.88432188
18.57331239,-2.482787132,-9.9526968,12.33971596,16.04646364
18.57828554,-2.839523315,-10.89601231,10.95107841,15.70707151
18.58329116,-2.736572504,-11.56159973,8.999804497,14.90489512
18.58829608,-2.183511972,-12.43069553,7.32146883,14.59088146
18.59330001,-0.895431459,-13.63497829,4.666299343,14.43914056
18.59830524,0.538695395,-14.4753437,1.173158884,14.53279291
18.60331055,2.525882721,-15.35641003,-3.632004023,15.98095321
18.60831539,3.933673382,-15.89749908,-7.635109425,18.06928774
18.61328985,3.670311213,-15.57667637,-9.730035782,18.72905837
18.61829508,2.664746523,-14.73391724,-8.583212852,17.2586423
18.62329916,1.719036818,-13.69483376,-6.370970726,15.20173764
18.62830493,0.9193734527,-12.67729759,-4.623203278,13.52527746
18.63330954,0.2274491638,-11.61427212,-2.913743496,11.97634966
18.63786839,-0.2466027737,-10.86009884,-1.776497602,11.00720234
18.64328862,-0.6631938815,-10.24718285,-0.8475474119,10.30353915
18.64829293,-1.012747288,-9.706093788,-0.2992752194,9.763374383
18.65285108,-1.223437071,-9.275136948,0.1604115069,9.356852864
18.65785508,-2.284068346,-8.51617527,0.5913678408,8.836963583
18.66282985,-3.098097086,-7.824251175,0.2202665508,8.418172566
18.66828285,-3.90254879,-7.230489254,-0.05985504389,8.21665653
18.67328747,-4.891354084,-6.497863293,-0.7302315235,8.165831876
18.67829178,-5.216965675,-6.107608318,-1.261744261,8.13090455
18.68329732,-5.061342239,-5.899312973,-1.424550056,7.902431378
18.68830193,-4.881777287,-5.71974802,-1.45088625,7.658481429
18.69285939,-4.833893299,-5.489904404,-1.644816518,7.497399293
18.69828093,-4.161122322,-5.537788391,-1.927332401,7.190038208
18.70331732,-3.536235809,-5.738901615,-1.841141105,6.987829135
18.70829108,-2.561795712,-6.172252178,-1.67115283,6.888559066
18.7132957,-1.728613615,-6.641515732,-1.493981838,7.023518917
18.71830278,-1.127668977,-7.074865818,-1.292868972,7.279895181
18.72330532,-0.5817909837,-7.529764175,-1.247379065,7.654527015
18.72830993,-0.0287304204,-8.030152321,-1.319205165,8.137842097
18.73331478,0.3639186621,-8.355764389,-1.393425345,8.4789663
18.73828962,0.7062895298,-8.628703117,-1.41257906,8.772043205
18.74329539,0.8882488012,-8.911218643,-1.405396342,9.064984419
18.74829978,1.106121182,-9.21528244,-1.343147159,9.378111687
18.75330524,1.144428372,-9.404424667,-1.22583127,9.552778754
18.75831016,1.084573388,-9.572018623,-1.110909581,9.697110913
18.76286678,0.9672574997,-9.641449928,-0.9576807022,9.737057878
18.76828893,0.6871358752,-9.538499832,-0.7829039693,9.595210961
18.77284685,0.3064578176,-9.351752281,-0.7302315235,9.385223769
18.77829855,-0.1675941199,-9.155426979,-0.7230489254,9.18546301
18.78330339,-0.6081272364,-8.877699852,-0.7278373241,8.928220459
18.78830808,-1.221042871,-8.43956089,-0.806845963,8.565520073
18.79331262,-1.620874524,-8.085219383,-0.9145850539,8.296654297
18.79828901,-1.89860189,-7.685387611,-0.9696516991,7.975593789
18.80284555,-2.063801765,-7.354987621,-0.9481038451,7.697663382
18.80829785,-2.099714994,-7.055712223,-0.7374141216,7.398355062
18.81330216,-1.991975784,-6.873753071,-0.5051765442,7.174374687
18.81830585,-1.855506301,-6.813898087,-0.3016694188,7.068459182
18.82331178,-1.692700624,-6.847416878,-0.09816227108,7.054217826
18.82831639,-1.556231141,-7.019799232,-0.0718260482,7.190590769
18.83329078,-1.422155857,-7.266402245,-0.1556231081,7.405899501
18.83829578,-1.209071875,-7.603984833,-0.3112462163,7.70579745
18.84330039,-0.9241618514,-8.142680168,-0.8523358107,8.23916208
18.84830501,-0.6416460276,-8.700529099,-1.48679924,8.849942836
18.85331016,-0.3519476354,-9.282320023,-2.197877169,9.54546993
18.85831478,-0.0287304204,-9.823410034,-2.849100113,10.22827364
18.86328955,0.2537853718,-10.30464458,-3.440467834,10.86678085
18.86829508,0.490811348,-10.55603504,-3.620033026,11.17029143
18.87285232,0.6153098345,-10.63264942,-3.574543238,11.23428677
18.87830678,0.6823474765,-10.68532181,-3.399766445,11.23388233
18.88286155,0.6440402865,-10.6206789,-3.08373189,11.07804182
18.88828432,0.4932055473,-10.51772785,-2.71502471,10.87369349
18.89328778,0.3663128614,-10.41477776,-2.513911724,10.72014613
18.89829355,0.2513911724,-10.33337498,-2.444479942,10.6215497
18.90329855,0.107739076,-10.30943298,-2.425326347,10.59142219
18.90830247,0.01675941236,-10.3261919,-2.209848166,10.56001652
18.91330739,0.2202665508,-10.56561184,-2.334346771,10.82265428
18.91831301,0.7158663273,-10.77869606,-2.588132143,11.10815832
18.92328801,1.261744261,-10.89840603,-2.655169725,11.28792181
18.9282917,1.917755604,-10.96544361,-2.525882721,11.41485101
18.93329662,2.504334927,-11.07318306,-2.142810583,11.55329882
18.93830247,3.177105665,-11.18810463,-1.505952835,11.72755642
18.94330647,3.617638826,-11.42273617,-1.012747288,12.02463593
18.94831085,3.823540211,-11.79862595,-0.7254431248,12.42390042
18.95331701,3.869029999,-12.25831223,-0.5458779931,12.86598595
18.95829201,3.734954596,-12.86165142,-0.7422025204,13.41353151
18.96329639,3.490746021,-13.34528065,-1.139639974,13.84126449
18.96830101,3.078943491,-13.76426601,-1.735796213,14.21083743
18.97330555,2.521094322,-14.16888523,-2.434903145,14.59595761
18.97831024,1.683123827,-14.64054298,-3.313575268,15.10490602
18.98331485,0.8714894056,-15.07149982,-3.799597979,15.5674836
18.98828932,-0.05267243832,-15.35880375,-4.031835556,15.87927344
18.99329362,-0.8307880163,-15.61498356,-4.065354347,16.15688789
18.99830001,-1.482010841,-15.80651951,-4.230554581,16.4298511
19.00330501,-1.810016513,-15.62456036,-3.928884983,16.21231579
19.00830893,-1.889025092,-15.59582996,-3.761290789,16.15381182
19.01331455,-1.55862534,-15.78497219,-3.696647406,16.28680024
19.01828893,-1.149216771,-16.1441021,-3.363853455,16.53082701
19.02284555,-0.6033388376,-16.43140602,-3.066972494,16.72607072
19.02829824,0.1029506698,-16.56787491,-2.652775526,16.77922215
19.03330339,0.5961562395,-16.20635223,-1.915361404,16.33002953
19.03830993,0.2777273953,-15.58385849,-1.458068848,15.65438414
19.04331293,-0.5075707436,-14.95657825,-0.8667010069,14.99026457
19.04828747,-1.278503656,-14.568717,0.1268926859,14.62525858
19.05329209,-2.52827692,-14.28380775,1.740584612,14.60989332
19.05784993,-3.057395458,-14.46337223,2.504334927,14.9936152
19.06330185,-3.711012602,-14.7841959,3.538630009,15.64819367
19.06830716,-4.295197964,-14.90390587,4.134786129,16.05215226
19.07331208,-5.434837818,-14.78658962,5.063736439,16.54757147
19.07831662,-6.39491272,-14.54716969,5.676652431,16.87422405
19.08329085,-7.309497833,-14.26944256,5.556941986,16.96836332
19.08829608,-7.99423933,-14.1952219,4.592078686,16.92629239
19.09330101,-8.808267593,-14.27901936,2.688688517,16.99132183
19.09830593,-9.385271072,-14.66927338,0.9672574997,17.44151603
19.10331078,-9.162610054,-15.28937244,-0.8906430602,17.84689267
19.10786832,-8.63109684,-16.06509399,-2.408566952,18.39522418
19.11328901,-7.874529362,-16.95573616,-3.34230566,18.99147726
19.11784839,-7.338228226,-17.39387512,-3.97916317,19.2932689
19.1232997,-6.861782074,-17.44175911,-4.553771496,19.28823084
19.12830401,-6.552929878,-17.03953362,-4.711789131,18.85437755
19.13286155,-6.20337677,-16.29493713,-4.695029736,18.05685919
19.1378367,-5.64313364,-15.26782417,-4.42448473,16.8679423
19.1432887,-4.491522312,-14.41309452,-3.445256233,15.48485895
19.14829332,-3.363853455,-13.42907715,-2.430114746,14.05564231
19.15285085,-2.784456491,-12.61026001,-1.312022567,12.98049532
19.15830339,0.5602431893,-12.88798809,3.895366192,13.4754587
19.16330778,3.093308687,-13.33809757,5.98550415,14.94321469
19.16831293,5.16189909,-13.41710663,3.938461781,14.90555043
19.17328809,5.937620163,-13.41231823,1.436521053,14.73801907
19.17829209,6.344634533,-13.22078133,-0.2106897533,14.66587319
19.1832967,6.272808552,-12.84249783,-0.55784899,14.30346367
19.18830247,5.777208805,-12.38759995,-0.2920926213,13.67165287
19.19286008,4.630385876,-11.95903778,0.05746084079,12.82428788
19.19828347,3.493140221,-11.00614548,0.7278373241,11.57009136
19.2028397,2.30801034,-10.16099167,1.26413846,10.49622358
19.20829024,1.007958889,-8.978256226,1.855506301,9.22322989
19.21329608,0.2633621991,-8.118738174,2.097320795,8.389399484
19.21785362,-0.2920926213,-7.35977602,2.513911724,7.782761292
19.22330555,-0.7469909191,-6.521805286,2.97599268,7.207528845
19.22786309,-1.319205165,-5.741295815,3.143586874,6.677193896
19.2332847,-2.068590164,-4.917690277,3.193865061,6.217999434
19.23784278,-2.547430515,-4.376600742,3.086126089,5.930279127
19.24329455,-2.932897091,-3.888183594,3.057395458,5.750436852
19.24830001,-3.241749048,-3.397372246,2.853888512,5.495066397
19.25330462,-3.385401249,-3.031059265,2.592920542,5.231777788
19.25830893,-3.60327363,-2.758120298,2.317587137,5.095293767
19.26331362,-3.907337189,-2.67671752,1.965639591,5.127946918
19.2682887,-3.945644379,-2.624045134,1.728613615,5.04398924
19.27284624,-3.919308186,-2.561795712,1.587355733,4.944033995
19.27785262,-3.876212597,-2.475604534,1.498770237,4.837349908
19.28330347,-3.82593441,-2.396595955,1.371877551,4.718420742
19.28830924,-3.643975019,-2.355894566,1.261744261,4.518937013
19.29331385,-3.426102638,-2.394201756,1.180341482,4.343223152
19.29828747,-3.287238836,-2.396595955,1.254561663,4.257174686
19.30329209,-3.181894064,-2.430114746,1.371877551,4.232251827
19.3082967,-3.150769472,-2.506729126,1.482010841,4.290384052
19.31330162,-3.148375273,-2.56658411,1.618480325,4.372539241
19.31830616,-3.138798475,-2.595314741,1.711854219,4.417936095
19.32331147,-3.129221678,-2.640804529,1.817199111,4.479742122
19.32831701,-3.105279684,-2.67432332,1.903390408,4.51859073
19.33329024,-3.078943491,-2.671929121,1.960851192,4.523719227
19.33829516,-2.985569477,-2.655169725,1.984793186,4.461272841
19.34329978,-2.738966703,-2.681505919,1.800439715,4.234854869
19.34830586,-2.604891539,-2.681505919,1.632845521,4.079475262
19.35286247,-2.511517525,-2.67432332,1.474828243,3.954092038
19.35783939,-2.506729126,-2.643198729,1.288080573,3.863850669
19.36328986,-2.547430515,-2.626439333,0.8882488012,3.765178845
19.36829478,-2.341529369,-2.755726099,0.5722141862,3.66117675
19.37330008,-2.209848166,-2.964021683,0.04309562966,3.697392417
19.37830462,-1.999158382,-3.268085241,-0.720654726,3.898250712
19.38331016,-1.929726601,-3.706224203,-1.45088625,4.423235638
19.38831447,-1.939303398,-4.13239193,-2.317587137,5.119450251
19.3932887,-2.035071373,-4.565742493,-3.38061285,6.034572333
19.39829324,-2.166752577,-5.133168221,-4.843470097,7.382644193
19.40285078,-2.248155355,-5.437232018,-5.671864033,8.172376406
19.40785486,-2.370259762,-5.875370979,-7.273584843,9.645887826
19.41327724,-2.614468336,-6.198588371,-8.51617527,10.85279612
19.41786562,-2.880224705,-6.579266071,-9.430760384,11.85418398
19.42328686,-3.064578056,-7.402871609,-10.45308495,13.17046437
19.42829178,-3.213018656,-8.339004517,-11.70764637,14.72859358
19.43284955,-3.356670856,-9.418789864,-12.69884586,16.1629678
19.43830347,-3.411737442,-10.80503273,-11.50174522,16.14555133
19.44285886,-3.277662039,-11.73637676,-9.143456459,15.23444794
19.44828155,-3.416525841,-13.5224514,-6.859387875,15.54286147
19.45331732,-4.125209332,-15.06192303,-6.68700552,16.98808171
19.45829055,-5.145139217,-17.13051224,-10.16578007,20.57352647
