Time (s),Acceleration x (m/s^2),Acceleration y (m/s^2),Acceleration z (m/s^2),Absolute acceleration (m/s^2)
40.00428802,-9.174580574,-1.369483352,3.687070608,9.982129183
40.00970986,-9.938331604,-0.9648633003,-0.806845963,10.01760434
40.01471332,-10.09156036,-0.8643068075,-3.548206806,10.73202629
40.0197194,-9.232041359,-1.180341482,-3.203441858,9.843060165
40.02427632,-7.575253963,-2.085349798,-0.7852981687,7.896192095
40.02972986,-4.436455727,-4.211400986,2.71502471,6.692488091
40.03473355,-2.248155355,-6.311115742,4.726154327,8.19883645
40.03973848,-0.4141969085,-8.566453934,7.077260017,11.11950095
40.04471325,0.1891419291,-10.22802925,9.038111687,13.6504879
40.04927117,0.2873041928,-11.59990692,10.98220348,15.97651957
40.05472217,0.215478152,-13.02206326,11.83693314,17.59924852
40.05972748,0.03830722719,-13.85524559,11.05402946,17.72458364
40.06473302,0.03830722719,-14.55435181,8.671798706,16.9419809
40.06973763,0.4692635238,-14.93263626,5.710171223,15.99405794
40.07471178,1.134851575,-15.06910515,2.121262789,15.25993361
40.07926986,2.11647439,-15.07149982,-1.865083098,15.33323533
40.08472217,2.865859509,-14.77701283,-5.892130375,16.16448141
40.08972717,2.880224705,-14.27423096,-7.891288757,16.56266289
40.09473178,2.628833532,-13.541605,-8.741230011,16.33079709
40.09973609,2.281674147,-12.78264332,-8.425195694,15.47856355
40.10471025,1.517923832,-11.9853735,-6.91684866,13.92106555
40.10971517,0.9074024558,-11.23120022,-5.216965675,12.41692266
40.11471971,0.4285621047,-10.39562416,-3.224989653,10.89280613
40.11972563,-0.3471592367,-9.569623947,-0.7733271718,9.607094094
40.12472925,-1.312022567,-8.559270859,0.9289502501,8.70893044
40.1292884,-2.169146776,-8.037335396,1.024718285,8.387729464
40.13470871,-2.67432332,-7.47469759,0.9816226959,7.999168232
40.13971455,-2.71502471,-7.338228226,0.940921247,7.880754117
40.14471971,-2.533065319,-7.331045628,0.5961562395,7.779206397
40.14927702,-2.217030764,-7.424419403,0.2705447972,7.753091214
40.15425086,-1.867477298,-7.680599213,0.05746084079,7.904579525
40.15970463,-1.395819545,-7.888894558,-0.1939303428,8.0137743
40.1647394,-0.6009446383,-8.109161377,-0.490811348,8.146197179
40.1697124,-0.1101332754,-8.262390137,-0.7948749661,8.301267754
40.17471825,0.4094084799,-8.463502884,-1.139639974,8.549694476
40.17972278,0.8188169599,-8.599972725,-1.326387763,8.740097058
40.18472686,1.103726983,-8.714894295,-1.405396342,8.896220248
40.1897324,1.108515382,-8.769960403,-1.407790542,8.951138812
40.19473732,1.070208192,-8.939949036,-1.515529633,9.130436156
40.19971148,0.8619126081,-9.06205368,-1.460463047,9.219363458
40.20471663,0.8044517636,-9.186552048,-1.345541358,9.3193542
40.20972217,0.7086837292,-9.296685219,-1.209071875,9.401725559
40.21472678,0.5003881454,-9.370905876,-1.120486379,9.450912917
40.2197314,0.1580173075,-9.346963882,-1.070208192,9.409359642
40.22473663,-0.06703764945,-9.272743225,-1.067813993,9.334264175
40.22971078,-0.316034615,-9.160215378,-1.065419793,9.227380071
40.23471571,-0.5770025849,-9.021351814,-1.146822572,9.11224026
40.23972255,-0.8930372596,-8.793902397,-1.362300754,8.943494745
40.24427794,-1.046266198,-8.65743351,-1.508347034,8.849911791
40.24969948,-1.316810966,-8.370129585,-1.663970232,8.634920806
40.25473486,-1.503558636,-8.183381081,-1.604115129,8.473582467
40.25970994,-1.642422318,-7.972691536,-1.426944256,8.264232046
40.26471425,-1.541865945,-7.970297337,-1.15400517,8.19967793
40.26971917,-1.446097851,-7.963114738,-0.7924807668,8.132061307
40.27472409,-1.355118155,-8.008605003,-0.3256114423,8.128968085
40.27972863,-1.180341482,-8.054094315,0.3711012602,8.148580084
40.28473363,-1.051054597,-8.078036308,0.806845963,8.18598722
40.28973879,-0.9050082564,-8.087613106,0.9768342972,8.19650724
40.29426625,-0.7015010715,-8.106766701,0.9241618514,8.189373921
40.29927079,-0.4764461517,-8.140285492,0.8786720037,8.20142142
40.30472286,-0.174776718,-8.185775757,0.7565677166,8.222521897
40.30972771,0.02394201607,-8.24802494,0.6368576288,8.272610004
40.31473425,0.1532289088,-8.365341187,0.4764461517,8.380299112
40.31973848,0.3208230138,-8.497021675,0.2753331959,8.507532728
40.32471232,0.4429273009,-8.568847656,0.0718260482,8.580588193
40.32971579,0.5051765442,-8.710105896,-0.1388636976,8.725848451
40.33472132,0.4884171486,-8.882488251,-0.3184288144,8.901603549
40.33972625,0.4668693244,-9.078812599,-0.6392518282,9.113256722
40.34473086,0.4357447028,-9.198522568,-1.058237195,9.2694421
40.34928871,0.3974374831,-9.260771751,-1.539471745,9.396266452
40.35471117,0.2896983922,-9.437943459,-2.035071373,9.659203765
40.35971517,0.1771709323,-9.605537415,-2.427720547,9.909165738
40.36472102,0.07661445439,-9.725247383,-2.705447912,10.09483803
40.36972532,-0.007182605099,-9.835380554,-2.619256735,10.17817607
40.37428279,-0.05985504389,-9.981427193,-2.387019157,10.26305665
40.37970379,0.01197100803,-10.16338634,-2.094926596,10.37705559
40.38470894,0.08858546615,-10.3405571,-1.843535304,10.50397977
40.38971517,0.1675941199,-10.43393135,-1.587355733,10.55531664
40.39427178,0.2418143749,-10.46984386,-1.350329757,10.55933214
40.39927794,0.2346317619,-10.57758331,-1.256955862,10.65458863
40.40428186,0.2082955539,-10.68532181,-1.33835876,10.77082603
40.40970286,0.1508347094,-10.80982113,-1.55862534,10.92265064
40.41473817,0.1244984865,-11.0085392,-1.908178806,11.1733872
40.41971263,0.09576806426,-11.20246983,-2.042253971,11.38750644
40.42471794,0.2346317619,-11.33893967,-2.013523579,11.51871877
40.42972286,0.3974374831,-11.51611042,-1.924938202,11.6826428
40.43472778,0.691924274,-11.77229023,-1.702277422,11.91483633
40.43973232,0.8810662031,-11.97340298,-1.529894829,12.1028606
40.44428963,0.9911994934,-12.20324612,-1.529894829,12.33864946
40.44926402,1.07739079,-12.37562847,-1.786074519,12.55017981
40.45427017,1.048660398,-12.50491524,-2.19308877,12.73900436
40.45927509,0.9265560508,-12.6437788,-2.724601507,12.96715473
40.46427848,0.7661445141,-12.82095051,-3.41892004,13.29107835
40.46925386,0.55784899,-12.98375607,-3.804386616,13.54114008
40.47470594,0.3327940404,-13.26866627,-4.118026733,13.8969925
40.47971202,0.1125274822,-13.5224514,-4.060565948,14.11940332
40.48471602,-0.1268926859,-13.78820801,-3.895366192,14.32845629
40.48971979,-0.4165911078,-14.05875206,-3.782838583,14.56474941
40.49472525,-0.8212111592,-14.25028896,-3.739742994,14.75570401
40.49973017,-1.156399369,-14.26944256,-3.797203779,14.81124596
40.50428686,-1.431732655,-14.22395229,-3.833117008,14.80079266
40.50970932,-1.48679924,-14.17606831,-3.79480958,14.75032421
40.51471448,-1.386242747,-14.1904335,-3.608062029,14.70741934
40.51971878,-1.201889277,-14.1904335,-3.502717018,14.66567309
40.52472409,-0.9816226959,-14.10184765,-3.371036053,14.532363
40.52972863,-0.6464344859,-13.88397598,-3.021482468,14.2236431
40.53473425,-0.5003881454,-13.48174953,-2.48996973,13.71888873
40.53973886,-0.3064578176,-13.11064816,-2.257732153,13.30715469
40.54471302,-0.1029506698,-12.69405746,-2.123656988,12.87088236
40.54926986,-0.1005564705,-12.08832455,-1.776497602,12.21857789
40.55472256,-0.5458779931,-11.31020927,-1.010353088,11.36836092
40.55973017,-1.343147159,-10.86967564,-0.5698199868,10.9671595
40.56428563,-2.152387381,-10.87685871,-0.1268926859,11.08850435
40.56970678,-2.700659513,-11.81299114,0.4261679053,12.12526044
40.57471202,-3.021482468,-12.97178459,1.297657371,13.38209499
40.57971663,-3.471592426,-14.04438686,2.693476915,14.71569143
40.58472186,-3.981557369,-14.95897198,3.694253206,15.91449492
40.58972678,-4.862623692,-15.7322998,4.534617901,17.07961141
40.59473078,-5.664681435,-16.01960373,4.699818134,17.62965144
40.59973609,-6.58405447,-16.18959236,4.223371983,17.98025431
40.60471017,-7.532158375,-16.3500042,3.399766445,18.31978327
40.60926871,-8.322244644,-16.64448929,2.533065319,18.7807135
40.61472071,-9.038111687,-17.02038002,1.036689281,19.29910681
40.61972471,-9.026140213,-17.21430969,-0.2202665508,19.43842027
40.62473017,-8.604761124,-17.15445518,-1.161187768,19.22668988
40.62973448,-7.936778545,-16.66364288,-2.003946781,18.56570092
40.63473979,-7.17063427,-15.93101788,-2.365471363,17.62982646
40.6397154,-6.220136166,-15.05234623,-2.56658411,16.48789177
40.64427202,-5.130774021,-14.08030033,-2.863465309,15.25710107
40.6492764,-3.904942989,-13.19444561,-2.877830505,14.0578762
40.65472871,-2.801215887,-12.33253288,-2.990357876,12.99539988
40.65973356,-2.466027737,-11.55681133,-2.772485495,12.13786871
40.6642914,-2.128445387,-10.93910789,-1.975216389,11.31794332
40.66971325,-0.940921247,-10.64940929,-0.739808321,10.71646245
40.67471702,-0.653617084,-10.38125896,-0.2896983922,10.40584827
40.67972317,-0.7637503147,-10.13704967,0.1268926859,10.1665723
40.68472717,-0.3663128614,-9.935936928,0.5817909837,9.959694197
40.68973363,0.691924274,-10.09156036,0.8427590132,10.15030012
40.69473763,1.977610588,-10.39322948,0.7493851185,10.60621237
40.6997114,2.925714493,-10.78108978,0.8595184088,11.20403829
40.70471663,3.363853455,-11.018116,0.8762778044,11.55345199
40.70972163,3.004723072,-10.9989624,0.8619126081,11.43452789
40.71472617,2.597708941,-10.82418633,0.8786720037,11.16616164
40.71973271,2.238578558,-10.57997704,1.137245774,10.87384366
40.72428956,1.683123827,-9.998186111,0.8834604025,10.17728518
40.72971109,0.9911994934,-9.437943459,0.5722141862,9.507085896
40.73426809,0.6655880809,-9.337387085,0.4309563041,9.370993992
40.73927294,0.4261679053,-8.966285706,0.653617084,9.000172983
40.74427825,-0.1340752989,-8.386888504,0.8355764151,8.429475838
40.74925271,-0.8331822157,-7.65186882,1.065419793,7.77048315
40.7547044,-1.539471745,-6.773196697,1.127668977,7.036888807
40.75971025,-2.039859772,-6.126761913,1.070208192,6.545501127
40.76471448,-2.432508945,-5.406107426,1.15400517,6.039439146
40.76971917,-2.547430515,-4.900930882,1.139639974,5.639796539
40.77472409,-2.645592928,-4.522646904,1.007958889,5.335679721
40.77972925,-2.755726099,-4.165910721,0.9289502501,5.080530192
40.78428625,-2.827552319,-3.861847401,0.8379706144,4.859126692
40.78970832,-2.947262287,-3.524264812,0.8571242094,4.673484714
40.79471386,-3.098097086,-3.232172251,0.9481038451,4.576466313
40.79971917,-3.280056238,-2.930502892,1.007958889,4.512493462
40.80472286,-3.368641853,-2.662352324,0.9911994934,4.406625043
40.80972679,-3.351882458,-2.521094322,1.029506683,4.318670699
40.81428494,-3.404554844,-2.353500366,1.022324085,4.26322697
40.81970748,-3.584120035,-2.176329374,1.103726983,4.335958859
40.82471171,-3.916913986,-2.178723574,1.223437071,4.646057453
40.82971702,-4.058171749,-2.272097349,1.333570361,4.838346228
40.83472163,-4.05577755,-2.430114746,1.371877551,4.923092242
40.83972709,-4.005499363,-2.588132143,1.37666595,4.963633979
40.84473086,-3.90254879,-2.746149302,1.400607944,4.973220853
40.84928932,-3.7181952,-2.906560898,1.33835876,4.905535238
40.85471086,-3.464409828,-3.062183857,1.271321058,4.795348023
40.8597154,-3.150769472,-3.189076662,1.101332784,4.616328858
40.86427294,-2.892195702,-3.366247654,0.8906430602,4.526551039
40.86927817,-2.552218914,-3.591302633,0.6847416759,4.458715864
40.8746994,-2.26970315,-3.754108191,0.4932055473,4.414536488
40.87973632,-1.987187386,-3.933673382,0.1867477298,4.411074098
40.88470894,-1.810016513,-4.060565948,-0.1867477298,4.449632604
40.88971517,-1.651999116,-4.161122322,-0.6488286853,4.523827884
40.89471848,-1.570596337,-4.285621166,-1.127668977,4.701591109
40.8997244,-1.742978811,-4.321534157,-1.982398987,5.063944939
40.90472863,-1.838746905,-4.390965939,-2.865859509,5.556502747
40.90973356,-1.831564307,-4.405331135,-3.770867586,6.081201573
40.91473879,-1.687912226,-4.46279192,-4.786009312,6.758065147
40.91971333,-1.462857246,-4.685452938,-5.961562157,7.722282299
40.92471732,-1.302445769,-5.046977043,-6.818686485,8.582705147
40.92972225,-1.333570361,-5.549759388,-7.639897823,9.536575797
40.9342804,-1.498770237,-6.234501362,-8.461109161,10.6162935
40.93970156,-2.059013367,-7.278373241,-9.179368973,11.89432923
40.94428986,-1.824381709,-8.051700592,-9.009381294,12.219951
40.94971209,-1.620874524,-9.418789864,-8.82263279,13.00690917
40.95471733,-1.838746905,-10.29985619,-8.712499619,13.61527367
40.95972279,-0.85473001,-11.99255657,-8.121131897,14.50878216
40.96472648,-0.5841852427,-13.60385418,-8.441955566,16.02100917
40.96973056,-0.7948749661,-15.36838055,-10.14423275,18.43161428
40.97473602,-0.7996633649,-17.13530159,-12.65575027,21.31727086
40.97971048,-0.3711012602,-19.62287712,-15.90468216,25.26170891
40.98471548,0.06464344263,-21.53823853,-16.80969048,27.32152249
40.98972009,0.2394201756,-22.16312599,-15.88313389,27.26784586
40.99472556,0.6799532771,-21.86863899,-13.6158247,25.7699513
40.99928248,1.089361787,-20.63801956,-11.25514221,23.53280236
41.00470532,1.321599364,-18.08819389,-9.99100399,20.70626823
41.00970986,1.532289028,-15.54794598,-10.723629,18.94947895
41.01471448,1.89860189,-12.65096188,-12.67250919,18.00677691
41.01971848,2.245761156,-9.11233139,-14.73152351,17.46699206
41.02472409,2.442085743,-6.663063526,-14.91348267,16.51581556
41.02928186,2.60010314,-4.786009312,-13.97974396,15.00332172
41.03470279,2.274491549,-3.763684988,-11.70525169,12.50406149
41.03973979,1.405396342,-3.64158082,-9.835380554,10.58163316
41.04471294,0.1675941199,-4.371812344,-7.65186882,8.814302434
41.04971794,-1.484405041,-5.564124584,-4.783615112,7.48638192
41.05472256,-3.933673382,-7.603984833,-0.9121908545,8.609672686
41.05928156,-5.255272865,-9.078812599,1.180341482,10.55632214
41.06470194,-7.053318024,-11.78426075,4.05338335,14.31949766
41.06973725,-8.207323074,-14.04917526,5.415684223,17.14844346
41.0747114,-8.595184326,-16.61097145,5.7963624,19.5805869
41.07971548,-8.499416351,-19.1200943,5.087678432,21.53375388
41.08441639,-7.376535416,-21.47838402,3.327940464,22.95232978
41.08971923,-6.071695328,-22.92926979,1.872265697,23.79332419
41.09472316,-4.486733913,-22.75209808,0.1029506698,23.19050123
41.09972931,-2.523488522,-20.22382164,-2.887407303,20.58417054
41.10470377,-1.690306425,-17.05389786,-5.432443619,17.97787561
41.10970808,-2.360682964,-13.30218506,-2.983175278,13.83547202
41.11471246,-4.09169054,-8.942343712,2.437297344,10.13152806
41.11972008,-5.963956356,-4.910507679,3.663128614,8.549875574
41.12472346,-7.134721279,-3.12203908,1.18991828,7.87827908
41.12972777,-8.779537201,-1.845929503,-3.205836058,9.527072689
41.134702,-9.703699112,-1.106121182,-7.077260017,12.06121428
41.139706,-9.22725296,-0.739808321,-5.386953831,10.71021872
41.14471216,-7.850587368,-1.130063176,-0.1316810995,7.932597602
41.14971708,-6.358999729,-2.063801765,4.153939724,7.870919293
41.15427431,-5.212177277,-3.232172251,6.576871872,8.992717778
41.15924816,-4.000710964,-4.438849926,8.712499619,10.56488175
41.16425393,-2.506729126,-5.861005783,11.65736771,13.28643299
41.16970654,-2.023100376,-7.845798969,15.56949329,17.55159873
41.17471085,-2.995146275,-9.320627213,17.14008904,19.73898794
41.17971516,-3.430891037,-10.723629,17.13290787,20.50131128
41.18472039,-3.215412855,-12.32535076,15.62456036,20.15886995
41.189725,-2.612074137,-13.61343098,13.56315231,19.39349208
41.19473,-1.496376038,-14.81771469,10.42435455,18.17886074
41.19970562,0.4022258818,-15.8208847,5.343858242,16.70386181
41.20471023,3.402160645,-16.80729675,-2.592920542,17.34310117
41.20971339,7.110779285,-17.68357468,-11.74116516,22.38586507
41.21471823,8.006210327,-17.59020042,-13.50090313,23.57517635
41.21972262,7.314286232,-16.69955635,-12.32295609,22.00520875
41.2247297,6.035782337,-15.35162163,-9.859322548,19.21741908
41.22970293,4.42209053,-13.67089176,-6.512228489,15.77521113
41.23470785,3.450044632,-12.42590714,-4.479551315,13.65182611
41.23971177,2.243366957,-11.24556541,-2.643198729,11.76783482
41.24471831,0.7757213712,-10.13226128,-0.8283938169,10.19562154
41.24927423,-0.5746083856,-9.076418877,0.2250549644,9.097373476
41.2546967,-2.035071373,-7.991845131,0.7015010715,8.276666469
41.25970262,-3.126827478,-7.017405033,0.3734954596,7.691587764
41.26470777,-4.118026733,-6.227318764,0.1149216816,7.466649192
41.26971116,-4.661510944,-5.714959621,0.0359130241,7.375075424
41.27471608,-4.90811348,-5.463568211,0.1939303428,7.346956138
41.27972262,-5.15950489,-5.432443619,0.4932055473,7.508341102
41.28472685,-5.322310448,-5.307945251,0.1987187415,7.519359044
41.28973031,-5.193023682,-5.240907669,-0.4955997467,7.394607986
41.294706,-4.860229492,-5.193023682,-1.015141487,7.184694699
41.2997097,-3.888183594,-5.360617638,-1.474828243,6.784490509
41.3047167,-2.863465309,-5.71974802,-1.716642618,6.622825143
41.30972039,-1.920149803,-6.222530365,-1.762132406,6.746256001
41.31472447,-1.043871999,-6.766014099,-1.527500629,7.01440473
41.319729,-0.2992752194,-7.481880188,-1.197100878,7.582951095
41.32425762,0.02633621916,-7.893682957,-1.036689281,7.961510465
41.32970908,0.5674257874,-8.535328865,-0.9433154464,8.606024337
41.33471339,0.9121908545,-8.935160637,-0.758961916,9.013612536
41.33971823,1.199495077,-9.248801231,-0.4022258818,9.33492894
41.34472416,1.328781962,-9.478644371,-0.08619125932,9.571718213
41.3497287,1.335964561,-9.600749016,0.1628057212,9.694621636
41.35470231,1.139639974,-9.651026726,0.3423708379,9.72410993
41.35926316,0.7709329724,-9.574412346,0.5291185975,9.619962365
41.3647137,0.215478152,-9.385271072,0.6943184733,9.413385261
41.36971762,-0.3040636182,-9.131484985,0.5602431893,9.153706635
41.37472293,-0.9385270476,-8.808267593,0.3519476354,8.8651158
41.37972693,-1.496376038,-8.485051155,0.03351882473,8.616052336
41.38470223,-1.915361404,-8.130708694,-0.4477157295,8.365254483
41.38925893,-2.262520552,-7.87931776,-0.9600749016,8.253750144
41.39471146,-2.552218914,-7.627926826,-1.326387763,8.152201761
41.399717,-2.626439333,-7.541735172,-1.498770237,8.125408618
41.404722,-2.573766708,-7.51061058,-1.661576033,8.111373575
41.409725,-2.437297344,-7.522581577,-1.817199111,8.113683784
41.41473085,-2.370259762,-7.61356163,-1.963245392,8.212112061
41.41970562,-2.243366957,-7.845798969,-2.090138197,8.423653272
41.42471146,-1.97042799,-8.228871346,-2.138022184,8.727430833
41.42971577,-1.496376038,-8.769960403,-2.099714994,9.141124098
41.43471923,-1.120486379,-9.514557838,-2.042253971,9.795565419
41.439726,-0.8164227605,-10.12986755,-1.915361404,10.34163295
41.444282,-0.5482721925,-10.63264942,-1.829170108,10.80276351
41.44970539,-0.3040636182,-10.99656868,-1.850717902,11.15536347
41.45426139,-0.1197100878,-11.21204662,-1.968033791,11.38408876
41.45971339,0.04788403213,-11.22641182,-2.135627985,11.42783978
41.46472046,0.01197100803,-11.06121159,-2.250549555,11.28784826
41.46972346,-0.05267243832,-10.7140522,-2.30801034,10.95995441
41.47472808,-0.1221042871,-10.23042393,-2.319981337,10.49089112
41.47970262,-0.09337386489,-9.945513725,-2.351106167,10.22006175
41.48470847,0.0023942017,-9.749189377,-2.595314741,10.08872429
41.48971277,0.1029506698,-9.605537415,-3.090914488,10.09111987
41.49426962,0.3591302633,-9.619902611,-3.615244627,10.28306834
41.49969116,0.9193734527,-9.847352028,-3.79480958,10.59321336
41.50472746,1.651999116,-10.21366405,-3.320757866,10.8662536
41.5097017,2.49236393,-10.73081207,-2.432508945,11.28181304
41.51470593,3.493140221,-11.30063248,-1.292868972,11.89864838
41.51971277,4.644751072,-11.94467258,0.0191536136,12.81597763
41.52471708,5.341464043,-12.40196514,0.8619126081,13.53081191
41.52972108,5.791574001,-12.79940224,1.45088625,14.12345914
41.53472662,6.030993938,-13.20641613,1.766920805,14.62546833
41.53973154,5.98789835,-13.6301899,1.55862534,14.96884485
41.54470562,5.564124584,-14.03720474,0.7637503147,15.11905797
41.54970939,4.951209068,-14.16888523,-0.2106897533,15.0105353
41.55471485,4.019864559,-14.08508873,-1.254561663,14.70112106
41.55971923,2.731784105,-13.87439919,-2.202665567,14.31130088
41.56472508,0.9648633003,-13.59906578,-3.303998232,14.02789919
41.56972908,-0.5698199868,-13.40513515,-4.007893562,14.00305517
41.57470408,-2.078166962,-13.29021358,-4.546588898,14.19929666
41.5797087,-3.416525841,-13.26866627,-4.865017891,14.53955131
41.58471454,-4.371812344,-13.28063679,-4.932055473,14.82609955
41.58971862,-5.092466831,-13.26627159,-4.611232281,14.93956638
41.59472377,-5.281609058,-13.31176186,-4.38617754,14.97788207
41.59973054,-4.932055473,-13.44344234,-4.118026733,14.89998179
41.60470377,-4.268861771,-13.58709431,-3.617638826,14.69420373
41.6097087,-3.148375273,-13.69004536,-2.664746523,14.29791883
41.6142657,-2.449268341,-13.78102493,-2.205059767,14.16961016
41.61971739,-1.474828243,-14.06114674,-2.145204782,14.30010033
41.62472262,-0.7757213712,-14.37478733,-2.564189911,14.62228862
41.62928077,-0.0359130241,-14.58068848,-2.93529129,14.87325456
41.63470131,0.3950432837,-14.35563374,-2.868253708,14.64469728
41.63970662,0.1699883193,-13.89355278,-2.185906172,14.0654858
41.64471339,-0.3088520169,-13.5272398,-1.242590666,13.58770171
41.64926839,-1.067813993,-13.19683933,0.1316810995,13.24062442
41.65427339,-2.185906172,-13.03642845,1.879448295,13.35136616
41.65969554,-3.538630009,-13.38119316,3.622427225,14.30734817
41.66473331,-4.249708176,-13.76426601,4.568136692,15.11234301
41.66970539,-4.989516258,-14.00368595,5.157110691,15.73512896
41.67470993,-5.691017628,-14.07790565,5.734113216,16.23130197
41.67971639,-6.835445881,-14.00368595,5.849034786,16.64445098
41.6847207,-7.745242596,-14.05156994,5.221754074,16.87311815
41.68972447,-8.676587105,-14.24550056,4.019864559,17.15741126
41.69472993,-9.232041359,-14.60223579,2.360682964,17.43641884
41.69970439,-9.581595421,-15.42823601,-0.2059013397,18.16259432
41.704262,-9.392453194,-16.02439117,-1.886630893,18.66972591
41.70971431,-8.851364136,-16.92700577,-4.362235546,19.5933476
41.71471854,-8.583212852,-17.57583427,-5.341464043,20.27591506
41.71972354,-8.50420475,-17.87032127,-5.559336185,20.55665585
41.72472839,-8.348581314,-17.70033264,-5.360617638,20.2912988
41.72970316,-7.989450932,-17.23346329,-4.845864296,19.60372372
41.73470754,-7.280767441,-16.53675079,-4.153939724,18.53992763
41.73971239,-6.169857979,-15.79454899,-3.41892004,17.29809063
41.7447177,-4.587290287,-14.80334949,-2.432508945,15.68755839
41.74972231,-3.672705412,-13.83848572,-2.063801765,14.46553593
41.75472808,-3.143586874,-12.94544888,-1.508347034,13.40678544
41.75970231,-1.592144132,-12.62223148,0.5506663918,12.73416209
41.76470593,1.453280449,-12.57913589,2.518700123,12.91086884
41.76971185,2.93768549,-12.67729759,3.481169224,13.4707984
41.77471647,4.450820923,-12.77067184,2.123656988,13.68976936
41.7797217,4.01507616,-12.40914726,0.6320692301,13.05784377
41.78472754,3.241749048,-12.08114147,0.3543418646,12.51353165
41.78973177,2.760514498,-11.48259163,0.6488286853,11.82756651
41.79470531,2.67671752,-11.08036518,0.8427590132,11.4302035
41.79970931,2.300827742,-10.52251625,0.85473001,10.80498588
41.80426839,1.812410712,-9.871294022,1.149216771,10.1018799
41.80972016,1.278503656,-9.239224434,1.443703651,9.438332478
41.8147247,0.8619126081,-8.367734909,1.529894829,8.549997605
41.8197297,0.3519476354,-7.623138428,1.786074519,7.837484853
41.82470447,-0.383072257,-7.10359621,2.011129379,7.392730541
41.82926139,-1.168370485,-6.208165169,2.418143749,6.764157268
41.83426662,-1.853112102,-5.530605793,2.557007313,6.368666367
41.83972039,-2.360682964,-4.776432514,2.667140722,5.958252366
41.84472439,-2.482787132,-4.307168961,2.573766708,5.598232888
41.84972847,-2.334346771,-3.806780815,2.540247917,5.137471606
41.85470262,-2.557007313,-3.385401249,2.221819162,4.78912397
41.85970654,-2.870647907,-3.035847664,1.8602947,4.573585772
41.86471393,-3.026270866,-2.841917515,1.632845521,4.461053128
41.8697167,-3.016694069,-2.707842112,1.544260144,4.33792478
41.87472254,-3.004723072,-2.604891539,1.48679924,4.245514415
41.87972724,-2.760514498,-2.437297344,1.355118155,3.923927096
41.88470285,-2.717418909,-2.252943754,1.37666595,3.788842861
41.88970754,-2.887407303,-1.869871497,1.405396342,3.716003125
41.89471208,-3.007117271,-1.549048543,1.527500629,3.711544671
41.89971616,-3.066972494,-1.352723956,1.690306425,3.754106843
41.904274,-3.078943491,-1.328781962,1.771709204,3.792691396
41.90969639,-3.12203908,-1.297657371,1.920149803,3.888189544
41.91470016,-3.210624456,-1.261744261,1.922544003,3.949213013
41.919706,-3.308786631,-1.307234168,1.934514999,4.049602255
41.92471,-3.280056238,-1.403002143,2.037465572,4.108339068
41.92971577,-3.138798475,-1.522712231,2.080561161,4.061950658
41.93472016,-3.009511471,-1.678335428,2.159569979,4.066658529
41.93972531,-2.554613113,-1.82198751,1.977610588,3.708993163
41.94428193,-2.22900176,-1.975216389,1.70946002,3.433974693
41.949257,-2.080561161,-2.128445387,1.460463047,3.315413522
41.95426139,-2.078166962,-2.224213362,1.086967587,3.23224404
41.9597137,-2.04464817,-2.22900176,0.8044517636,3.129884603
41.96427185,-1.948880196,-2.30561614,0.5554547906,3.069613954
41.9692457,-2.003946781,-2.382230759,0.1556231081,3.116896636
41.97425093,-2.114080191,-2.559401512,-0.4429273009,3.349038033
41.97925554,-2.250549555,-2.837129116,-1.594538331,3.956870911
41.98470877,-2.123656988,-3.112462282,-2.537853718,4.542911176
41.98971277,-1.398213744,-3.799597979,-3.799597979,5.552377083
41.99471731,-1.18991828,-4.534617901,-5.293580055,7.071114114
41.99927739,-0.7134721279,-5.494692802,-6.651092529,8.656657744
42.00470008,0.05985504389,-6.811503887,-7.910442352,10.4391219
42.00970162,0.282515794,-8.145073891,-9.370905876,12.41917553
42.01470624,0.07422025502,-9.722852707,-11.39879417,14.98238573
42.01971116,-0.1053448766,-10.80503273,-12.36844635,16.42371136
42.02471793,-0.5554547906,-11.8967886,-12.52646351,17.28451321
42.0297207,-1.316810966,-13.29260826,-12.14817905,18.05562737
42.0347257,-2.650381327,-15.51682091,-11.88002872,19.72134211
42.03972962,-3.560178041,-18.05467415,-11.75074196,21.83405741
42.04425862,-4.86980629,-20.84152603,-12.08592987,24.57954274
42.04971,-6.579266071,-23.03700829,-16.36436844,29.01349767
42.05471516,-8.365341187,-24.59084511,-24.75125694,35.87914877
42.05971954,-8.157045364,-25.2085495,-24.79674721,36.28893811
42.06472654,-6.806715488,-23.53739738,-20.48239517,31.93538732
42.06973031,-4.453215122,-20.06340981,-16.0459404,26.07381332
42.0747047,-1.716642618,-15.64850235,-12.59828949,20.16282187
42.07971208,0.9433154464,-9.464279175,-10.20887566,13.95290531
42.08471524,2.303221941,-4.8314991,-9.595960617,10.98775114
42.08971862,3.086126089,-1.283292055,-9.026140213,9.625082851
42.09472347,3.213018656,0.9576807022,-8.010998726,8.684281306
42.09972785,2.224213362,1.654393315,-6.414066315,6.987445099
42.10470354,0.9744400978,0.1125274822,-4.67827034,4.780000974
42.10970747,-0.3687070608,-2.169146776,-3.224989653,3.904062102
42.11471208,-1.948880196,-4.692635536,-1.666364431,5.347497799
42.11926962,-3.79480958,-7.402871609,0.117315881,8.319666509
42.12469301,-6.349422932,-11.10909557,3.05021286,13.15412386
42.12972724,-7.773972988,-14.34605694,5.334281445,17.16678666
42.13470077,-8.319850922,-17.74821663,6.710947514,20.71849245
42.13970624,-7.910442352,-21.20065689,5.501875401,23.28762727
42.144713,-6.411672115,-24.57169151,1.63763392,25.44718861
42.14971647,-3.754108191,-27.94751549,-2.875436306,28.34475409
42.15472077,-0.7805097699,-28.9985714,-6.900089264,29.81840992
42.15972747,2.940079689,-27.08320999,-9.916783333,28.99115251
42.16473239,4.625597477,-22.64196587,-7.903259754,24.42368287
42.16970501,2.614468336,-14.61899567,2.882618904,15.12811855
42.17470993,-0.9504981041,-8.159439087,10.79545593,13.56546209
42.17971424,-3.210624456,-4.019864559,9.157821655,10.50395725
42.18472077,-5.061342239,-1.795651317,3.179499865,6.241055063
42.18972508,-8.310274124,-0.1005564705,-4.65193367,9.524245613
42.19472993,-9.58638382,1.058237195,-8.015787125,12.540792
42.19925608,-8.753201485,1.197100878,-5.245696068,10.27467342
42.20470939,-6.962338448,0.5506663918,-0.1604115069,6.98592313
42.2097137,-5.176264286,-0.7709329724,3.174711466,6.12101646
42.2147177,-2.803610086,-3.098097086,5.568912983,6.962128043
42.21972416,-0.8786720037,-5.173870087,7.639897823,9.268712689
42.22472993,-0.4836287498,-7.026981831,10.65419769,12.77201233
42.22970354,-1.912967205,-8.398859978,13.02685165,15.6172711
42.23470808,-3.720589399,-9.370905876,14.32929707,17.52099931
42.239714,-4.153939724,-10.74038887,13.83848572,18.00319014
42.24471831,-4.311957359,-11.81538582,12.50012684,17.73272369
42.2497217,-4.000710964,-12.86165142,10.56561184,17.11899293
42.25472716,-3.064578056,-13.95101357,7.989450932,16.36623794
42.25970193,-1.359906554,-15.15050793,3.49553442,15.60788253
42.26425954,0.6751648784,-15.75384712,-1.256955862,15.8183275
42.26971116,2.961627483,-16.45055962,-10.20648193,19.5848008
42.27471516,3.90254879,-16.55829811,-12.14099693,20.90002225
42.27972008,3.392583847,-15.56709957,-10.38365269,19.01747768
42.28472778,2.777273893,-14.31253815,-7.524975777,16.40692716
42.28973085,2.26730895,-13.09388924,-4.86980629,14.15293745
42.29470562,1.759738207,-11.95185471,-3.076549292,12.46630118
42.29971,1.101332784,-11.07318306,-1.731007814,11.26164753
42.30426724,0.2418143749,-10.23042393,-0.6224924326,10.25219707
42.30972078,-0.7422025204,-9.272743225,0.1843535304,9.304225799
42.31472508,-1.355118155,-8.573636055,0.117315881,8.680860754
42.31973093,-2.063801765,-7.948749542,0.1029506698,8.212946843
42.3242577,-2.746149302,-7.362170219,0.2418143749,7.861384135
42.32970901,-3.763684988,-6.672640324,-0.3854664862,7.670595674
42.33471362,-4.182670593,-6.251260757,-0.5985504389,7.545280444
42.33971862,-4.288015366,-5.956773758,-0.3280056417,7.346959717
42.34472385,-4.05577755,-5.956773758,0.2370259613,7.210316667
42.34972878,-4.005499363,-5.839457989,-0.4405331016,7.094882956
42.35470201,-3.751713991,-5.750872612,-1.125274777,6.958026803
42.35970693,-3.150769472,-5.817910194,-1.429338455,6.768931652
42.36471454,-2.346317768,-5.973533154,-1.544260144,6.600988168
42.36971831,-1.48679924,-6.258443356,-1.663970232,6.644357166
42.3747217,-0.9433154464,-6.524199486,-1.640028119,6.792990151
42.37972685,-0.5817909837,-6.809109688,-1.625662923,7.02461639
42.38470254,-0.3926490843,-7.17063427,-1.644816518,7.367332659
42.38970593,-0.2226607651,-7.505822182,-1.513135433,7.660060266
42.39471054,-0.01197100803,-7.941566944,-0.9672574997,8.00026349
42.39971739,0.09576806426,-8.300697327,-0.6033388376,8.323146363
42.40472254,0.1556231081,-8.473079681,-0.4141969085,8.484624736
42.4097257,0.117315881,-8.540117264,-0.2418143749,8.544345504
42.41473001,-0.1364694983,-8.568847656,-0.3088520169,8.575497866
42.41970562,-0.3806780577,-8.588001251,-0.3303998411,8.602781255
42.42471116,-0.6392518282,-8.616731644,-0.1915361285,8.642533958
42.42971493,-0.9768342972,-8.578424454,0.05267243832,8.63402257
42.43471954,-1.357512355,-8.489839554,0.1915361285,8.599819855
42.43927639,-1.675941229,-8.38928318,0.3256114423,8.561242555
42.44425147,-2.027888775,-8.204929352,0.5434837937,8.469272294
42.44970501,-2.22900176,-8.025363922,0.517147541,8.345199609
42.45470816,-2.286462545,-7.867346764,0.3303998411,8.199525604
42.45926624,-2.322375536,-7.714118004,0.0,8.056118464
42.46471924,-2.130839586,-7.649474621,-0.3447650373,7.948194905
42.46972385,-1.881842494,-7.726089001,-0.4716577232,7.965942721
42.47472839,-1.601720929,-7.88171196,-0.5746083856,8.063316201
42.47970478,-1.414973259,-8.056488991,-0.7541735172,8.214495838
42.48470816,-1.192312479,-8.32463932,-1.158793569,8.489053622
42.4897127,-1.063025594,-8.626308441,-1.608903527,8.83921893
42.49427054,-1.007958889,-8.923190117,-2.185906172,9.242158231
42.49924439,-0.9433154464,-9.272743225,-2.784456491,9.727631207
42.50469701,-0.8451532125,-9.804255486,-3.49553442,10.4430106
42.5092537,-0.7805097699,-10.06282997,-3.847482204,10.80152127
42.51470562,-0.6703764796,-10.39562416,-4.180276394,11.22466556
42.51971154,-0.5195417404,-10.59673691,-4.170699596,11.39980227
42.52471608,-0.3543418646,-10.73799419,-3.926490784,11.43885516
42.52972131,-0.2992752194,-10.74757099,-3.359065056,11.2642428
42.53472562,-0.1268926859,-10.82179165,-2.908955097,11.20666302
42.53973062,0.1723825186,-10.82897472,-2.671929121,11.15507125
42.54470685,0.5482721925,-10.79784966,-2.595314741,11.11889465
42.54971001,1.122880578,-10.86728191,-2.626439333,11.23640781
42.55426816,1.55862534,-10.9343195,-2.60010314,11.34677012
42.55972139,2.262520552,-11.15458584,-2.738966703,11.70665294
42.56472662,2.985569477,-11.2838726,-2.782062292,11.9991365
42.56973116,3.919308186,-11.33415127,-2.597708941,12.27078047
42.57470378,4.572925091,-11.42752457,-2.30801034,12.52305367
42.57970901,5.035006046,-11.64779091,-2.030282974,12.85085086
42.58471493,5.248090267,-11.9805851,-1.764526606,13.19812202
42.58927147,5.20020628,-12.38999367,-1.537077546,13.5246699
42.59469278,4.948814869,-12.89756489,-1.350329757,13.88024997
42.59972785,4.5370121,-13.19923401,-1.18752408,14.00765757
42.60470354,3.988739967,-13.40752983,-0.9840168953,14.02284536
42.60926008,3.327940464,-13.54639339,-0.9481038451,13.98137556
42.6147127,2.375048161,-13.71638107,-1.362300754,13.98698777
42.61971762,1.534683347,-13.86482239,-2.08295536,14.1041574
42.62472262,0.4189853072,-14.01086807,-2.906560898,14.31530891
42.62972693,-0.7757213712,-14.08030033,-3.682282209,14.57449153
42.63470193,-2.011129379,-14.09227085,-4.206612587,14.84359554
42.63926047,-3.004723072,-13.97016716,-4.362235546,14.94065026
42.64471308,-3.56496644,-13.8959465,-4.185064793,14.94393128
42.64971701,-3.485957623,-13.95101357,-3.897760391,14.89883271
42.65472039,-3.150769472,-14.15691471,-3.636792421,14.95231893
42.65972593,-2.487575531,-14.67406178,-3.375824451,15.26146493
42.66473178,-1.668758631,-15.1720562,-3.303998232,15.61705635
42.66970501,-0.806845963,-15.51682091,-2.911349297,15.80818415
42.67468347,-0.3136404157,-15.5503397,-1.843535304,15.66237713
42.67971462,-0.3136404157,-15.5503397,-1.843535304,15.66237713
42.68472016,-0.4453215301,-14.70758057,1.096544385,14.75512274
42.68972447,-1.18991828,-14.45858383,2.190694571,14.67193561
42.69472878,-1.915361404,-14.8679924,2.901772499,15.26912214
42.69970408,-2.197877169,-15.62695408,3.696647406,16.20794743
42.70470878,-2.930502892,-16.39788818,4.307168961,17.20553075
42.70971339,-3.780444384,-16.78335381,4.817133904,17.86553956
42.71471862,-4.857835293,-16.87912178,5.279214859,18.34048596
42.71972508,-6.256049156,-16.68758583,5.425261021,18.62920098
42.72472939,-7.323863029,-16.47210693,4.79319191,18.65325616
42.72970262,-8.638279915,-16.33324432,3.749319792,18.85343865
42.73470685,-9.840168953,-16.37873459,2.41335535,19.25918367
42.73971278,-10.77630138,-16.87433434,0.4094084799,20.02596929
42.74471739,-10.86488724,-17.44654846,-1.295263171,20.59382273
42.74972231,-10.55124664,-18.01397324,-2.870647907,21.07303151
42.75472662,-9.945513725,-18.24860573,-3.811569214,21.12943241
42.75970162,-8.841787338,-18.03791618,-4.007893562,20.48430703
42.76470685,-8.06127739,-17.4800663,-4.326322556,19.72952047
42.7692647,-7.630321026,-16.66124916,-4.302380562,18.82364208
42.7747167,-6.983886242,-15.71075153,-4.070142746,17.66828919
42.77927339,-5.762843609,-14.7889843,-3.64158082,16.28451823
42.78469516,-3.998316765,-13.55597019,-2.954444885,14.43882299
42.78973124,-3.694253206,-12.61265469,-2.619256735,13.40101007
42.79470539,-3.330334663,-11.79383755,-1.628057122,12.36269805
42.79971147,-1.139639974,-11.6023016,2.147598982,11.85429724
42.80471516,1.546654344,-11.877635,4.570530891,12.82030052
42.80971947,3.531447411,-11.98776817,3.943250179,13.10446216
42.81472447,4.991910458,-12.07635307,2.71502471,13.3464914
42.81972908,5.571307182,-12.18169785,0.4453215301,13.40266904
42.82470408,5.20020628,-11.95903778,0.4189853072,13.04746254
42.82926101,5.073313236,-11.901577,0.7613561153,12.96015838
42.83471401,4.458003521,-11.70046329,0.9840168953,12.55957507
42.83927085,3.610456228,-11.312603,1.072602391,11.92312277
42.84469216,2.351106167,-10.46984386,1.230619669,10.80091457
42.84972839,1.352723956,-9.516951561,1.572990537,9.740458323
42.85425516,0.5195417404,-8.343792915,2.039859772,8.60522119
42.85970754,-0.6344634295,-7.331045628,2.525882721,7.779900858
42.86471301,-1.489193439,-6.449979305,2.803610086,7.188891407
42.86971701,-2.039859772,-5.535394192,2.920926094,6.582812924
42.87472162,-2.346317768,-4.75488472,2.940079689,6.062854472
42.87972939,-2.446874142,-3.732560396,2.839523315,5.289810283
42.88470193,-2.619256735,-2.918531895,2.679111719,4.749312989
42.88970662,-2.928108692,-2.166752577,2.501940727,4.419088667
42.89471124,-3.303998232,-1.702277422,2.41335535,4.431527591
42.89971616,-3.727771997,-1.539471745,2.22900176,4.608113081
42.90427432,-3.90254879,-1.549048543,2.092532396,4.69128237
42.90969485,-3.873818398,-1.532289028,1.934514999,4.593117343
42.91473116,-3.912125587,-1.424550056,1.786074519,4.530356682
42.91970562,-3.962403774,-1.371877551,1.572990537,4.4785032
42.92426285,-3.871424198,-1.44849205,1.379060149,4.357506332
42.92971485,-3.615244627,-1.63763392,1.211466074,4.149637167
42.93471893,-3.335123062,-1.977610588,1.010353088,4.006844499
42.93972501,-3.284844637,-2.178723574,0.8762778044,4.037933071
42.9447297,-3.205836058,-2.398990154,0.7972691655,4.082667842
42.94925732,-3.268085241,-2.549824715,0.9481038451,4.252162758
42.95470932,-3.303998232,-2.604891539,1.333570361,4.413646356
42.95971585,-3.363853455,-2.63601613,1.592144132,4.560593606
42.96427147,-3.41892004,-2.624045134,1.82198751,4.679130858
42.96969339,-3.471592426,-2.604891539,2.04704237,4.79872862
42.97472808,-3.088520288,-2.427720547,2.257732153,4.531019653
42.97970324,-2.913743496,-2.375048161,2.442085743,4.48269313
42.98470747,-2.741360903,-2.355894566,2.540247917,4.417935976
42.98971247,-2.578555346,-2.341529369,2.501940727,4.288521291
42.99471732,-2.657563925,-2.365471363,2.355894566,4.267123151
42.99927555,-2.868253708,-2.387019157,2.147598982,4.305452494
43.00469708,-3.191470861,-2.410961151,1.740584612,4.362092929
43.00925393,-3.512293816,-2.470816135,1.218648672,4.463882257
43.01470624,-3.943250179,-2.640804529,0.3639186621,4.759780177
43.01971147,-4.139574528,-2.8969841,-0.3064578176,5.061868286
43.02471639,-4.249708176,-3.136404276,-1.053448796,5.385796666
43.02972101,-4.204218388,-3.485957623,-1.960851192,5.80278297
43.03472624,-3.754108191,-4.058171749,-3.677493811,6.639732448
43.0397337,-3.260902643,-4.601655483,-5.123591423,7.619705264
43.04470532,-2.746149302,-5.272032261,-6.665457726,8.931068628
43.04971032,-2.00873518,-6.179434776,-9.220070839,11.27963375
43.05471462,-0.3854664862,-7.800309181,-12.82334423,15.01437861
43.05971955,1.063025594,-9.397241592,-14.96376038,17.70175973
43.06427647,1.592144132,-11.03487587,-14.58547688,18.35863677
43.06969893,1.910573006,-12.02846909,-13.44823074,18.14357374
43.07470324,2.420537949,-12.79461384,-12.12184334,17.79045343
43.0797087,1.570596337,-14.09705925,-12.95981407,19.21329314
43.08471393,-0.2968810201,-16.1153717,-14.54238129,21.70885066
43.08971862,-3.062183857,-18.72983932,-17.19036865,25.60649577
43.0942767,-4.560954094,-20.13763046,-20.70745087,29.24252014
43.09969855,-5.288791656,-22.38817978,-26.87491417,35.37602186
43.10470285,-4.934449673,-23.09446907,-24.88533211,34.30718656
43.10970747,-4.264073372,-21.62203598,-17.4896431,28.13507379
43.11471239,-2.97359848,-19.18234444,-11.57357121,22.59982691
43.11971947,-1.326387763,-16.03157425,-8.353369713,18.12593344
43.12427547,0.4118026793,-12.61026001,-7.187393665,14.52056702
43.12924839,2.092532396,-9.220070839,-7.383718014,11.99615313
43.13470078,2.892195702,-5.789179802,-8.154650688,10.41046236
43.13970624,2.609679937,-4.09169054,-7.762001991,9.154290566
43.14471147,1.826775908,-3.476380825,-6.457161903,7.557597086
43.14971639,0.6200982332,-4.417302132,-5.61679697,7.172551021
43.15472108,-0.8451532125,-5.956773758,-4.903325081,7.761445381
43.15972593,-2.504334927,-7.778761387,-3.708618402,8.974111243
43.16473062,-4.122815132,-9.911994934,-2.375048161,10.9948216
43.16970539,-6.260837555,-13.11304283,-0.07422025502,14.53119017
43.17470939,-7.441178799,-16.01242065,1.74776721,17.74326484
43.17971462,-8.006210327,-18.91658783,3.08373189,20.77128068
43.18471978,-8.492233276,-21.79681206,2.422932148,23.51785794
43.1897247,-7.316680431,-24.93082237,0.6799532771,25.99119184
43.19472908,-5.61679697,-26.32903671,0.3615244627,26.92391655
43.19970539,-2.932897091,-25.7975235,-0.4812345505,25.96816687
43.20470839,-0.5099649429,-22.32353592,-1.460463047,22.37707024
43.2097137,0.8140285611,-16.14888954,-0.4525041282,16.17572366
43.21471832,0.02154781483,-11.14261436,3.916913986,11.81103443
43.21927639,-2.08295536,-6.749254704,7.869740963,10.5746851
43.22469762,-4.043806553,-3.548206806,7.536946774,9.26000592
43.22970255,-5.968744755,-1.577778935,2.765302896,6.764776451
43.23470816,-8.171410561,-0.4453215301,-2.619256735,8.592483207
43.23971239,-9.35654068,0.2226607651,-6.768408298,11.55014209
43.24471739,-7.99423933,0.1699883193,-4.398148537,9.125813336
43.2497217,-6.260837555,-0.8762778044,0.3615244627,6.332191533
43.25472778,-4.941632271,-2.202665567,3.804386616,6.613986893
43.25925339,-3.720589399,-3.727771997,6.019022942,7.997981415
43.26425801,-2.128445387,-5.513846397,8.372523308,10.24850859
43.26971239,-1.968033791,-7.58961916,11.71482849,14.0965486
43.27471585,-3.181894064,-9.057265282,13.77384281,16.7892004
43.27972316,-4.79319191,-10.36210537,14.35802746,18.34396001
43.28472478,-5.382165432,-11.74834728,14.20719242,19.20509529
43.28973085,-5.092466831,-12.69645119,13.15374374,18.97772551
43.29470562,-4.374206543,-13.54399872,11.61666679,18.37173186
43.2997097,-3.179499865,-14.4944973,9.825803757,17.79736191
43.30471516,-1.18991828,-15.63413715,6.136339188,16.83736347
43.30972016,1.194706678,-16.60378838,1.019929886,16.67793061
43.31427647,4.19464159,-17.36035728,-7.050923824,19.20136844
43.31925155,5.94719696,-17.63090134,-12.16493893,22.23068988
43.32470416,5.085284233,-16.53914452,-11.65976238,20.86512583
43.32970839,3.576937437,-14.8727808,-8.808267593,17.65161942
43.33471301,2.367865562,-13.22556973,-5.741295815,14.61112451
43.33971824,1.687912226,-11.73158836,-3.361459255,12.31984665
43.34427547,1.510741234,-10.52969933,-2.075772762,10.83816126
43.34969793,1.144428372,-9.437943459,-1.120486379,9.572877454
43.35425578,0.3256114423,-8.82263279,-0.6272808313,8.850895627
43.3592617,-0.8092401624,-8.166622162,0.02154781483,8.206646787
43.36471332,-2.075772762,-7.426813602,0.8475474119,7.757881764
43.36926932,-3.179499865,-6.785167694,0.5027823448,7.510027304
43.37469185,-3.952826977,-6.344634533,0.04548983276,7.475379441
43.37972624,-4.426878929,-6.069301128,-0.3806780577,7.521874037
43.38470108,-4.604049683,-5.940014362,-0.349553436,7.523511927
43.38925885,-4.378994942,-5.975927353,-0.02154781483,7.408627993
43.39426408,-4.30956316,-6.021417141,-0.4979939461,7.421441705
43.39971616,-4.000710964,-6.124367714,-0.8786720037,7.367878433
43.40472109,-3.19625926,-6.418854713,-0.9504981041,7.233340565
43.40927893,-2.494758129,-6.68461132,-0.8116343617,7.180988579
43.4147007,-1.716642618,-6.983886242,-0.8667010069,7.243804218
43.41970501,-0.9576807022,-7.297526836,-0.9840168953,7.425586812
43.42426255,-0.7086837292,-7.596801758,-1.132457376,7.713370812
43.42971462,-0.3950432837,-7.948749542,-1.230619669,8.053142446
43.43427239,-0.0718260482,-8.216899872,-1.261744261,8.313519174
43.4396977,0.2896983922,-8.537723541,-1.283292055,8.638488694
43.44428224,0.3687070608,-8.875306129,-1.302445769,8.977937891
43.44925678,0.5889736414,-8.995016098,-1.101332784,9.08130709
43.45470847,0.6009446383,-9.028534889,-0.7374141216,9.078510687
43.45926601,0.5075707436,-9.030928612,-0.423773706,9.055102639
43.46471832,0.1723825186,-9.06205368,-0.3016694188,9.068711986
43.46972416,-0.2705447972,-8.875306129,-0.1532289088,8.880750671
43.47472785,-0.6200982332,-8.528146744,0.2418143749,8.554079898
43.47970293,-0.9816226959,-8.238448143,0.490811348,8.311227749
43.48470724,-1.259350061,-8.013393402,0.4644751251,8.125033756
43.48971247,-1.508347034,-7.824251175,0.3543418646,7.976188023
43.49471678,-1.604115129,-7.656657219,0.1675941199,7.824683566
43.49972193,-1.692700624,-7.517793179,-0.06224924326,7.706252309
43.50472624,-1.798045516,-7.438784599,-0.1197100878,7.653941109
43.50925393,-1.89860189,-7.383718014,-0.2968810201,7.629686703
43.51470632,-1.889025092,-7.414842606,-0.6775590777,7.681626974
43.51971339,-1.695094824,-7.666234016,-1.26653266,7.952898555
43.52471647,-1.426944256,-7.891288757,-1.692700624,8.195965078
43.52927393,-1.043871999,-8.147468567,-1.903390408,8.431714407
43.53424747,-0.5482721925,-8.51617527,-2.006340981,8.766484344
43.53925247,-0.004788403399,-9.011775017,-2.061407566,9.244539634
43.54470478,0.5458779931,-9.536105156,-2.056619167,9.77061752
43.54970962,0.8379706144,-9.945513725,-2.087743998,10.19676973
43.55471586,1.000776291,-10.21127033,-2.190694571,10.49146023
43.55971924,1.089361787,-10.31182671,-2.49236393,10.66453736
43.56472439,1.110909581,-10.3309803,-2.738966703,10.74547406
43.56972939,1.04147768,-10.3309803,-2.844311714,10.76586916
43.5742567,0.8714894056,-10.36689377,-2.918531895,10.80508254
43.57970878,0.6081272364,-10.42674828,-3.007117271,10.8687466
43.58471309,0.3878606856,-10.46745014,-2.987963676,10.89246874
43.58971801,0.2633621991,-10.52251625,-2.856282711,10.90646867
43.59472355,0.1699883193,-10.67095661,-2.777273893,11.02775867
43.59973032,0.181959331,-10.88404083,-2.906560898,11.26692284
43.60470347,0.2394201756,-11.07797146,-3.107673883,11.50810196
43.60970693,0.2777273953,-11.32696819,-3.349488258,11.81509257
43.61471239,0.4070142806,-11.50892735,-3.509899616,12.03912225
43.61971709,0.6631938815,-11.60948372,-3.38061285,12.1098506
43.62472224,0.9816226959,-11.63821411,-2.849100113,12.02202072
43.62972724,1.333570361,-11.64060879,-2.030282974,11.89135113
43.63470193,1.845929503,-11.5927248,-0.9193734527,11.77471747
43.63970562,2.260126352,-11.57357121,-0.1149216816,11.79274898
43.64426324,2.511517525,-11.55441761,0.383072257,11.83042818
43.64971616,2.621650934,-11.583148,0.5722141862,11.88990329
43.65472132,2.717418909,-11.65018559,0.2920926213,11.96647433
43.65972632,2.679111719,-11.72440529,-0.2322375625,12.02885087
43.66473147,2.549824715,-11.87524033,-0.9720458984,12.18473685
43.66970509,2.214636564,-11.99734497,-1.776497602,12.32870006
43.67470939,1.594538331,-12.30140877,-2.56658411,12.66706612
43.67971762,0.825999558,-12.62701988,-3.047818661,13.01587895
43.68472016,-0.02154781483,-12.98854446,-3.414131641,13.42978207
43.68972447,-0.8188169599,-13.20641613,-3.634398222,13.72183438
43.69472939,-1.915361404,-13.31176186,-3.782838583,13.97073659
43.69970347,-2.731784105,-13.35725117,-3.67988801,14.12162805
43.7047087,-3.107673883,-13.48174953,-3.289633036,14.22100183
43.70971278,-3.021482468,-13.66370869,-2.947262287,14.30079181
43.71471824,-2.540247917,-14.07072353,-2.71263051,14.55322935
43.71972409,-1.965639591,-14.45379543,-2.63841033,14.82353367
43.72428109,-1.252167463,-14.84644508,-2.602497339,15.12474289
43.72970293,-0.3543418646,-15.14332581,-2.523488522,15.35623225
43.73470747,0.5051765442,-15.1481142,-2.118868589,15.30392667
43.73971339,0.3112462163,-14.94700146,-1.719036818,15.04874793
43.74471739,-0.4333505034,-14.91108799,-1.479616642,14.99058381
43.7497217,-1.249773264,-15.25106525,-1.055842996,15.33856998
43.75472693,-2.494758129,-15.78976059,0.05985504389,15.98574178
43.75925462,-3.761290789,-16.01242065,1.30005157,16.4995472
43.76470662,-5.109226227,-16.1153717,2.104503393,17.03638261
43.76971124,-6.323086739,-16.06269836,3.098097086,17.53824137
43.77471639,-6.660669327,-15.90947056,4.496310711,17.82393277
43.77972016,-6.823474884,-15.67483807,5.384559631,17.92355546
43.78472562,-7.070077419,-15.40668774,5.767632008,17.90579796
43.78928324,-7.467514992,-15.181633,5.473145008,17.78204366
43.79425739,-8.195352554,-15.16966152,4.560954094,17.83493023
43.79926293,-9.021351814,-15.4569664,2.853888512,18.12311448
43.80426786,-8.6957407,-15.97411346,1.036689281,18.21710548
43.80971986,-7.601590633,-16.71870995,-1.249773264,18.40818773
43.81472386,-6.866570473,-17.06347466,-2.434903145,18.55372498
43.81972932,-6.088454723,-16.91742897,-3.095702887,18.24423362
43.82470439,-5.305551052,-16.47210693,-3.926490784,17.74532357
43.82970878,-4.544194698,-15.68680954,-5.030217648,17.08884983
43.83471332,-3.943250179,-14.97812557,-5.348646641,16.38601503
43.83972047,-3.251325846,-14.32211494,-4.898536682,15.48191712
43.84472355,-2.238578558,-13.76665974,-4.101267338,14.53796919
43.84972816,-1.206677675,-13.16332054,-3.047818661,13.56533366
43.85470262,-0.9361328483,-12.64138508,-2.286462545,12.8805618
43.85970809,-0.5770025849,-12.16254425,-1.532289028,12.27225832
43.86471301,0.1987187415,-11.95903778,-0.6344634295,11.97750465
43.86971732,1.867477298,-12.23197651,1.56101954,12.47178828
43.87472263,3.303998232,-12.44506073,1.836352706,13.00646501
43.87972755,3.751713991,-12.56237602,1.553836942,13.20238836
43.88470163,3.557783842,-12.35886955,1.22583127,12.9190613
43.88970686,2.815581083,-11.80341434,1.37666595,12.21242384
43.89471116,2.240972757,-11.21683502,1.460463047,11.53136155
43.89926878,1.479616642,-10.42914295,1.388636947,10.6247165
43.9047207,0.6751648784,-9.583989143,1.379060149,9.706209477
43.90927886,-0.1508347094,-8.743624687,1.340752959,8.847109261
43.91470047,-0.9864110947,-7.582436562,1.55862534,7.80356739
43.91970839,-1.482010841,-7.278373241,2.006340981,7.693924701
43.92471024,-1.826775908,-6.746860504,2.255337954,7.344643366
43.92971486,-2.061407566,-6.035782337,2.446874142,6.831344131
43.93471955,-2.293645144,-5.35104084,2.480392933,6.328253726
43.93972378,-2.420537949,-4.79079771,2.327163935,5.850336626
43.94473001,-2.535459518,-4.299986362,2.145204782,5.433262486
43.94970501,-2.650381327,-3.933673382,1.987187386,5.142686181
43.95470962,-2.71502471,-3.766079187,1.862688899,5.002431564
43.95971301,-2.667140722,-3.610456228,1.764526606,4.823130514
43.96427186,-2.576161146,-3.462015629,1.731007814,4.649574875
43.96969278,-2.358288765,-3.414131641,1.438915253,4.391844472
43.97472909,-2.19308877,-3.447650433,1.237802267,4.269436299
43.97970262,-2.099714994,-3.543418407,1.039083481,4.247859643
43.98470809,-2.205059767,-3.60327363,0.7637503147,4.292922544
43.98971209,-2.296039343,-3.610456228,0.6703764796,4.330888531
43.99471762,-2.494758129,-3.653551817,0.7110779285,4.480835951
43.99972416,-2.67432332,-3.684676409,0.8020575643,4.623001384
44.00472655,-3.002328873,-3.687070608,1.00556469,4.86000295
44.00970224,-3.251325846,-3.677493811,1.201889277,5.053673744
44.01470662,-3.394978046,-3.584120035,1.383848548,5.127068282
44.01971086,-3.56736064,-3.428496838,1.489193439,5.167044571
44.02471609,-3.751713991,-3.244143248,1.517923832,5.186898499
44.02927424,-3.8642416,-3.148375273,1.537077546,5.216055731
44.03424778,-3.739742994,-3.021482468,1.680729628,5.093121444
44.0392527,-3.464409828,-2.966415882,1.757344007,4.887741462
44.0447047,-3.15795207,-2.875436306,1.805228114,4.636770835
44.04926324,-2.873042107,-2.849100113,1.750161409,4.40849264
44.05426724,-2.633621931,-2.844311714,1.616086125,4.199739036
44.05927247,-2.494758129,-2.856282711,1.429338455,4.05279872
44.06469363,-2.360682964,-2.877830505,1.15400517,3.896980935
44.06972939,-2.310404539,-2.920926094,0.9600749016,3.845974805
44.07470439,-2.351106167,-2.956839085,0.5985504389,3.824769301
44.07971093,-2.434903145,-2.964021683,0.2035071403,3.841300954
44.08426686,-2.427720547,-2.992752075,-0.2681505978,3.862938879
44.08971862,-2.346317768,-3.126827478,-0.9935936928,4.033545038
44.09472347,-2.207453966,-3.327940464,-1.731007814,4.352519822
44.09972816,-2.051830769,-3.600879431,-2.662352324,4.925897083
44.10470324,-1.740584612,-4.070142746,-4.01507616,5.976331093
44.10970778,-1.45088625,-4.671087742,-5.231330872,7.161770332
44.11471186,-1.180341482,-5.477933407,-6.694188118,8.730012313
44.1197167,-1.326387763,-6.375759125,-8.152256966,10.43402619
44.12472201,-1.086967587,-7.702147007,-9.315838814,12.13628526
44.12972724,-1.321599364,-8.765172005,-10.59194851,13.81174277
44.13470163,-1.369483352,-9.864110947,-11.21204662,14.99620482
44.13925824,-0.9959878922,-11.28626728,-11.31020927,16.00914285
44.14426324,-1.259350061,-12.70602798,-11.41555405,17.1272877
44.14926816,-1.980004787,-14.44421864,-11.19289303,18.38033529
44.15427393,-2.264914751,-16.20635223,-10.9343195,19.68082911
44.1596967,-3.270479441,-19.01474953,-11.63103199,22.52859606
44.16473116,-3.847482204,-21.48077774,-15.51442719,26.77544365
44.1692577,-3.684676409,-23.86540222,-22.98433685,33.33787642
44.17471001,-2.731784105,-25.33783722,-25.4838829,36.04021264
44.17971524,-0.6679822803,-24.70816231,-20.85110283,32.33740828
44.18472016,0.3758896589,-22.36423874,-15.56709957,27.25133128
44.1897244,0.4525041282,-18.83279037,-11.72201157,22.18748089
44.19472909,1.053448796,-14.51604462,-10.0269165,17.67383264
44.19970416,1.984793186,-8.935160637,-9.493009567,13.1868772
44.2047084,2.264914751,-5.111620426,-9.629479408,11.13487206
44.2097137,1.886630893,-2.456450939,-9.40681839,9.903623557
44.21471832,1.072602391,-0.9504981041,-8.370129585,8.49193687
44.21972286,-0.4716577232,-0.5219359994,-6.95276165,6.988259637
44.2247284,-2.205059767,-1.304839969,-6.162675381,6.674088984
44.22970201,-3.818751812,-2.7533319,-5.054159641,6.907114566
44.23425986,-4.910507679,-4.620809078,-3.485957623,7.590577234
44.23971455,-6.459556103,-7.314286232,-1.027112484,9.812217292
44.24427001,-7.821856976,-9.627084732,1.441309452,12.48757702
44.24969178,-8.552088737,-11.99734497,3.876212597,15.23481317
44.25472786,-8.51617527,-14.45619011,5.365406036,17.61517118
44.25970078,-8.042123795,-17.41781807,4.568136692,19.72115651
44.26470632,-6.856993675,-19.86469078,2.312798738,21.14174402
44.26926447,-4.8314991,-22.11045265,-0.2633621991,22.63371069
44.27471547,-2.56897831,-23.4799366,-3.241749048,23.84147666
44.27972109,1.283292055,-22.9987011,-6.320692539,23.88594241
44.28427916,3.926490784,-20.71223831,-6.517016888,22.0654856
44.28925278,4.220977783,-17.12811852,-4.611232281,18.23328167
44.29425801,2.418143749,-12.85686302,-0.3543418646,13.08708921
44.29970963,-0.7661445141,-7.429207802,5.916072369,9.527854861
44.30471455,-3.090914488,-4.343081951,7.649474621,9.323656749
44.3092724,-4.809951305,-2.652775526,5.336675644,7.658521821
44.31469432,-6.768408298,-1.745373011,-0.4046200812,7.001528065
44.31973032,-8.216899872,-1.019929886,-4.855441093,9.5985941
44.32470378,-8.535328865,-1.079784989,-5.23851347,10.07272544
44.32970909,-7.912836552,-1.568202138,-1.793257117,8.263656051
44.33471432,-6.521805286,-2.731784105,2.45405674,7.484583026
44.33971832,-5.123591423,-4.048594952,4.266467571,7.800324076
44.34472355,-3.672705412,-5.693411827,5.449203014,8.694683247
44.3497294,-2.398990154,-7.462726593,6.969521046,10.4891213
44.35470224,-2.085349798,-9.3685112,8.892065048,13.08382615
44.35970747,-2.166752577,-10.6446209,9.892841339,14.69255187
44.3647127,-2.276885748,-11.77947235,10.0364933,15.64197479
44.3692694,-2.303221941,-12.72278786,8.827422142,15.65559146
44.3742447,-1.917755604,-13.34767437,7.237671852,15.30431611
44.37924909,-0.2729389966,-14.06593513,5.19781208,14.99807579
44.38470224,1.273715258,-14.63575459,1.82198751,14.8036246
44.38925863,2.097320795,-14.77701283,-0.5913678408,14.93681956
44.39471178,2.48996973,-14.49210262,-3.962403774,15.22897342
44.3997177,2.080561161,-13.92946529,-5.844246387,15.24840824
44.40427424,1.728613615,-13.23514652,-7.012616634,15.0775993
44.40969516,1.429338455,-12.52167511,-7.213729858,14.52147563
44.41473086,1.036689281,-11.6813097,-6.579266071,13.44672685
44.41970601,0.9935936928,-10.96304989,-5.147533417,12.15206944
44.42470932,0.6416460276,-10.25436592,-3.478775024,10.84737783
44.42971547,-0.08619125932,-9.600749016,-1.877054095,9.782900525
44.43472009,-0.9744400978,-8.889671326,-0.7757213712,8.976498952
44.43972378,-1.726219416,-8.418013573,-0.4692635238,8.605985954
44.44472878,-2.45405674,-7.91762495,-0.1197100878,8.290085032
44.44970324,-2.928108692,-7.489062786,0.2059013397,8.043772578
44.45470878,-3.332728863,-7.163451672,0.248996973,7.904689812
44.45971393,-3.459621429,-7.050923824,-0.3854664862,7.863402039
44.46471855,-3.447650433,-7.046135426,-1.101332784,7.921316295
44.46972324,-3.08373189,-7.194576263,-1.369483352,7.946497004
44.4742814,-2.765302896,-7.335834026,-1.22822547,7.935357508
44.47925801,-2.178723574,-7.465120792,-0.7326257229,7.810992594
44.48470778,-1.750161409,-7.565677166,-0.4094084799,7.776255606
44.4897127,-1.288080573,-7.647080421,-0.2992752194,7.760577053
44.49471801,-0.9121908545,-7.714118004,-0.4285621047,7.779676999
44.49972193,-0.5937620401,-7.716512203,-0.6440402865,7.766073772
44.50472755,-0.3184288144,-7.764396191,-0.8667010069,7.819105815
44.50970201,-0.04309562966,-7.912836552,-1.192312479,8.002277712
44.51470624,-0.004788403399,-7.903259754,-1.426944256,8.031046481
44.51971124,-0.2130839527,-7.800309181,-1.759738207,7.999181624
44.52471547,-0.3950432837,-7.785943985,-2.013523579,8.051786146
44.52972047,-0.6129156351,-7.807491779,-2.166752577,8.12572521
44.53472663,-0.7613561153,-7.867346764,-2.025494576,8.159499771
44.53973124,-0.9313444495,-8.046912193,-1.790862918,8.296227355
44.54470501,-1.089361787,-8.228871346,-1.527500629,8.44004093
44.54970993,-1.352723956,-8.482656479,-1.419761658,8.706379627
44.55471424,-1.556231141,-8.571242332,-1.328781962,8.812134361
44.55972163,-1.723825216,-8.485051155,-1.256955862,8.749148788
44.56472501,-1.8579005,-8.429984093,-1.288080573,8.727862146
44.56972901,-2.090138197,-8.384494781,-1.268926859,8.733762408
44.57470409,-2.178723574,-8.372523308,-1.144428372,8.726723283
44.57970786,-2.207453966,-8.449137688,-0.9457096457,8.783800283
44.58471393,-2.121262789,-8.544905663,-0.8212111592,8.84248587
44.58971955,-1.987187386,-8.585607529,-0.672770679,8.838223279
44.59472317,-1.877054095,-8.585607529,-0.5506663918,8.80563582
44.59972901,-1.707065821,-8.568847656,-0.4285621047,8.747736241
44.60470255,-1.517923832,-8.55448246,-0.3256114423,8.694209897
44.60970716,-1.240196466,-8.568847656,-0.2442085743,8.661574641
44.6147124,-1.146822572,-8.595184326,-0.08858546615,8.671807366
44.6197174,-1.00556469,-8.678980827,0.1053448766,8.737675096
44.62472232,-0.9050082564,-8.765172005,0.349553436,8.818699894
44.62972655,-0.8403648138,-8.966285706,0.4357447028,9.016117003
44.63470163,-0.7948749661,-9.141061783,0.1867477298,9.177456698
44.63970816,-0.7517793179,-9.332598686,-0.3327940404,9.368741765
44.64471055,-0.6009446383,-9.481039047,-1.043871999,9.557243568
44.64971578,-0.4740519226,-9.538499832,-1.908178806,9.739037459
44.65472101,-0.2513911724,-9.502586365,-2.518700123,9.833930824
44.65972632,-0.0143652102,-9.48343277,-2.956839085,9.933710325
44.66473117,0.4046200812,-9.449913979,-3.320757866,10.02457103
44.66970409,0.7565677166,-9.387664795,-3.368641853,10.00241935
44.67471024,1.110909581,-9.323021889,-3.292027235,9.949386944
44.67971432,1.434126854,-9.320627213,-3.19625926,9.95725287
44.68471924,1.776497602,-9.430760384,-2.829946518,10.00518778
44.68972532,2.049436569,-9.622296333,-2.161964178,10.07287775
44.69428193,2.245761156,-9.923966408,-1.216254473,10.2473327
44.69970386,2.52827692,-10.27830791,-0.4118026793,10.59270406
44.70470816,2.817975283,-10.60391903,-0.1029506698,10.97245106
44.70971401,2.961627483,-10.78827286,-0.3423708379,11.1926443
44.71471832,3.035847664,-11.018116,-0.8619126081,11.46115808
44.71972563,2.928108692,-11.29105568,-1.482010841,11.7583211
44.72472878,2.597708941,-11.61906052,-2.025494576,12.07697343
44.72970224,2.214636564,-11.83693314,-2.298433542,12.25970627
44.73470786,1.740584612,-12.07635307,-2.506729126,12.45598769
44.73971309,1.201889277,-12.32295609,-2.662352324,12.66443463
44.7447174,0.5075707436,-12.62223148,-2.834734917,12.94658556
44.7497217,0.04548983276,-12.8544693,-2.932897091,13.18489043
44.75472717,-0.4141969085,-13.01727486,-2.911349297,13.34529724
44.75970109,-0.624886632,-13.20162773,-2.782062292,13.50604785
44.76470632,-0.739808321,-13.5128746,-2.49236393,13.76070399
44.76971124,-0.6751648784,-13.8265152,-2.236184359,14.02244239
44.77471616,-0.4620809257,-14.17127991,-1.903390408,14.30599832
44.77972132,-0.2681505978,-14.58547688,-1.685518026,14.68499273
44.78472632,-0.05746084079,-15.08347034,-1.915361404,15.20470285
44.78928255,0.1221042871,-15.42105293,-2.202665567,15.57804605
44.79425855,0.2705447972,-15.63174248,-2.250549555,15.79523791
44.79971178,0.5674257874,-15.87116337,-1.936909199,15.99898172
44.80426747,1.000776291,-16.21113968,-1.594538331,16.32008442
44.80971986,1.580173135,-16.65167236,-1.046266198,16.759171
44.81472447,1.922544003,-16.95094872,-0.6631938815,17.07251194
44.8197294,2.092532396,-17.13769531,-0.4477157295,17.27077711
44.82470447,1.922544003,-17.14008904,-0.6607996821,17.26022838
44.82970847,1.381454349,-16.80729675,-1.103726983,16.90005484
44.83471394,0.6296750307,-16.19437981,-1.568202138,16.28231206
44.83971886,-0.3088520169,-15.58864689,-1.843535304,15.70031604
44.84427617,-1.290474772,-15.04276943,-1.628057122,15.185546
44.84969832,-3.34230566,-14.1808567,-0.9002198577,14.59719493
44.85470255,-5.018246651,-13.46977901,-0.09097966552,14.37449211
44.8597084,-6.646304131,-12.78743172,0.7948749661,14.43341937
44.86471209,-7.448361397,-12.51688671,1.611297727,14.65424242
44.8697174,-7.912836552,-12.53125191,2.437297344,15.01950981
44.8747217,-8.475474358,-12.70363426,2.93529129,15.55094608
44.87972963,-9.414001465,-12.8353157,3.052607059,16.20762668
44.88470263,-9.923966408,-12.9478426,2.930502892,16.57466695
44.88925955,-9.995792389,-13.12980175,2.509123325,16.69141274
44.89471055,-9.890447617,-13.37161636,1.776497602,16.72653646
44.89971586,-9.160215378,-13.88397598,0.6967126727,16.64811531
44.90472047,-8.329427719,-14.31972027,0.0359130241,16.56608114
44.9097254,-7.644686222,-14.5782938,-0.4788403511,16.46806502
44.91473086,-7.309497833,-14.76264763,-0.7469909191,16.49007335
44.91970624,-7.189787865,-14.66209126,-0.9121908545,16.35549026
44.92471086,-6.950367451,-14.33408546,-1.297657371,15.98303877
44.92971455,-6.528987885,-13.93185997,-1.690306425,15.47842178
44.93471978,-5.851428986,-13.5224514,-2.015917778,14.87144369
44.93972409,-4.718971729,-13.14656162,-2.643198729,14.21574044
44.9447297,-3.653551817,-12.83052731,-2.849100113,13.64141647
44.94970347,-2.655169725,-12.47618484,-2.667140722,13.0314525
44.95470809,-1.97042799,-12.16015053,-2.48996973,12.56788751
44.95971547,-2.020706177,-11.46104336,-2.106897593,11.82699394
44.96471894,-0.5793967843,-11.64300251,0.9313444495,11.69455474
44.96972355,1.462857246,-12.28225517,2.853888512,12.694031
44.97472847,2.475604534,-12.51928043,2.829946518,13.07170982
44.97970255,3.845088005,-12.5599823,1.240196466,13.19378431
44.98470755,4.209006786,-12.40675354,0.1604115069,13.10225184
44.98971217,4.295197964,-12.19606304,-0.004788403399,12.93030171
44.9942697,4.01507616,-11.89439392,-0.0143652102,12.55379025
44.99969186,3.411737442,-11.20725822,0.1843535304,11.71650867
45.00427978,2.880224705,-10.46266174,0.6488286853,10.87124481
45.00970132,2.298433542,-9.660603523,1.343147159,10.02068368
45.01470632,1.426944256,-8.252813339,1.862688899,8.57990139
45.01971124,0.4740519226,-8.054094315,2.312798738,8.392985074
45.02471647,-0.3663128614,-7.211335659,2.30561614,7.579802958
45.02972078,-0.7948749661,-6.572083473,2.126051188,6.952999428
45.0347254,-1.113303781,-5.791574001,1.920149803,6.202318114
45.03973278,-1.405396342,-5.257667065,1.802833915,5.733097938
45.04470478,-1.618480325,-4.738125324,1.544260144,5.239661205
45.04971055,-1.680729628,-4.376600742,1.482010841,4.916893559
45.05471486,-1.910573006,-4.027047157,1.26413846,4.633081487
45.05971986,-2.202665567,-3.878606796,0.9744400978,4.565617131
45.0647254,-2.370259762,-3.775655985,0.8140285611,4.531705193
45.06972994,-2.607285738,-3.706224203,0.7110779285,4.58690185
45.0747047,-2.679111719,-3.7181952,0.5674257874,4.617855257
45.07926194,-2.67671752,-3.730166197,0.4548983276,4.613663298
45.0847134,-2.624045134,-3.754108191,0.323217243,4.591667514
45.08971917,-2.655169725,-3.696647406,0.1867477298,4.555217122
45.09427547,-2.71263051,-3.521870613,0.1987187415,4.449879329
45.09969832,-2.942473888,-3.303998232,0.2777273953,4.433022604
45.10470232,-3.052607059,-3.172317266,0.6224924326,4.446290985
45.10970817,-2.968810081,-3.095702887,0.9864110947,4.401160814
45.11471309,-2.875436306,-3.129221678,1.182735682,4.411238596
45.11972047,-2.920926094,-3.12203908,1.316810966,4.473581158
45.12472232,-3.019088268,-3.088520288,1.395819545,4.538960646
45.12972724,-3.153163671,-3.066972494,1.436521053,4.627348502
45.1347014,-3.289633036,-3.05021286,1.477222443,4.723099633
45.13970632,-3.325546265,-3.071760893,1.462857246,4.757617499
45.1442644,-3.265691042,-3.153163671,1.474828243,4.773080501
45.1497164,-3.136404276,-3.260902643,1.393425345,4.734147444
45.15427301,-3.004723072,-3.339911461,1.194706678,4.648730295
45.15924747,-2.772485495,-3.447650433,0.9241618514,4.519628796
45.16470009,-2.655169725,-3.505111217,0.6703764796,4.448048509
45.16970532,-2.643198729,-3.509899616,0.3998316824,4.412001837
45.17471032,-2.784456491,-3.488351822,-0.117315881,4.464925464
45.17971463,-2.944868088,-3.459621429,-0.691924274,4.595648778
45.18471924,-3.062183857,-3.454833031,-1.268926859,4.787798724
45.18972417,-3.102885485,-3.514688015,-2.051830769,5.11770844
45.19472994,-3.129221678,-3.610456228,-2.813186884,5.544496634
45.19925763,-2.992752075,-3.801992416,-3.655946016,6.064458145
45.20470932,-2.810792685,-4.077325344,-4.587290287,6.750434775
45.20971278,-2.516305923,-4.378994942,-5.671864033,7.594566071
45.21471855,-2.152387381,-4.711789131,-6.698976517,8.468176582
45.21972378,-1.910573006,-5.255272865,-7.850587368,9.638459634
45.22472747,-1.537077546,-5.98550415,-9.059659004,10.96659877
45.22970286,-1.084573388,-7.146692276,-10.23281765,12.5284503
45.23470809,-0.9935936928,-8.118738174,-10.14423275,13.030986
45.2397127,-1.240196466,-8.911218643,-9.909601212,13.38462182
45.24471732,-1.321599364,-9.658209801,-9.868899345,13.87165512
45.24972224,-1.364694953,-10.93192482,-9.627084732,14.63045225
45.25472694,-1.462857246,-12.43787766,-9.583989143,15.77002219
45.25970163,-1.505952835,-14.40112305,-10.08677197,17.64662029
45.26470571,-1.331176162,-16.6061821,-12.14578533,20.6169206
45.26971186,-0.7350199223,-20.09453392,-16.68758583,26.13055814
45.27471609,0.06943184882,-23.2931881,-20.20466805,30.83514299
45.27972232,1.175553083,-25.18460846,-19.9245472,32.13462322
45.28472532,2.767697096,-24.93800545,-16.57027054,30.06888971
45.28973024,2.619256735,-22.55816841,-12.34210968,25.84684002
45.2947054,1.625662923,-19.52710915,-10.9199543,22.43203454
45.29971055,1.125274777,-15.97650814,-11.22880554,19.56019247
45.30471494,1.268926859,-12.25831223,-12.69884586,17.69567971
45.30927301,1.89620769,-9.016563416,-13.82890892,16.61724229
45.31469424,2.573766708,-6.119579315,-13.42428875,14.97614952
45.31972847,2.477998734,-4.795586109,-11.54484081,12.74446834
45.3247047,1.584961534,-4.304774761,-9.375694275,10.43775991
45.32970878,-0.5602431893,-4.730942726,-7.022193432,8.485687486
45.33471401,-3.287238836,-5.702988625,-5.008669853,8.271444379
45.33971824,-5.688623428,-7.381323814,-2.391807556,9.621076922
45.34427578,-7.498639584,-9.825803757,0.4141969085,12.36719751
45.3496974,-10.79545593,-12.88080502,4.000710964,17.2760729
45.35470347,-12.2798605,-15.70596313,6.543353081,20.98303413
45.35970847,-12.15296745,-18.57182312,7.747636795,23.50814982
45.36426501,-11.65257931,-21.38261604,7.390900612,25.44846332
45.36971678,-9.816226959,-24.34663773,3.914519787,26.54129886
45.37472171,-6.974309444,-25.21333885,-1.010353088,26.17965358
45.37972755,-2.738966703,-23.20699692,-5.547365189,24.01749165
45.38470163,1.714248419,-19.32120705,-5.726930618,20.22487141
45.38970724,1.879448295,-13.57991219,-4.527435303,14.43759022
45.39471147,0.423773706,-8.667010307,0.5434837937,8.694367513
45.39926901,-1.501164436,-4.290409565,5.669469833,7.266635885
45.40472047,-2.987963676,-1.000776291,6.641515732,7.351136737
45.40927801,-3.734954596,-0.1340752989,5.279214859,6.468227852
45.41470009,-6.086060524,0.895431459,1.278503656,6.28303285
45.41925794,-7.750030994,1.405396342,-4.345476151,8.99562573
45.42426317,-8.473079681,1.391031146,-6.658275127,10.86557291
45.42926717,-7.431602001,0.5243301988,-3.074155092,8.059408166
45.43472009,-5.973533154,-1.295263171,3.363853455,6.97684134
45.43972663,-4.740519524,-2.978386879,6.689399719,8.72303745
45.44472901,-2.336740971,-5.509057999,9.059659004,10.85760101
45.44970378,-2.063801765,-7.680599213,11.20486355,13.74044574
45.45470963,-2.97359848,-9.739612579,13.38598156,16.81924028
45.45971278,-3.895366192,-11.41315937,14.26704788,18.68107973
45.46471924,-4.639962673,-12.89517021,14.08508873,19.65208368
45.46972355,-3.612850428,-13.94861889,12.91911221,19.35252225
45.4747284,-2.846705914,-14.73870564,10.58955383,18.37040633
45.47925517,-1.735796213,-15.59822369,8.212111473,17.7131687
45.48470686,0.2705447972,-16.53914452,4.5394063,17.15292119
45.48926478,2.190694571,-16.96531296,-0.05506663769,17.10625671
45.49427001,4.759673119,-17.24543571,-7.065289021,19.23480829
45.49969209,6.457161903,-17.07065773,-11.83932781,21.75481506
45.50472663,5.224148273,-15.65329075,-11.74116516,20.25270836
45.50970163,3.610456228,-13.77623653,-9.390059471,17.05852585
45.51470601,2.45405674,-12.01171017,-7.127538681,14.18116297
45.51971248,1.740584612,-10.6302557,-5.590460777,12.13611234
45.5247164,1.242590666,-9.526528358,-4.158728123,10.46870545
45.52972048,0.7661445141,-8.877699852,-2.829946518,9.349284966
45.53472563,0.03830722719,-8.494627953,-1.398213744,8.609016969
45.53973063,-1.304839969,-8.185775757,-0.3878606856,8.298190646
45.54470509,-2.066195965,-7.826645374,0.2992752194,8.100315379
45.54926317,-3.090914488,-7.4363904,-0.1604115069,8.054774137
45.55471494,-3.943250179,-6.99106884,-0.4357447028,8.038292042
45.55972017,-4.548983097,-6.478709698,-0.2250549644,7.919442929
45.56472532,-4.687847137,-6.294356346,-0.1532289088,7.849733224
45.56973001,-4.565742493,-6.169857979,-0.1556231081,7.677067835
45.57470386,-4.139574528,-6.212953568,-0.08619125932,7.466210433
45.57970848,-3.552995205,-6.27999115,0.02633621916,7.215452679
45.5847134,-3.145981073,-6.325480938,-0.181959331,7.066966479
45.58927117,-2.691082716,-6.406883717,-0.4333505034,6.962605676
45.5942454,-2.090138197,-6.670246124,-0.7254431248,7.027597653
45.59969917,-1.185129881,-7.17063427,-1.034295082,7.341137172
45.60470317,-0.5267243981,-7.58961916,-1.04147768,7.678830206
45.60970755,0.03351882473,-7.965508938,-0.9504981041,8.022088431
45.61471278,0.349553436,-8.28633213,-0.739808321,8.32663222
45.61971709,0.5363011956,-8.645462036,-0.4788403511,8.675305232
45.62472201,0.5650315881,-8.906430244,-0.3280056417,8.930361028
45.62928009,0.4620809257,-9.109937668,-0.2801215947,9.125949332
45.63470101,0.3591302633,-9.200917244,-0.3375824392,9.214109538
45.63970686,0.1244984865,-9.25358963,-0.457292527,9.265718395
45.64471094,-0.215478152,-9.258378029,-0.6943184733,9.286876369
45.6497174,-0.7230489254,-9.13866806,-0.8571242094,9.207209978
45.65472048,-1.233013868,-8.880094528,-0.8212111592,9.002821213
45.65972601,-1.788468719,-8.518569946,-0.7685387731,8.738152329
45.66473117,-2.140416384,-8.221688271,-0.7709329724,8.530643467
45.66925801,-2.348711967,-8.006210327,-0.6607996821,8.369737626
45.67426263,-2.391807556,-7.807491779,-0.6895300746,8.194700909
45.67971671,-2.56658411,-7.594407558,-0.8762778044,8.064133118
45.68472101,-2.695871115,-7.467514992,-0.962469101,7.997365065
45.68972355,-2.688688517,-7.390900612,-0.9361328483,7.920277931
45.69472963,-2.432508945,-7.426813602,-0.8499416113,7.861110659
45.69925617,-2.303221941,-7.572859764,-0.806845963,7.956383395
45.70426017,-2.025494576,-7.929595947,-0.8116343617,8.224346205
45.70971371,-1.774103403,-8.281543732,-0.8667010069,8.51367019
45.71471863,-1.367089152,-8.796297073,-1.031900883,8.961506256
45.71972409,-0.9289502501,-9.301473618,-1.132457376,9.416093656
45.72428109,-0.4764461517,-9.844957352,-1.261744261,9.936910223
45.72970255,-0.05506663769,-10.29506683,-1.383848548,10.38780392
45.73470778,0.3878606856,-10.66616821,-1.740584612,10.81421357
45.73971309,0.6416460276,-10.75475407,-2.094926596,10.97566226
45.74471701,0.8595184088,-10.74278259,-2.355894566,11.03160863
45.74972224,1.048660398,-10.7044754,-2.525882721,11.04832864
45.75472778,1.182735682,-10.65659142,-2.803610086,11.08251027
45.75970324,1.321599364,-10.65180302,-3.062183857,11.1617428
45.76470724,1.347935557,-10.66616821,-3.143586874,11.20117016
45.76971155,1.352723956,-10.66137981,-3.124433279,11.19182581
45.77471555,1.369483352,-10.64940929,-2.990357876,11.14574552
45.77972071,1.386242747,-10.7188406,-2.894589901,11.18900637
45.78427855,1.312022567,-10.81700325,-2.990357876,11.29916823
45.78970048,1.180341482,-10.9247427,-3.186682463,11.44107312
45.79470532,1.027112484,-11.09233665,-3.325546265,11.62558173
45.79970994,1.096544385,-11.21444035,-3.145981073,11.69885801
45.80471486,1.235408068,-11.26471901,-2.762908697,11.66420987
45.80971978,1.625662923,-11.26471901,-2.128445387,11.57872852
45.81472471,1.989581585,-11.26471901,-1.331176162,11.51626499
45.81972932,2.202665567,-11.30542088,-0.8116343617,11.5465591
45.82470378,2.296039343,-11.46822643,-0.3878606856,11.70224124
45.82926101,2.260126352,-11.73158836,-0.1556231081,11.94832855
45.83471463,2.233790159,-12.15536213,-0.1580173075,12.35991976
45.83972078,2.106897593,-12.46421432,-0.3806780577,12.64676132
45.84472294,2.027888775,-12.69884586,-0.9289502501,12.8932528
45.84972878,1.699883223,-12.87122822,-1.707065821,13.09473912
45.85470317,1.321599364,-13.09149456,-2.67432332,13.42705701
45.85970748,0.7829039693,-13.29021358,-3.294421434,13.7148069
45.86471248,0.1268926859,-13.49850941,-3.799597979,14.02365155
45.86926994,-0.5746083856,-13.67807388,-4.010287762,14.26542281
45.87424471,-1.268926859,-13.70919895,-4.187458992,14.39052202
45.87969648,-2.121262789,-13.6158247,-4.472368717,14.48766786
45.88470171,-2.631227732,-13.44823074,-4.352658749,14.3778965
45.88970686,-2.63841033,-13.26148319,-3.694253206,14.01697729
45.89426409,-2.343923569,-13.247118,-3.296815634,13.85096048
45.89926817,-1.63763392,-13.32373238,-2.681505919,13.68919878
45.90427363,-1.101332784,-13.45541382,-2.310404539,13.69668077
45.9092484,-0.5722141862,-13.61821938,-2.243366957,13.81361732
45.91425363,0.04788403213,-13.63737297,-2.207453966,13.81495883
45.91925917,0.248996973,-13.49372101,-2.003946781,13.64398435
45.92471032,-0.06464344263,-13.28781986,-1.539471745,13.37685721
45.92926755,-0.8188169599,-12.98136139,-0.6200982332,13.02193252
45.93471948,-2.202665567,-12.80897903,0.7493851185,13.01857356
45.93972386,-3.055001259,-13.24951267,1.292868972,13.65848194
45.94472932,-3.617638826,-13.96298409,1.697489023,14.52355687
45.94970348,-4.333505154,-14.73391724,1.922544003,15.47784738
45.95470963,-4.728548527,-15.21036339,2.461239338,16.11744473
45.95971424,-5.102043629,-15.48330212,3.488351822,16.67129545
45.96471832,-5.602431774,-15.4473896,4.604049683,17.06476958
45.96972386,-6.521805286,-15.11938381,5.027823448,17.21652461
45.97428048,-7.390900612,-14.88475227,4.642356873,17.25493377
45.97970225,-8.28633213,-14.89911747,3.775655985,17.46145984
45.98470694,-8.796297073,-15.27979565,2.319981337,17.78283753
45.98971301,-8.473079681,-16.08903503,0.2059013397,18.1849532
45.99471732,-7.953537941,-16.7139225,-1.158793569,18.54607165
45.99972448,-7.295132637,-17.08502388,-2.142810583,18.70049835
46.00472655,-6.701370716,-17.11375427,-2.686294317,18.57431377
46.00970101,-5.784391403,-16.68758583,-3.184288263,17.9464313
46.01470655,-4.788403511,-16.33563805,-3.667917013,17.41365825
46.01971148,-3.596091032,-15.92862415,-3.919308186,16.79326993
46.02426848,-2.659958124,-15.43302441,-3.895366192,16.13776618
46.02972078,-2.458845139,-14.46097851,-4.127603531,15.23820625
46.03427855,-2.243366957,-13.6110363,-3.600879431,14.25690489
46.03969986,-0.7469909191,-13.36203957,-1.977610588,13.52823124
46.04470563,1.980004787,-13.76187134,0.2466027737,13.90576624
46.04971024,2.906560898,-13.87918758,1.26413846,14.23650204
46.05471424,3.967192173,-14.10903072,0.9313444495,14.68573336
46.05972048,3.835511208,-14.02283955,0.1556231081,14.53875489
46.06472471,3.038241863,-13.56794071,0.3998316824,13.90970144
46.06928163,2.609679937,-13.2375412,0.8475474119,13.5189224
46.07470355,2.051830769,-12.48336792,1.369483352,12.72477775
46.07971001,1.556231141,-11.78186703,1.592144132,11.99037818
46.08426624,0.8140285611,-10.9343195,1.63523972,11.08584658
46.08927186,-0.004788403399,-9.603142738,1.675941229,9.748289716
46.09424501,-0.8810662031,-9.179368973,1.850717902,9.405437212
46.09969771,-1.314416766,-8.518569946,1.994369984,8.847103311
46.10425548,-1.881842494,-7.730877399,2.04704237,8.215727539
46.10926048,-2.363077164,-6.842628479,2.185906172,7.562002643
46.11426509,-2.645592928,-5.693411827,2.087743998,6.616099695
46.11927094,-2.798821688,-4.929661274,2.003946781,6.012550691
46.12469178,-2.880224705,-4.046200752,1.989581585,5.350314922
46.12927955,-2.916137695,-3.531447411,1.817199111,4.927189105
46.13425394,-2.873042107,-3.15795207,1.606509328,4.5615682
46.13970625,-2.662352324,-2.829946518,1.383848548,4.12453076
46.14471178,-2.509123325,-2.506729126,1.034295082,3.694476565
46.14971555,-2.487575531,-2.398990154,0.8834604025,3.567027904
46.15472102,-2.475604534,-2.379836559,0.806845963,3.527497734
46.15972778,-2.351106167,-2.403778553,0.7469909191,3.444393557
46.16473086,-2.226607561,-2.379836559,0.7469909191,3.343560784
46.16925671,-2.226607561,-2.30801034,0.7757213712,3.299460048
46.17426286,-2.255337954,-2.329558372,0.7900865674,3.337308538
46.17926694,-2.341529369,-2.329558372,0.7781155705,3.393385601
46.18471955,-2.461239338,-2.449268341,0.7445967197,3.551202439
46.18972448,-2.640804529,-2.559401512,0.7110779285,3.74566636
46.1947294,-2.832340717,-2.633621931,0.8236053586,3.9542944
46.1997044,-3.090914488,-2.710236311,1.024718285,4.236647353
46.20426132,-3.251325846,-2.748543501,1.206677675,4.42511945
46.20971432,-3.397372246,-2.760514498,1.419761658,4.601988878
46.21471825,-3.428496838,-2.748543501,1.52510643,4.651347285
46.21972325,-3.354276657,-2.841917515,1.551442742,4.662042646
46.22472878,-2.928108692,-2.758120298,1.45088625,4.276227193
46.22970263,-2.717418909,-2.695871115,1.316810966,4.04797205
46.23470748,-2.624045134,-2.667140722,1.106121182,3.901635114
46.23971494,-2.626439333,-2.614468336,0.9050082564,3.814795957
46.24471886,-2.719813108,-2.523488522,0.6871358752,3.773265611
46.24972171,-2.808398485,-2.425326347,0.3447650373,3.726683898
46.25472786,-2.901772499,-2.463633537,-0.2418143749,3.814216569
46.25970163,-2.85867691,-2.628833532,-1.122880578,4.042729302
46.26470663,-2.722207308,-2.82036972,-1.795651317,4.311526602
46.26971178,-2.56897831,-3.059789658,-2.480392933,4.702585609
46.27471671,-2.293645144,-3.493140221,-3.253720045,5.296180773
46.27972071,-1.924938202,-4.163516521,-4.268861771,6.266054398
46.28472571,-1.826775908,-4.8314991,-5.284003258,7.389261411
46.28928355,-1.972822189,-5.595249176,-6.39251852,8.721418105
46.29470532,-2.171540976,-6.457161903,-7.433996201,10.08339375
46.29971032,-2.679111719,-7.501033783,-8.801085472,11.87022548
46.30471463,-3.268085241,-8.480262756,-10.01973438,13.52739127
46.30971986,-3.948038578,-9.634267807,-10.95107841,15.11066654
46.31472471,-4.173093796,-10.84333992,-10.88164711,15.91863613
46.31973063,-4.103661537,-12.28225517,-9.873687744,16.284457
46.3247044,-4.101267338,-13.59427738,-9.095572472,16.86280552
46.32970848,-3.804386616,-15.20557499,-8.738836288,17.94575515
46.33471402,-3.636792421,-16.96770668,-9.588777542,19.82609351
46.33971894,-3.526659012,-19.27571869,-12.93587208,23.48036288
46.34472286,-3.01190567,-21.04024506,-18.42098808,28.126434
46.3492814,-1.436521053,-22.16551971,-24.20298576,32.85054607
46.35470317,1.261744261,-22.86462593,-24.07130432,33.22364834
46.35926017,4.259284973,-22.3211422,-19.43612862,29.90214028
46.36426532,5.166687489,-19.20149803,-13.33570385,23.9422886
46.36971709,4.963180065,-15.39232254,-10.23281765,19.13811136
46.3747214,4.802768707,-9.943120003,-9.136273384,14.33191243
46.37972786,5.066130638,-5.882553577,-9.627084732,12.36733102
46.38470232,4.747702122,-2.597708941,-9.993397713,11.36471579
46.38970563,4.448426723,-0.7613561153,-9.718064308,10.71489325
46.39471086,3.093308687,-0.02394201607,-8.267178535,8.826968494
46.39971886,2.372653961,-0.8882488012,-6.742072105,7.202361351
46.40472263,0.4860229492,-1.905784607,-5.631162167,5.964748161
46.40972594,-1.015141487,-3.028665066,-4.414907932,5.449287694
46.41473086,-2.607285738,-4.79319191,-2.090138197,5.84305616
46.41970478,-3.655946016,-6.461950302,0.5410895944,7.44416019
46.42470932,-4.663905144,-8.245630264,3.739742994,10.18469967
46.42971548,-5.501875401,-10.04367638,6.495469093,13.16575812
46.4347204,-6.646304131,-12.47139645,8.29830265,16.38813335
46.43927763,-7.824251175,-14.10424232,8.501810074,18.23264469
46.44425186,-8.985439301,-17.18079185,7.39808321,20.75209299
46.44970355,-9.686940193,-19.92694092,4.8314991,22.67737128
46.45470902,-9.768342972,-23.83667183,-0.4668693244,25.76480963
46.45971425,-8.358158112,-27.23404503,-6.526593685,29.22581805
46.46471917,-4.216189384,-30.43748665,-16.11297798,34.6964682
46.46972355,-0.3256114423,-30.44945717,-21.08094597,37.0362221
46.4747284,0.1125274822,-24.26044655,-12.16254425,27.13870689
46.47970379,-2.073378563,-17.54231644,-0.605733037,17.67480345
46.48470748,-4.05577755,-11.64779091,7.010222435,14.1867397
46.48971217,-5.044582844,-7.572859764,6.385335922,11.11613853
46.49471794,-6.780379295,-3.41892004,0.6703764796,7.623120244
46.4997214,-8.647856712,-0.5363011956,-3.009511471,9.172251849
46.50472686,-9.181763649,1.419761658,-4.338293552,10.25384308
46.50925402,-7.874529362,2.114080191,-2.233790159,8.453837365
46.51470663,-5.037400246,1.778891921,1.762132406,5.62538606
46.51971063,-3.090914488,1.15400517,4.223371983,5.359323764
46.52471609,-1.738190413,0.3974374831,6.208165169,6.459146788
46.52927394,-0.5985504389,-0.5602431893,8.590395927,8.629428559
46.5342484,0.5051765442,-1.984793186,11.26711273,11.45174383
46.53970017,0.1029506698,-4.220977783,14.22155857,14.83509287
46.54425732,-0.921767652,-6.10281992,15.53836918,16.71929973
46.5497094,-2.097320795,-8.475474358,15.21036339,17.53817478
46.55471455,-2.736572504,-10.29267311,13.96298409,17.56111823
46.55972225,-2.885013103,-12.13620853,12.37562847,17.57176822
46.56472532,-2.475604534,-13.9198885,10.61349583,17.67875016
46.56973002,-1.015141487,-16.04354477,7.467514992,17.72539481
46.5742574,0.2705447972,-17.35796165,4.46039772,17.92392745
46.57926194,4.46279192,-19.78089523,-7.900865555,21.76290432
46.5842654,7.869740963,-21.04742622,-15.93341255,27.54633567
46.58972009,7.261613846,-20.22382164,-15.39471722,26.43352635
46.59472355,4.951209068,-18.21748161,-10.96065521,21.8295
46.59928109,3.181894064,-15.77778912,-6.555324078,17.37916433
46.60470294,1.89860189,-13.70441055,-3.888183594,14.37127445
46.60970686,0.8403648138,-11.9566431,-2.375048161,12.21918087
46.61426563,0.1101332754,-11.07318306,-1.41018486,11.16315967
46.61971771,-0.85473001,-9.653421402,-0.2178723514,9.693635877
46.62427425,-2.037465572,-8.604761124,0.1843535304,8.844612268
46.62924878,-3.016694069,-7.65426302,0.03112462163,8.227341868
46.6347014,-4.125209332,-6.347028732,-0.9720458984,7.631972156
46.63970725,-4.920084476,-5.458779812,-1.302445769,7.463368762
46.64426479,-5.456385612,-4.872200489,-0.9504981041,7.376579709
46.64926871,-5.928043365,-4.529829502,-0.3399766386,7.468375833
46.65427309,-6.327875137,-4.49870491,-0.6679822803,7.792724167
46.65924817,-6.215347767,-4.663905144,-1.261744261,7.872392116
46.66469955,-5.635950565,-4.939238071,-1.209071875,7.590906817
46.66970509,-4.340687752,-5.463568211,-0.8906430602,7.034585475
46.67471025,-3.351882458,-5.916072369,-0.7350199223,6.83924576
46.67971463,-2.389413357,-6.39491272,-0.5746083856,6.850867075
46.68471948,-1.592144132,-6.792350292,-0.6129156351,7.003328566
46.68927679,-1.000776291,-7.144298077,-0.7637503147,7.254368528
46.69469894,-0.4955997467,-7.489062786,-1.110909581,7.587212968
46.6992564,-0.1891419291,-7.831433773,-1.283292055,7.938133793
46.70426048,0.04788403213,-8.154650688,-1.352723956,8.266225428
46.70971455,0.3327940404,-8.43956089,-1.249773264,8.53808369
46.71471825,0.4094084799,-8.647856712,-1.134851575,8.731605186
46.71927863,0.2226607651,-8.870517731,-1.106121182,8.941988968
46.72425063,0.05267243832,-9.102754593,-1.113303781,9.170733933
46.72925548,-0.2202665508,-9.332598686,-0.9169792533,9.380126147
46.73426009,-0.5817909837,-9.651026726,-0.5770025849,9.685748788
46.7392654,-0.825999558,-9.787496567,-0.3303998411,9.827844543
46.74426994,-1.055842996,-9.753977776,-0.06224924326,9.81115497
46.74969186,-1.290474772,-9.512163162,0.107739076,9.599905253
46.75427925,-1.592144132,-9.31823349,0.09337386489,9.45373561
46.75970256,-1.752555609,-9.088389397,0.1221042871,9.256629108
46.76470656,-1.800439715,-8.820239067,0.1987187415,9.004315049
46.76971117,-1.929726601,-8.489839554,0.2322375625,8.709486477
46.77426879,-2.11647439,-8.137891769,0.1436520964,8.409838418
46.77969025,-2.214636564,-7.788338184,-0.1125274822,8.097869425
46.78472594,-2.257732153,-7.527369976,-0.4333505034,7.87060645
46.78973056,-2.224213362,-7.486668587,-0.8212111592,7.853134366
46.7947044,-2.171540976,-7.536946774,-1.118092179,7.922833268
46.79971209,-2.135627985,-7.642292023,-1.405396342,8.058577612
46.80471394,-2.051830769,-7.888894558,-1.769315004,8.341171526
46.80971925,-1.905784607,-8.133103371,-2.138022184,8.622675006
46.81472478,-1.695094824,-8.485051155,-2.580949545,9.02943742
46.81972971,-1.355118155,-8.863334656,-3.124433279,9.495110834
46.82470409,-0.8164227605,-9.402029991,-3.943250179,10.22809543
46.82970871,-0.3878606856,-9.852140427,-4.46279192,10.82273619
46.83471494,0.0191536136,-10.24478912,-4.570530891,11.2181025
46.83971863,0.3327940404,-10.60870743,-4.244919777,11.43130653
46.84518223,0.5650315881,-10.95347309,-3.38061285,11.47721119
46.8501887,0.586579442,-11.22401714,-2.60010314,11.53616802
46.85516223,0.4788403511,-11.30542088,-1.74776721,11.44973884
46.86016662,0.3040636182,-11.29584408,-0.9002198577,11.33573747
46.86517208,0.1915361285,-11.23120022,-0.4141969085,11.24046723
46.87017639,0.1939303428,-11.01093388,-0.5027823448,11.02411284
46.875182,0.5027823448,-10.9343195,-0.9385270476,10.98603504
46.88019023,1.134851575,-10.69250488,-1.800439715,10.90225353
46.88516193,1.707065821,-10.43871975,-2.30801034,10.82625768
46.89016716,2.288856745,-10.28070164,-2.633621931,10.85668715
46.89517062,2.844311714,-10.28070164,-2.779668093,11.02313431
46.90017485,3.694253206,-10.38125896,-2.504334927,11.2999884
46.90473339,4.106055737,-10.54645824,-2.171540976,11.52402123
46.91015485,4.570530891,-10.96304989,-1.333570361,11.95226445
46.91519062,4.683058739,-11.38921738,-0.758961916,12.33780105
46.920165,4.584896088,-11.91833591,-0.2537853718,12.77232986
46.92516962,4.371812344,-12.36605167,-0.09097966552,13.11641165
46.93017516,4.062960148,-12.84249783,-0.3016694188,13.47324757
46.93517916,3.632004023,-13.29500198,-0.8643068075,13.80925622
46.94018377,2.813186884,-13.73074722,-1.853112102,14.13794413
46.94474131,2.188300371,-13.97256088,-2.56658411,14.37388153
46.94971585,0.8571242094,-14.25507736,-3.655946016,14.74136472
46.95516777,-0.2537853718,-14.36999893,-4.333505154,15.01134715
46.96017547,-1.711854219,-14.30774975,-4.836287498,15.19973107
46.96473185,-2.700659513,-14.15212631,-4.960785866,15.23763884
46.97015362,-3.313575268,-13.97016716,-4.953603268,15.18826971
46.97518808,-3.440467834,-14.01565647,-4.833893299,15.21978875
46.98016262,-2.995146275,-14.06354046,-4.175487995,14.97293463
46.984721,-2.169146776,-14.18803883,-3.440467834,14.7594872
46.99017239,-1.101332784,-14.51365089,-2.53067112,14.77373658
46.99473116,-0.1316810995,-14.75785923,-1.587355733,14.84356585
46.99970416,0.4955997467,-14.88954067,-0.9552865028,14.92838279
47.00470908,0.9768342972,-14.99488544,-0.7924807668,15.04755198
47.010161,1.017535686,-14.72912884,-0.9361328483,14.79388252
47.01516593,0.5961562395,-14.21198082,-1.283292055,14.28224911
47.02017031,-0.282515794,-13.64216137,-1.551442742,13.73300246
47.02472839,-1.41018486,-13.33570385,-1.012747288,13.44824433
47.03018039,-2.703053713,-13.12501335,0.08858546615,13.40075827
47.03518531,-3.919308186,-13.40752983,1.175553083,14.01801548
47.04019277,-4.46279192,-13.99410915,2.061407566,14.83243081
47.04516539,-5.051765442,-14.28380775,2.882618904,15.42261294
47.04972193,-5.760449409,-14.40830612,3.75650239,15.96538045
47.05517454,-6.653486729,-14.45858383,4.5394063,16.55070215
47.06017923,-7.661445618,-14.47294903,4.75488472,17.05206531
47.06518408,-8.681375504,-14.58547688,4.350264549,17.52219216
47.07018931,-9.677363396,-14.85123348,3.296815634,18.02996094
47.07516323,-11.16895103,-15.31091976,1.304839969,18.99664019
47.07972108,-11.71004009,-15.7658186,-0.06464344263,19.63899829
47.0851727,-11.42991924,-16.63251877,-2.245761156,20.30584097
47.08973116,-10.68053341,-17.20952225,-3.265691042,20.51599834
47.0947057,-9.765948296,-17.43697166,-3.7181952,20.32847024
47.09970877,-8.990227699,-17.2933197,-4.082113743,19.91348169
47.10516254,-8.319850922,-16.57027054,-4.343081951,19.04353292
47.11016685,-8.010998726,-15.78976059,-4.120420933,18.17884784
47.11517185,-6.967126846,-14.90629959,-3.888183594,16.90729416
47.12017923,-6.131550789,-14.11142445,-4.067748547,15.91460943
47.12473493,-5.801150799,-13.15613842,-4.367023945,15.02691674
47.13015647,-4.8314991,-12.50730991,-3.885789394,13.95978309
47.13516139,-2.537853718,-12.23197651,-1.37666595,12.56810089
47.140166,-0.3040636182,-12.22479343,1.489193439,12.31891742
47.14517177,1.103726983,-12.2559185,3.289633036,12.7376386
47.15017523,2.667140722,-12.40675354,3.452438831,13.15144505
47.15473339,4.022258759,-12.38041687,1.845929503,13.14765162
47.16015462,4.987122059,-12.2654953,0.04788403213,13.2406969
47.16519093,5.181052685,-11.99973869,0.3974374831,13.07650535
47.17016562,5.008669853,-11.64300251,0.7829039693,12.69878812
47.17516962,4.299986362,-10.96304989,0.6512228847,11.79416961
47.180174,3.399766445,-10.20887566,0.5770025849,10.77555038
47.18517916,2.686294317,-9.56004715,0.6607996821,9.952252754
47.19018446,2.054224968,-8.841787338,0.8020575643,9.112647249
47.19474108,1.419761658,-7.927201748,1.156399369,8.135939418
47.19971731,0.3878606856,-6.265625954,1.496376038,6.453498722
47.20516908,-0.1101332754,-5.650316238,1.963245392,5.982686303
47.21017308,-0.7086837292,-4.838681698,2.078166962,5.313553531
47.21517916,-1.103726983,-4.048594952,2.003946781,4.650283544
47.22018262,-1.30005157,-3.545812607,1.982398987,4.265305015
47.224741,-1.386242747,-3.124433279,1.936909199,3.928787283
47.22971485,-1.383848548,-2.79163909,1.826775908,3.611841058
47.23516693,-1.357512355,-2.509123325,1.757344007,3.350641374
47.23972539,-1.604115129,-2.434903145,1.575384736,3.314177988
47.24472931,-1.869871497,-2.446874142,1.359906554,3.366445947
47.25015146,-2.240972757,-2.509123325,1.053448796,3.525253626
47.25518662,-2.511517525,-2.624045134,0.9696516991,3.759462403
47.260161,-2.662352324,-2.758120298,0.8930372596,3.936097436
47.26516593,-2.78924489,-2.844311714,0.8906430602,4.082063356
47.27017031,-3.098097086,-2.681505919,1.048660398,4.229464289
47.274729,-3.349488258,-2.607285738,1.098938584,4.384595366
47.27973431,-3.746925592,-2.573766708,1.139639974,4.686417153
47.28470808,-3.8642416,-2.521094322,1.134851575,4.7514385
47.28971208,-3.945644379,-2.444479942,1.259350061,4.809319529
47.29471739,-3.943250179,-2.427720547,1.352723956,4.824200569
47.30016962,-3.830722809,-2.348711967,1.458068848,4.724071328
47.30517424,-3.854664803,-2.375048161,1.568202138,4.791508369
47.31017954,-3.253720045,-2.257732153,1.522712231,4.242959008
47.31518439,-2.980781078,-2.26970315,1.575384736,4.064289027
47.32018908,-2.691082716,-2.298433542,1.417367458,3.812302906
47.32471616,-2.427720547,-2.391807556,1.170764685,3.603506679
47.33016908,-2.219424963,-2.604891539,0.8236053586,3.519891033
47.3351737,-2.157175779,-2.772485495,0.5913678408,3.562274426
47.34017824,-2.296039343,-2.82036972,0.2418143749,3.644825951
47.34473547,-2.370259762,-2.777273893,0.01197100803,3.651236081
47.35015793,-1.987187386,-3.016694069,-0.1197100878,3.614372327
47.35516324,-1.805228114,-3.239354849,-0.4836287498,3.73980817
47.36016839,-1.721431017,-3.41892004,-1.089361787,3.979830158
47.3651727,-1.628057122,-3.67988801,-1.89860189,4.449363426
47.37017639,-1.623268723,-4.098873138,-3.244143248,5.473593679
47.375181,-1.766920805,-4.467580318,-4.213795185,6.390411011
47.38018777,-1.244984865,-5.152322292,-5.032611847,7.309144568
47.38516139,-0.6129156351,-5.992686749,-6.399701118,8.78886423
47.39016654,-0.6943184733,-7.031770229,-8.370129585,10.95385503
47.39517124,-1.000776291,-7.812280178,-9.761159897,12.54246855
47.40017554,-1.711854219,-8.590395927,-10.74517727,13.86305095
47.405181,-3.069366693,-9.514557838,-12.2846489,15.83857384
47.41018539,-3.725377798,-10.30464458,-13.65652657,17.50899362
47.41519054,-3.770867586,-11.35091019,-14.36999893,18.69650967
47.42016447,-3.490746021,-12.89756489,-14.78658962,19.92926794
47.42516939,-2.987963676,-15.77539539,-13.8169384,21.18251197
47.43017424,-2.717418909,-18.47365952,-13.26866627,22.90672316
47.4347327,-2.691082716,-21.35149002,-14.37478733,25.87977131
47.43970693,-2.264914751,-24.14552498,-17.79370689,30.07909939
47.44515862,-0.8595184088,-26.11116409,-20.23818779,33.04717699
47.44971647,0.2011129409,-25.91005135,-18.54548645,31.863871
47.45472077,1.56101954,-23.73372078,-13.32133865,27.26140766
47.46017331,1.446097851,-20.4656353,-9.730035782,22.70698182
47.46517762,1.280897856,-15.32049656,-8.233659744,17.43993885
47.47018293,1.460463047,-10.51054573,-8.995016098,13.91096109
47.47518754,2.118868589,-5.98789835,-10.38125896,12.17025343
47.48016285,2.549824715,-2.291250944,-11.27190113,11.78164641
47.48516816,2.351106167,0.6751648784,-10.93910789,11.20926534
47.49017216,1.685518026,1.810016513,-9.691728592,10.00233642
47.49517739,0.5291185975,1.656787634,-8.032546997,8.218681343
47.50018254,-1.314416766,0.3112462163,-6.64869833,6.784523205
47.50518693,-4.019864559,-1.980004787,-4.891354084,6.633632098
47.51016108,-5.650316238,-4.067748547,-3.327940464,7.716724666
47.515165,-6.478709698,-6.251260757,-1.18752408,9.080867461
47.52017362,-7.627926826,-8.480262756,2.111685991,11.59997163
47.52517677,-9.646238327,-11.21683502,5.904101372,15.92877003
47.53018139,-10.60870743,-13.47217274,7.319074631,18.64438159
47.53518539,-11.0229044,-15.8352499,6.619967937,20.3981258
47.54019062,-10.67095661,-18.68195534,3.320757866,21.76952464
47.54516477,-9.270348549,-22.7042141,-0.4812345505,24.5286014
47.55016939,-6.919242859,-25.75682259,-4.067748547,26.97844343
47.55517485,-4.134786129,-28.07440948,-8.341399193,29.57782725
47.56017916,0.1005564705,-28.32340622,-13.19444561,31.2461013
47.56518385,2.449268341,-24.39212608,-13.19923401,27.84231507
47.57019024,2.068590164,-19.17037392,-5.971138954,20.18506383
47.57516316,0.174776718,-13.14895535,4.606443882,13.93358887
47.58016847,-2.365471363,-6.957550049,9.890447617,12.32168461
47.585173,-4.299986362,-4.141968727,7.034164429,9.226334964
47.58973147,-6.045359135,-2.166752577,2.700659513,6.966688281
47.59515239,-8.032546997,-0.5243301988,-1.259350061,8.147557671
47.60018993,-8.47786808,0.3327940404,-2.724601507,8.911142039
47.60516324,-7.113173485,0.1723825186,-0.5267243981,7.134731344
47.61016716,-5.451597214,-0.5099649429,2.463633537,6.004120804
47.61472501,-3.900154591,-1.458068848,4.809951305,6.361823807
47.62017762,-1.651999116,-3.002328873,7.184999466,7.960357848
47.62518224,-0.4884171486,-4.453215122,9.205705643,10.2379047
47.63018716,-0.9337386489,-5.841852188,10.98220348,12.47428949
47.63516193,-1.917755604,-7.376535416,12.85207462,14.94211777
47.64016654,-3.258508444,-9.198522568,13.54399872,16.69342973
47.64472324,-3.483563423,-10.18253994,12.99093819,16.86961199
47.65017585,-3.404554844,-11.72440529,11.81059742,16.98655011
47.65473339,-3.368641853,-12.73715305,10.28549004,16.71448836
47.65970747,-3.026270866,-13.68046856,8.494627953,16.3851225
47.66516039,-1.644816518,-14.81053162,5.434837818,15.86173793
47.670165,0.3543418646,-15.87116337,0.8475474119,15.89772693
47.67516908,2.889801502,-16.83123779,-6.777985096,18.37342103
47.68017585,4.23294878,-17.32205009,-13.03882217,22.09031821
47.68517954,3.308786631,-16.7234993,-12.634202,21.21901407
47.69018416,2.26970315,-15.48569679,-9.655815125,18.39002782
47.6951887,1.242590666,-14.2143755,-6.229712963,15.569259
47.70016293,0.6296750307,-12.71081638,-3.354276657,13.16102259
47.70472139,0.2418143749,-11.71482849,-1.848323703,11.86220811
47.709726,-0.3040636182,-10.84573364,-0.8020575643,10.87959968
47.71517824,-1.04147768,-9.988609314,-0.2513911724,10.04590411
47.72018293,-1.872265697,-8.865729332,-0.1795651317,9.063044691
47.72518816,-2.355894566,-8.066065788,0.08379705995,8.403492039
47.73016254,-2.956839085,-7.371747017,0.2992752194,7.948277619
47.73516693,-3.79241538,-6.421248913,-0.6703764796,7.48760687
47.74017154,-4.252102375,-5.846640587,-1.221042871,7.331747844
47.74517608,-4.247313976,-5.571307182,-1.362300754,7.136876283
47.75018131,-3.840299606,-5.576095581,-1.156399369,6.868624498
47.75522324,-3.153163671,-5.839457989,-0.8044517636,6.684972205
47.76013585,-2.825158119,-5.973533154,-1.206677675,6.717193443
47.76516631,-2.296039343,-6.10281992,-1.000776291,6.596799286
47.76972293,-1.601720929,-6.234501362,-0.605733037,6.465402515
47.77517524,-1.039083481,-6.512228489,-0.6272808313,6.624371337
47.78018262,-0.4716577232,-7.003039837,-0.7757213712,7.061640858
47.78518685,-0.1699883193,-7.28316164,-0.8212111592,7.331284149
47.79019054,0.06224924326,-7.560888767,-0.9600749016,7.621853957
47.79516477,0.3280056417,-7.850587368,-1.103726983,7.934577681
47.80017031,0.4261679053,-8.214506149,-1.470039845,8.355881013
47.80517485,0.4094084799,-8.561665535,-1.692700624,8.736988465
47.81017893,0.4189853072,-8.877699852,-1.74776721,9.057802911
47.81518377,0.3758896589,-9.145850182,-1.70946002,9.311827003
47.82018993,0.4022258818,-9.390059471,-1.759738207,9.561991481
47.82471639,0.2968810201,-9.519346237,-1.759738207,9.685182997
47.830169,-0.004788403399,-9.497797966,-1.470039845,9.610889984
47.8351727,-0.383072257,-9.476250648,-1.165976286,9.555394885
47.84018101,-0.7805097699,-9.346963882,-0.8331822157,9.4164283
47.84518478,-1.197100878,-9.10036087,-0.4644751251,9.190503557
47.85018878,-1.517923832,-8.863334656,-0.1939303428,8.994465129
47.85516347,-1.8579005,-8.47786808,-0.06464344263,8.679298372
47.8601687,-2.068590164,-8.056488991,-0.117315881,8.318644309
47.86517216,-2.159569979,-7.754819393,-0.3423708379,8.057182144
47.870177,-2.109291792,-7.460332394,-0.6703764796,7.781714201
47.87473493,-2.006340981,-7.32146883,-0.6775590777,7.621574395
47.879709,-1.764526606,-7.331045628,-0.6584054828,7.569100469
47.88516162,-1.549048543,-7.431602001,-0.6584054828,7.619826604
47.89016562,-1.309628367,-7.635109425,-0.7541735172,7.783238406
47.89517093,-1.254561663,-7.80509758,-0.9121908545,7.957736195
47.900178,-1.168370485,-8.063671112,-1.18752408,8.233959851
47.90518131,-1.015141487,-8.372523308,-1.613691926,8.586830638
47.9101857,-0.6512228847,-8.633491516,-2.106897593,8.910683726
47.91519054,-0.2681505978,-9.13866806,-2.705447912,9.534495638
47.92016747,0.1651999205,-9.610325813,-3.143586874,10.11275391
47.92516939,0.5219359994,-10.01733971,-3.462015629,10.61155334
47.93017393,0.7565677166,-10.30943298,-3.514688015,10.91832565
47.93517924,0.9145850539,-10.63743782,-3.385401249,11.20055761
47.94018654,1.00556469,-10.74757099,-3.088520288,11.22766227
47.94518908,1.175553083,-10.77390766,-2.667140722,11.1612119
47.95016378,1.18752408,-10.75954247,-2.123656988,11.03122326
47.95516847,1.161187768,-10.723629,-1.575384736,10.90075286
47.96017401,1.180341482,-10.71165848,-1.355118155,10.86136173
47.96517862,1.273715258,-10.72123528,-1.620874524,10.91762202
47.97018293,1.553836942,-10.77869606,-2.183511972,11.10686376
47.97518778,1.903390408,-10.90798283,-2.78924489,11.41870708
47.98016354,2.293645144,-10.91755962,-3.208230257,11.6080428
47.98516724,2.52827692,-10.93910789,-3.236960649,11.68478412
47.98972501,3.052607059,-10.82179165,-2.832340717,11.59533261
47.99517678,3.598485231,-10.77630138,-2.183511972,11.56916125
48.00018316,4.156333923,-10.84812832,-1.283292055,11.68776447
48.00518693,4.355052948,-11.09233665,-0.7637503147,11.9410943
48.01016201,4.434061527,-11.43949604,-0.5339069963,12.28039201
48.01516531,4.412513733,-11.89918232,-0.6751648784,12.70892068
48.02017154,4.307168961,-12.45224285,-1.084573388,13.2206791
48.02517608,3.952826977,-13.13937855,-1.884236693,13.84985407
48.02973339,3.466804028,-13.55597019,-2.351106167,14.18840224
48.03470685,2.806004286,-14.2095871,-3.11964488,14.81614692
48.03971331,1.951274395,-14.74349403,-3.643975019,15.31197708
48.0447177,0.9050082564,-15.16966152,-3.904942989,15.69032346
48.05017054,-0.4381389022,-15.29894924,-3.983951569,15.81523581
48.05517401,-1.41257906,-15.10501862,-4.060565948,15.70494071
48.06018039,-2.401384354,-14.71955204,-4.220977783,15.49995202
48.06473708,-3.066972494,-14.33887386,-4.438849926,15.32034636
48.07015854,-2.97359848,-14.07072353,-4.290409565,15.00783672
48.07471639,-2.461239338,-14.04917526,-4.09169054,14.83842836
48.07972201,-1.786074519,-14.23352909,-3.588908434,14.7872809
48.08472624,-1.182735682,-14.48252583,-3.45722723,14.9363596
48.08973085,-0.6392518282,-14.63336086,-3.181894064,14.98894069
48.09515278,-0.5315127969,-14.58068848,-2.609679937,14.82192335
48.1001897,-0.6320692301,-14.35323906,-2.23139596,14.53939858
48.10516254,-1.182735682,-13.9055233,-1.721431017,14.06149945
48.11016754,-2.104503393,-13.40274143,-0.9744400978,13.60190964
48.11472439,-3.093308687,-13.04121685,0.05267243832,13.40315895
48.12017739,-3.56736064,-13.44104862,1.170764685,13.95559171
48.12518285,-3.845088005,-14.16409683,1.991975784,14.8112899
48.13018685,-4.058171749,-14.89432907,2.964021683,15.71926274
48.13516139,-3.998316765,-15.64850235,4.244919777,16.69974571
48.14016662,-4.022258759,-15.85200977,5.02064085,17.10764782
48.14517147,-4.508281708,-15.67962646,5.372588634,17.1767284
48.14972908,-5.702988625,-15.31570816,5.169081688,17.14101517
48.15470262,-7.048529625,-14.98291397,4.596867085,17.18431459
48.16015678,-9.040505409,-14.8679924,3.552995205,17.75983421
48.16519054,-10.49618053,-15.21275806,2.051830769,18.59590878
48.17016478,-11.03966427,-16.00045013,-0.06224924326,19.43945644
48.17516931,-10.60870743,-16.81926727,-2.147598982,20.00111513
48.18017647,-9.212887764,-17.5590744,-3.890577793,20.20730042
48.18518039,-7.979874134,-17.78173637,-4.405331135,19.98187884
48.19018416,-7.146692276,-17.58541107,-4.429273129,19.49205873
48.1951897,-6.497863293,-17.05629349,-4.5394063,18.80812549
48.20016531,-5.446808815,-16.44337654,-4.378994942,17.86695148
48.20516908,-4.446032524,-15.40429401,-4.38378334,16.62158343
48.2097257,-4.173093796,-14.47294903,-3.890577793,15.55691361
48.21517739,-2.523488522,-13.92946529,-2.26730895,14.33662051
48.22018385,-0.9864110947,-13.35246277,-1.084573388,13.43270517
48.2251887,0.9457096457,-13.03164005,1.984793186,13.21580165
48.23016231,2.837129116,-13.09867764,2.774879694,13.68665827
48.23471893,3.588908434,-12.74912453,1.357512355,13.31402568
48.23972724,4.127603531,-12.68926907,0.6560112834,13.35982826
48.24517893,4.797980309,-12.62462521,0.85473001,13.5326398
48.24973485,4.733336926,-12.33971596,1.417367458,13.29217811
48.25515647,4.546588898,-12.03565216,1.422155857,12.9441462
48.26016201,3.538630009,-11.52329254,1.118092179,12.10612669
48.26516654,2.363077164,-10.82179165,1.065419793,11.12791209
48.27017031,1.278503656,-9.799467087,1.244984865,9.960628198
48.27517639,0.5961562395,-9.02374649,1.532289028,9.172312285
48.28018162,-0.04309562966,-8.008605003,1.790862918,8.206509692
48.28518539,-0.5889736414,-7.489062786,2.037465572,7.783586405
48.29019085,-1.347935557,-6.782773495,2.260126352,7.275377494
48.29516447,-1.824381709,-5.841852188,2.387019157,6.56912978
48.30016993,-2.221819162,-5.068524837,2.588132143,6.109406879
48.30517462,-2.52827692,-4.321534157,2.595314741,5.639459217
48.31017916,-2.695871115,-3.763684988,2.243366957,5.144486472
48.3147367,-2.817975283,-3.299209833,1.982398987,4.770290972
48.32016162,-2.995146275,-2.85867691,1.668758631,4.464044159
48.32516293,-3.069366693,-2.650381327,1.429338455,4.299830403
48.3301687,-2.93529129,-2.506729126,1.391031146,4.102998113
48.33472562,-2.870647907,-2.389413357,1.292868972,3.952394942
48.34017893,-2.801215887,-2.331952572,1.213860273,3.841649386
48.34518324,-2.726995707,-2.293645144,1.259350061,3.779322189
48.35018816,-2.631227732,-2.26730895,1.328781962,3.718831908
48.35516293,-2.537853718,-2.212242365,1.386242747,3.640932124
48.35971985,-2.590526342,-2.090138197,1.419761658,3.618732869
48.36472508,-2.633621931,-2.111685991,1.388636947,3.650136268
48.3701767,-2.810792685,-2.121262789,1.391031146,3.786195846
48.37518193,-2.853888512,-2.142810583,1.556231141,3.89334974
48.38018931,-2.875436306,-2.195482969,1.601720929,3.956486996
48.38516131,-2.93768549,-2.236184359,1.731007814,4.077610155
48.39016539,-3.078943491,-2.224213362,1.82198751,4.212678078
48.39517093,-3.256114244,-2.30561614,1.865083098,4.404166292
48.40017916,-3.138798475,-2.315192938,1.786074519,4.289782791
48.40518139,-2.834734917,-2.286462545,1.690306425,4.015067724
48.40973793,-2.722207308,-2.303221941,1.582567334,3.901251505
48.41515978,-2.729389906,-2.33913517,1.400607944,3.857826488
48.42016531,-2.743755102,-2.396595955,1.256955862,3.853803611
48.42472201,-2.765302896,-2.45166254,1.022324085,3.834409453
48.42972755,-2.844311714,-2.53067112,0.5243301988,3.843088289
48.43473155,-2.966415882,-2.662352324,-0.2130839527,3.991634734
48.43970724,-2.954444885,-2.798821688,-0.825999558,4.152640448
48.44515855,-2.856282711,-3.062183857,-1.584961534,4.477434976
48.45016316,-2.470816135,-3.529053211,-2.657563925,5.061797601
48.45516939,-1.977610588,-4.082113743,-3.579331636,5.778080236
48.46017524,-1.570596337,-4.776432514,-4.683058739,6.871107594
48.46517831,-1.259350061,-5.528211594,-5.767632008,8.087809653
48.46973585,-1.304839969,-6.212953568,-6.880935669,9.362193923
48.47515801,-1.04147768,-7.120356083,-7.733271599,10.56350492
48.48016385,-1.352723956,-7.893682957,-8.59278965,11.74632397
48.48516754,-1.903390408,-8.645462036,-9.773131371,13.18639472
48.49017247,-2.336740971,-9.416395187,-10.98699188,14.65751846
48.49517801,-2.547430515,-10.40520096,-11.76750088,15.91325504
48.50018201,-2.444479942,-11.6023016,-11.35569859,16.417697
48.50518632,-2.52827692,-13.17050362,-10.7092638,17.1622458
48.51016016,-2.944868088,-15.13135433,-10.13704967,18.44965875
48.51516593,-4.041412354,-18.06425095,-10.38604736,21.22546009
48.52017116,-4.733336926,-20.51351929,-12.79700851,24.63680943
48.52517578,-4.812345505,-22.67308998,-18.40422821,29.59633921
48.53018108,-3.866635799,-24.049757,-22.18467331,32.94694848
48.5351857,-2.56658411,-24.12158203,-20.48718452,31.75157954
48.54019147,-0.8690952063,-22.10087585,-15.83764458,27.2035848
48.54516539,-0.2202665508,-19.33796692,-12.72518158,23.1502857
48.55016962,0.1915361285,-15.99805546,-10.82658005,19.31810809
48.55517454,0.8499416113,-12.23915863,-10.28549004,16.00970674
48.56018101,1.977610588,-7.529764175,-10.40041256,12.99141538
48.56518385,2.525882721,-4.374206543,-10.0364933,11.23587843
48.57019055,2.497152328,-2.272097349,-8.82263279,9.446536162
48.57516416,1.848323703,-1.288080573,-7.189787865,7.534487482
48.58017085,0.6272808313,-1.398213744,-6.404489517,6.585284268
48.58517362,-1.465251446,-2.700659513,-5.664681435,6.44431062
48.59017793,-3.055001259,-4.09408474,-4.778826714,6.995123109
48.59518355,-4.19464159,-5.765237808,-3.428496838,7.91123098
48.60018939,-5.233725071,-7.560888767,-1.223437071,9.276621979
48.60516324,-6.512228489,-10.07958889,2.092532396,12.18137611
48.61016755,-7.074865818,-12.34929276,4.096478939,14.81012821
48.61517178,-7.223306656,-14.73870564,4.515464306,17.0233669
48.62017855,-7.10359621,-17.26937675,2.944868088,18.90409217
48.62518255,-5.628767967,-19.71146202,0.6009446383,20.508191
48.63018755,-4.141968727,-22.09129906,-1.328781962,22.5154849
48.63516078,-2.681505919,-23.07292175,-2.841917515,23.4014249
48.6401687,-0.9433154464,-22.69224358,-4.795586109,23.21261314
48.64517185,0.5243301988,-20.51830864,-5.83466959,21.33821175
48.65017639,-0.0023942017,-15.7514534,-1.56101954,15.8286156
48.65473362,-1.419761658,-12.48097324,2.616862535,12.83114904
48.66015639,-3.981557369,-7.570465565,5.851428986,10.36358862
48.66515985,-5.319916248,-5.173870087,3.138798475,8.057449747
48.67016562,-7.266402245,-3.541024208,-0.9528923035,8.139254128
48.67516932,-8.561665535,-2.04704237,-4.264073372,9.781350669
48.68017578,-8.705317497,-1.683123827,-3.552995205,9.551923025
48.68517985,-7.802703381,-1.910573006,-0.7110779285,8.064620331
48.69018439,-6.270414352,-2.535459518,2.04704237,7.066614011
48.69518901,-4.374206543,-3.682282209,4.503493309,7.278347143
48.70016447,-2.93768549,-4.898536682,5.839457989,8.168532749
48.70516839,-1.644816518,-6.169857979,7.249642849,9.660739635
48.71017332,-1.084573388,-7.295132637,9.03571701,11.66359471
48.71517885,-1.182735682,-8.367734909,11.51850414,14.28613975
48.72018655,-1.606509328,-9.782708168,12.46421432,15.92604439
48.72518939,-2.142810583,-10.75235939,12.21761131,16.41569054
48.73016193,-2.030282974,-11.63582039,11.11867237,16.22156714
48.73516624,-1.577778935,-12.44745445,9.311050415,15.62447338
48.74017332,-0.7445967197,-13.42668343,6.72291851,15.0342238
48.7451767,0.2274491638,-14.08748245,3.950432777,14.63266258
48.75018232,1.417367458,-14.66448498,0.383072257,14.73780155
48.75518624,2.82276392,-15.14093113,-4.472368717,16.03801339
48.76016162,3.684676409,-15.31331444,-8.865729332,18.0741693
48.76516593,3.270479441,-14.92305946,-9.370905876,17.92226594
48.76972378,2.394201756,-14.1856451,-8.118738174,16.51903867
48.77517616,1.527500629,-13.34049225,-6.263231754,14.81654695
48.77973432,0.9026140571,-12.47379112,-4.49870491,13.29091882
48.78470839,0.4094084799,-11.62384892,-2.997540474,12.01110852
48.79016047,-0.4979939461,-10.52969933,-1.180341482,10.60734518
48.79471708,-1.453280449,-9.753977776,-0.3878606856,9.869272639
48.79972316,-2.272097349,-8.872911453,0.4644751251,9.170971659
48.80472747,-2.978386879,-8.159439087,1.055842996,8.74997366
48.80973185,-3.964797974,-7.450755596,0.07900865376,8.440356882
48.81470632,-4.960785866,-6.770802498,-1.110909581,8.466834294
48.82015924,-5.35343504,-6.442796707,-1.656787634,8.538960206
48.82516324,-5.403713226,-6.229712963,-1.893813491,8.461440171
48.83016847,-4.637568474,-6.145915985,-1.285686255,7.805915308
48.83517393,-3.964797974,-6.198588371,-0.9050082564,7.41357948
48.84018047,-3.574543238,-6.181828976,-0.7422025204,7.179361631
48.84518385,-3.021482468,-6.303933144,-0.1532289088,6.992310668
48.85018816,-2.257732153,-6.505045891,0.05506663769,6.885928322
48.85516285,-1.479616642,-6.782773495,-0.1197100878,6.943314208
48.86016878,-0.7996633649,-7.10599041,-0.3064578176,7.157407184
48.86472562,-0.3351882398,-7.369352818,-0.5458779931,7.397140994
48.87017708,0.04548983276,-7.663839817,-0.8403648138,7.709910705
48.87518193,0.3926490843,-8.097189903,-1.130063176,8.185090129
48.88018878,0.6009446383,-8.461109161,-1.30005157,8.581470549
48.88516162,0.7637503147,-8.81066227,-1.371877551,8.949476643
48.89016632,0.8379706144,-9.155426979,-1.367089152,9.294781905
48.89517032,0.8427590132,-9.562441826,-1.364694953,9.696026441
48.9001777,0.8858546019,-9.777919769,-1.256955862,9.898100395
48.90518101,0.7948749661,-9.878476143,-1.118092179,9.973276655
48.91018508,0.5770025849,-9.931148529,-0.9816226959,9.996210592
48.91474347,0.2418143749,-9.911994934,-0.9121908545,9.956817259
48.91971885,-0.1891419291,-9.722852707,-0.9696516991,9.772914808
48.92517024,-0.6655880809,-9.404424667,-1.182735682,9.501845848
48.93017524,-0.8834604025,-9.117119789,-1.213860273,9.239904344
48.93517955,-1.106121182,-8.798690796,-1.094150186,8.935190452
48.9401857,-1.319205165,-8.377311707,-0.7948749661,8.517715651
48.94518908,-1.438915253,-7.999027729,-0.4501099288,8.139872276
48.95016285,-1.553836942,-7.687781811,-0.2322375625,7.846676538
48.95516785,-1.594538331,-7.481880188,-0.1149216816,7.650770591
48.9601767,-1.601720929,-7.393294811,-0.1197100878,7.565754992
48.96517893,-1.496376038,-7.383718014,-0.2801215947,7.539025206
48.97018293,-1.37666595,-7.529764175,-0.5003881454,7.670915589
48.97518847,-1.233013868,-7.795520782,-0.7469909191,7.927702246
48.98016478,-1.089361787,-8.149862289,-1.036689281,8.28744165
48.98516693,-0.9816226959,-8.700529099,-1.381454349,8.86404004
48.99017209,-0.8355764151,-9.133879662,-1.601720929,9.310824644
48.99517708,-0.653617084,-9.550470352,-1.838746905,9.747804339
49.00018224,-0.4596867263,-9.928754807,-2.130839586,10.16523297
49.00518685,-0.1053448766,-10.26394272,-2.513911724,10.56784604
49.00971401,0.009576806799,-10.53927612,-3.01190567,10.96120471
49.01516693,0.2346317619,-10.723629,-3.56496644,11.30310827
49.02017085,0.4285621047,-10.73799419,-3.881000996,11.42586336
49.02517639,0.6464344859,-10.6302557,-3.833117008,11.31870133
49.03018039,0.8451532125,-10.43153667,-3.315969467,10.97847416
49.03473824,0.940921247,-10.29506683,-2.815581083,10.71453362
49.04016255,1.036689281,-10.10831928,-2.111685991,10.37844213
49.04516624,1.082179189,-9.921571732,-1.740584612,10.1310578
49.05017055,1.161187768,-9.792284966,-1.55862534,9.983311817
49.05517432,1.256955862,-9.746794701,-1.419761658,9.929535142
49.06018139,1.510741234,-9.852140427,-1.156399369,10.03415515
49.06473762,1.910573006,-10.08916569,-0.9935936928,10.31643262
49.07015855,2.370259762,-10.30224991,-1.048660398,10.62328448
49.07516385,3.004723072,-10.37647057,-1.194706678,10.86861657
49.07972162,3.349488258,-10.39562416,-1.331176162,11.00273163
49.08517278,3.7181952,-10.58476543,-1.316810966,11.29584994
49.09017855,3.801992416,-10.83615685,-1.223437071,11.54877655
49.09518293,3.660734415,-11.13303757,-1.046266198,11.7660603
49.10018932,3.426102638,-11.62145519,-0.9816226959,12.15565643
49.10516255,3.129221678,-12.04762268,-1.00556469,12.48793021
49.11016716,2.707842112,-12.51928043,-1.156399369,12.86087287
49.11517239,2.147598982,-12.94066048,-1.544260144,13.2082404
49.12017916,1.37666595,-13.39555836,-2.140416384,13.63515952
49.12518201,0.6847416759,-13.71877575,-2.604891539,13.9806702
49.13018601,0.03830722719,-14.05156994,-2.987963676,14.36579313
49.13516078,-0.5530605912,-14.30056667,-3.253720045,14.67647019
49.14016839,-1.271321058,-14.46337223,-3.414131641,14.91514963
49.14517147,-2.023100376,-14.37957573,-3.639186621,14.97026428
49.15017578,-2.722207308,-14.26704788,-4.086902142,15.08846702
49.15518016,-3.222595453,-14.11860752,-4.252102375,15.09306378
49.16018662,-3.280056238,-14.05156994,-3.988739967,14.9704854
49.16519093,-2.846705914,-14.30774975,-3.560178041,15.01633461
49.1701647,-2.226607561,-14.60941887,-3.337517262,15.15031097
49.17516932,-1.623268723,-14.95897198,-3.232172251,15.39002214
49.18017547,-0.9265560508,-15.27740097,-3.366247654,15.67128297
49.18517916,-0.04548983276,-15.37556362,-3.315969467,15.72913473
49.19018447,0.02154781483,-14.90629959,-2.954444885,15.19628166
49.19518908,-0.5482721925,-14.2047987,-2.506729126,14.43470122
49.20016662,-1.30005157,-13.65652657,-1.936909199,13.85433034
49.20516962,-2.161964178,-13.247118,-0.9241618514,13.45415547
49.21017339,-3.251325846,-13.01248646,0.962469101,13.44701715
49.21517824,-4.01507616,-13.13698483,2.22900176,13.91652456
49.2201847,-4.592078686,-13.31655025,3.167528868,14.43783005
49.22518839,-4.886565685,-13.50090313,3.742137194,14.83767166
49.23016224,-5.257667065,-13.56075859,4.400542736,15.19546027
49.23516593,-5.743690014,-13.49132633,4.733336926,15.40812577
49.24017339,-6.406883717,-13.42189503,4.611232281,15.57109143
49.24517701,-7.165845871,-13.37401104,4.036623955,15.7005685
49.2501817,-8.101978302,-13.41231823,3.078943491,15.96910222
49.25518716,-9.239224434,-13.78581333,1.472434044,16.66073166
49.26016232,-9.334992409,-14.46337223,-0.1532289088,17.21495567
49.26516601,-8.834604263,-15.28218937,-1.742978811,17.73791193
49.27017147,-8.834604263,-15.28218937,-1.742978811,17.73791193
49.27517678,-7.115567684,-16.57984734,-3.232172251,18.32947295
49.28018262,-6.493074894,-16.46731949,-3.447650433,18.03382728
49.28518562,-5.805939198,-16.1249485,-3.689464808,17.53097387
49.29019055,-4.989516258,-15.75384712,-3.849876404,16.96763154
49.2951647,-4.817133904,-14.8823576,-4.12999773,16.17857311
49.30017001,-4.850652695,-14.07072353,-4.199429989,15.46445293
49.30517424,-3.45722723,-13.67328548,-3.028665066,14.42511588
49.31018016,-1.82198751,-13.47456741,-1.702277422,13.70333368
49.31518409,0.282515794,-13.19923401,1.017535686,13.24141127
49.32018909,1.503558636,-13.25908947,2.494758129,13.57527017
49.32516416,2.284068346,-13.17529202,1.716642618,13.48154849
49.33016809,2.803610086,-13.09388924,0.5650315881,13.40259026
49.3351727,2.968810081,-12.94066048,0.1268926859,13.27744812
49.34017793,2.597708941,-12.50730991,0.7924807668,12.79878583
49.34518293,2.341529369,-12.07635307,1.067813993,12.34752162
49.35018786,1.848323703,-11.52329254,1.070208192,11.71955277
49.35516132,1.139639974,-10.60870743,0.8882488012,10.70665394
49.36016939,0.349553436,-9.730035782,0.7757213712,9.76716579
49.36517155,-0.1268926859,-8.995016098,1.015141487,9.053006605
49.37017739,-0.5626373887,-8.283937454,1.438915253,8.426782166
49.37518262,-1.132457376,-7.240066051,1.592144132,7.499062546
49.38018632,-1.63523972,-6.323086739,1.659181833,6.738569522
49.38516109,-2.039859772,-5.64313364,1.826775908,6.272407464
49.39016686,-2.300827742,-5.011064053,2.042253971,5.880082697
49.39517086,-2.327163935,-4.434061527,2.013523579,5.397302179
49.40017516,-2.22900176,-3.94085598,1.752555609,4.854919759
49.40518016,-2.128445387,-3.548206806,1.352723956,4.353149826
49.41018509,-2.164358377,-3.311181068,0.8044517636,4.036769735
49.41519001,-2.11647439,-3.179499865,0.6105214357,3.867999438
49.4201647,-2.023100376,-3.047818661,0.5698199868,3.702273428
49.42516939,-2.221819162,-3.009511471,0.5291185975,3.778042638
49.43017455,-2.351106167,-3.08133769,0.3256114423,3.889519891
49.43517855,-2.367865562,-3.129221678,0.2106897533,3.929784447
49.4401857,-2.458845139,-3.141192675,0.1340752989,3.991364055
49.44518932,-2.559401512,-3.148375273,0.1388636976,4.059813553
49.45016478,-2.887407303,-3.059789658,0.1723825186,4.21059965
49.45516809,-3.143586874,-3.016694069,0.1699883193,4.360215312
49.46017339,-3.306392431,-2.956839085,0.2609679997,4.443335749
49.46517824,-3.354276657,-2.930502892,0.3711012602,4.469534118
49.47018324,-3.402160645,-2.868253708,0.5722141862,4.48653602
49.47518847,-3.375824451,-2.79163909,0.7805097699,4.449565713
