Time (s),Acceleration x (m/s^2),Acceleration y (m/s^2),Acceleration z (m/s^2),Absolute acceleration (m/s^2)
10.0047477,-6.598419666,-23.64034843,-0.2992752194,24.54576912
10.00972216,-4.211400986,-24.93082237,-2.614468336,25.41883646
10.01472824,-1.089361787,-24.29875374,-4.529829502,24.74137219
10.019732,2.468421936,-20.6523838,-4.510675907,21.28286308
10.02473685,2.595314741,-16.59421158,-2.020706177,16.91705559
10.02974185,0.316034615,-11.84172153,2.882618904,12.19162575
10.03474608,-2.243366957,-7.611167431,6.083666325,9.998677958
10.03975131,-4.367023945,-4.237737179,3.801992416,7.175267303
10.04472578,-5.693411827,-2.597708941,-0.7900865674,6.30771486
10.0497307,-6.974309444,-1.431732655,-4.661510944,8.510025553
10.0547357,-7.005434036,-0.9504981041,-5.171475887,8.759207472
10.0597397,-5.822698593,-1.194706678,-1.043871999,6.034965758
10.06474516,-4.249708176,-2.025494576,2.837129116,5.496539773
10.06975016,-2.930502892,-3.27287364,5.458779812,7.006984094
10.07472554,-1.180341482,-4.812345505,7.721300602,9.174440487
10.07972978,-0.7086837292,-6.658275127,9.555258751,11.66781171
10.08473439,-1.053448796,-7.960720539,11.19768143,13.77936483
10.08973839,-1.984793186,-9.167398453,11.89918232,15.15160514
10.09474424,-3.021482468,-10.63743782,11.24317074,15.77001357
10.09974885,-3.768473387,-11.50892735,9.99100399,15.69958474
10.10472339,-3.385401249,-12.40435886,9.279925346,15.85705127
10.10972862,-2.142810583,-13.5080862,7.702147007,15.69659513
10.11473293,-0.5219359994,-14.89193439,4.745307922,15.63841662
10.11973878,0.8236053586,-15.71793461,1.692700624,15.83025677
10.12474208,2.157175779,-16.09142876,-2.616862535,16.4449219
10.12974801,3.184288263,-15.88552856,-6.938396454,17.6247285
10.13472247,2.949656487,-14.73152351,-9.141061783,17.5862807
10.13972678,1.889025092,-13.44823074,-8.307879448,15.91993049
10.14473201,0.8355764151,-12.24873543,-6.330269337,13.81311034
10.14973593,0.08379705995,-11.26711273,-4.580107689,12.16273973
10.15474239,-0.5937620401,-10.38125896,-2.683900118,10.7390135
10.15974793,-1.357512355,-9.825803757,-1.259350061,9.998761015
10.16475254,-2.164358377,-9.440337181,-0.4213795066,9.694430049
10.16972554,-2.863465309,-9.126696587,-0.08379705995,9.565722456
10.17473047,-3.907337189,-8.410830498,-0.2968810201,9.278873418
10.17973593,-4.663905144,-7.785943985,-0.6392518282,9.098438208
10.18474062,-5.288791656,-7.24724865,-1.034295082,9.031262176
10.18974516,-5.588066578,-6.873753071,-1.446097851,8.975865883
10.19475039,-5.698200226,-6.514622688,-1.556231141,8.793841592
10.19972401,-5.530605793,-6.466738701,-1.482010841,8.637283485
10.20472947,-5.02064085,-6.517016888,-1.254561663,8.321794796
10.20973439,-4.491522312,-6.588842869,-1.070208192,8.045617975
10.21473939,-3.995922565,-6.622362137,-1.52510643,7.883465421
10.21974485,-3.608062029,-6.617573261,-1.716642618,7.730281324
10.22474862,-2.997540474,-6.68700552,-1.702277422,7.523233357
10.22972301,-2.214636564,-6.87854147,-1.814804912,7.450668744
10.23472801,-1.316810966,-7.141903877,-1.917755604,7.511229504
10.23973539,-0.7110779285,-7.412448406,-1.726219416,7.643942482
10.24473847,-0.2681505978,-7.678205013,-1.479616642,7.824065591
10.2497427,0.08619125932,-7.876923561,-1.197100878,7.967835605
10.25474739,0.2585737705,-8.190564156,-1.096544385,8.267684753
10.2597227,0.3447650373,-8.422801971,-1.094150186,8.500565899
10.26472731,0.4381389022,-8.647856712,-1.089361787,8.727204622
10.26973285,0.4501099288,-8.968679428,-1.015141487,9.037163375
10.27473754,0.4477157295,-9.217676163,-0.988805294,9.281365154
10.27974185,0.3854664862,-9.346963882,-0.9959878922,9.407779234
10.28474731,0.2729389966,-9.435548782,-1.019929886,9.494436976
10.28975131,0.1101332754,-9.423578262,-0.9552865028,9.472514392
10.29472585,-0.04070143029,-9.399636269,-0.787692368,9.43267077
10.2997307,-0.1723825186,-9.354146004,-0.6488286853,9.378205684
10.30473531,-0.356736064,-9.301473618,-0.423773706,9.317953436
10.30974124,-0.7469909191,-9.057265282,-0.05506663769,9.088183655
10.31474493,-0.9792284966,-8.825027466,0.1867477298,8.881152681
10.31975101,-1.158793569,-8.549694061,0.356736064,8.63523779
10.32472554,-1.393425345,-8.281543732,0.3734954596,8.406253603
10.32972916,-1.623268723,-7.960720539,0.2537853718,8.128498008
10.33473447,-1.707065821,-7.790732384,0.04548983276,7.975691451
10.33973939,-1.690306425,-7.781155586,-0.3016694188,7.968345029
10.34474431,-1.702277422,-7.790732384,-0.6464344859,8.000696035
10.34974893,-1.704671621,-7.912836552,-1.18752408,8.181020784
10.35472301,-1.625662923,-8.090007782,-1.618480325,8.408952635
10.35972762,-1.522712231,-8.334216118,-2.08295536,8.724477857
10.36473285,-1.429338455,-8.609549522,-2.300827742,9.025583621
10.36973785,-1.132457376,-9.057265282,-2.647987127,9.504122785
10.37474247,-0.7996633649,-9.476250648,-3.069366693,9.992987529
10.37974678,-0.4381389022,-9.873687744,-3.524264812,10.49295563
10.38475255,-0.1460463107,-10.23760605,-3.821146011,10.92845204
10.38972739,0.1197100878,-10.58476543,-3.859453201,11.26707455
10.39473201,0.282515794,-10.77869606,-3.682282209,11.39382755
10.39973931,0.4764461517,-10.88404083,-3.359065056,11.40055542
10.40474239,0.6177040339,-10.9199543,-2.8969841,11.31456924
10.40974701,0.7350199223,-10.84573364,-2.506729126,11.15589008
10.41475162,0.787692368,-10.76433086,-2.197877169,11.01462402
10.41972578,0.8427590132,-10.75714779,-2.049436569,10.98301696
10.42473101,1.022324085,-10.75714779,-2.15478158,11.01836915
10.4297357,1.211466074,-10.77869606,-2.434903145,11.11650539
10.43474054,1.644816518,-11.03008747,-2.870647907,11.51559249
10.43974485,2.200271368,-11.20007515,-3.124433279,11.83405935
10.44475008,2.849100113,-11.26471901,-3.002328873,12.00105181
10.44972401,3.222595453,-11.21922874,-2.7533319,11.99320856
10.45473047,3.397372246,-11.21922874,-2.533065319,11.99290005
10.45973439,3.636792421,-11.15458584,-2.092532396,11.91762292
10.4647397,3.56496644,-11.22401714,-1.493981838,11.87095313
10.46974424,3.313575268,-11.44188976,-1.086967587,11.9615267
10.47474985,2.985569477,-11.77707863,-0.8499416113,12.17931061
10.47972554,2.537853718,-12.12902546,-0.7182605267,12.412488
10.48472862,1.874659896,-12.59350109,-0.7781155705,12.75602145
10.48973231,1.37666595,-13.01966858,-1.175553083,13.14491933
10.49473816,0.8643068075,-13.49132633,-1.800439715,13.63834651
10.49974301,0.3136404157,-13.9151001,-2.518700123,14.14468916
10.50474831,-0.5051765442,-14.31253815,-3.320757866,14.70140756
10.50972247,-1.26413846,-14.43943024,-3.816357613,14.98865494
10.5147267,-2.140416384,-14.40112305,-4.228160381,15.16083993
10.51973224,-2.932897091,-14.26944256,-4.781220913,15.33228456
10.52473716,-3.588908434,-13.84566879,-5.307945251,15.25637869
10.52974239,-3.552995205,-13.57033539,-5.386953831,15.02654481
10.53474678,-3.052607059,-13.44104862,-4.953603268,14.6464461
10.53975078,-2.315192938,-13.42668343,-4.256890774,14.27434991
10.54472647,-1.256955862,-13.541605,-3.749319792,14.10717558
10.54973078,-0.423773706,-13.6062479,-3.347094059,14.01829536
10.55473624,0.004788403399,-13.63497829,-2.844311714,13.92848754
10.55974147,0.1891419291,-13.56315231,-2.262520552,13.75186804
10.56474493,0.2106897533,-13.20162773,-1.177947283,13.25575063
10.56975039,-0.1268926859,-12.87362289,-0.4477157295,12.8820308
10.57472485,-0.7374141216,-13.35964584,-0.7685387731,13.40203598
10.57972955,-1.37666595,-14.09945393,-0.758961916,14.186819
10.58473508,-2.389413357,-15.09065342,0.4932055473,15.28660749
10.58973939,-2.971204281,-15.80173111,1.965639591,16.19834868
10.59474308,-3.241749048,-16.36915779,3.744531393,17.1020402
10.59974854,-3.318363667,-16.63491249,5.456385612,17.81864178
10.60472301,-3.617638826,-16.44337654,6.555324078,18.06776734
10.60972855,-4.367023945,-16.10818863,6.397306919,17.87372862
10.61473408,-5.439626217,-15.69399261,5.791574001,17.59071536
10.61973778,-7.02937603,-15.43541813,4.611232281,17.57633987
10.62474301,-7.862558365,-15.57907009,3.538630009,17.80587407
10.62974916,-8.082824707,-15.79694271,2.164358377,17.87623846
10.63472362,-7.783549786,-15.95017147,0.4932055473,17.7548548
10.63972862,-7.046135426,-15.93341255,-1.582567334,17.49360396
10.64473139,-6.210559368,-15.7322998,-2.746149302,17.13527475
10.64973693,-5.501875401,-15.43781281,-4.149151325,16.90597983
10.6547427,-4.841075897,-15.10023022,-5.087678432,16.6534513
10.65974647,-4.338293552,-14.44900703,-5.861005783,16.18474541
10.66475162,-3.749319792,-13.79060173,-5.760449409,15.40846755
10.66972547,-2.911349297,-12.9382658,-4.649539471,14.0532165
10.67473078,-1.759738207,-12.27746677,-2.940079689,12.74664417
10.67973539,0.0287304204,-11.8680582,-1.26413846,11.9352284
10.68474024,1.465251446,-11.63821411,0.1891419291,11.73161388
10.68974547,2.111685991,-11.47780323,1.309628367,11.7436924
10.69475039,2.940079689,-11.61427212,1.886630893,12.12826292
10.69972454,3.098097086,-11.55681133,0.9600749016,12.0033261
10.70472947,3.052607059,-11.54723454,0.6943184733,11.96407595
10.70973439,2.755726099,-11.41315937,0.7326257229,11.7639693
10.71473932,2.506729126,-11.22641182,0.9840168953,11.54488209
10.7197467,1.843535304,-10.86967564,1.177947283,11.08765217
10.72474947,0.9576807022,-10.22563553,1.18752408,10.33880978
10.72972247,0.0359130241,-9.461885452,1.398213744,9.564704268
10.73472801,-0.6488286853,-8.767566681,1.879448295,8.990190769
10.73973293,-1.343147159,-7.900865555,2.159569979,8.30008815
10.74473847,-1.673547029,-7.417236805,2.130839586,7.896621988
10.7497427,-1.848323703,-6.766014099,2.178723574,7.344527467
10.75474762,-2.286462545,-6.038176537,2.202665567,6.821966173
10.75972247,-2.595314741,-5.233725071,1.980004787,6.168302496
10.76472732,-2.717418909,-4.675876141,1.812410712,5.703772068
10.76973224,-2.892195702,-4.228160381,1.74776721,5.412654285
10.77473685,-2.978386879,-3.938461781,1.577778935,5.183787801
10.77974178,-3.055001259,-3.643975019,1.37427175,4.949768629
10.78474701,-3.055001259,-3.517082214,1.276109457,4.830254169
10.78975108,-3.057395458,-3.354276657,1.244984865,4.706253945
10.79472608,-2.940079689,-3.241749048,1.113303781,4.515800126
10.79973232,-2.82036972,-3.112462282,0.9959878922,4.316699978
10.80473532,-2.808398485,-3.021482468,0.9481038451,4.232653926
10.80973993,-2.686294317,-2.997540474,0.8188169599,4.107540294
10.81474547,-2.798821688,-3.019088268,0.7374141216,4.182352974
10.81975008,-2.942473888,-3.110068083,0.720654726,4.341660892
10.82472485,-3.08133769,-3.19865346,0.6871358752,4.494238715
10.82972924,-3.239354849,-3.268085241,0.6584054828,4.648365171
10.83473416,-3.430891037,-3.387795448,0.6344634295,4.863200094
10.83973816,-3.699041605,-3.411737442,0.6871358752,5.078879491
10.84474432,-4.05577755,-3.361459255,0.7829039693,5.325568372
10.84974978,-4.209006786,-3.366247654,0.873883605,5.459948164
10.85472332,-4.23294878,-3.378218651,0.9433154464,5.497277568
10.85972832,-4.146757126,-3.38061285,0.962469101,5.43603575
10.86473293,-3.964797974,-3.42131424,0.8858546019,5.311285388
10.86973847,-3.79241538,-3.466804028,0.7948749661,5.199324071
10.87474239,-3.629609823,-3.493140221,0.5315127969,5.065432057
10.87975039,-3.60327363,-3.512293816,0.1915361285,5.035521303
10.88472278,-3.588908434,-3.555389643,-0.2585737705,5.058450321
10.88972708,-3.588908434,-3.617638826,-0.7110779285,5.145211973
10.89473193,-3.620033026,-3.782838583,-1.323993564,5.400691234
10.89973601,-3.67988801,-3.969586372,-1.889025092,5.733027781
10.90474185,-3.787626982,-4.163516521,-2.542642117,6.176246183
10.90974608,-3.531447411,-4.426878929,-2.923320293,6.372925498
10.91475162,-3.222595453,-4.833893299,-3.773261786,6.927420182
10.9197267,-3.167528868,-5.109226227,-4.587290287,7.561789731
10.92473101,-3.181894064,-5.384559631,-5.365406036,8.240480216
10.92973539,-3.222595453,-5.724536419,-6.059724331,8.937320495
10.93474185,-3.308786631,-6.268020153,-6.617573261,9.69682533
10.93974493,-3.363853455,-6.847416878,-6.993463039,10.34945183
10.94475008,-3.56736064,-7.627926826,-7.88171196,11.5339808
10.94972555,-3.768473387,-8.688557625,-9.701305389,13.55757174
10.95472955,-4.443638325,-10.72602367,-11.48498535,16.33090304
10.95973685,-4.999093056,-12.49294472,-9.600749016,16.52994195
10.9647397,-4.680664539,-14.27901936,-6.596025467,16.41056264
10.96974432,-4.146757126,-16.05072784,-4.572925091,17.19689224
10.97474985,-4.316745758,-18.26057625,-5.652710438,19.59683837
10.9797237,-4.723760128,-19.62766647,-10.27112484,22.65072198
10.98472732,-4.043806553,-19.98918915,-17.30529022,26.7468339
10.98973324,-1.074996591,-19.90060425,-22.97715378,30.41610203
10.99473785,1.872265697,-20.04664993,-24.03778458,31.35583901
10.99974247,3.983951569,-19.63245392,-21.68189049,29.51964587
11.00474824,4.912901878,-18.18396187,-17.14966583,25.47359637
11.00972208,4.668693542,-15.58625317,-12.22958183,20.35413125
11.01472732,4.750096321,-11.38682365,-9.543288231,15.59799725
11.01973162,5.612008572,-7.982268333,-8.195352554,12.74264696
11.02473693,6.528987885,-5.118803024,-8.252813339,11.70208337
11.02974178,7.003039837,-3.205836058,-9.373299599,12.13172276
11.03474701,6.06211853,-3.141192675,-10.00776291,12.11493669
11.03975285,4.182670593,-4.125209332,-9.576807022,11.23509315
11.04472524,2.420537949,-5.19781208,-8.190564156,9.998079594
11.04973047,0.2202665508,-6.572083473,-5.925649166,8.851786067
11.05473508,-1.309628367,-7.903259754,-3.473986626,8.731851137
11.05974055,-2.832340717,-9.339780807,-0.9026140571,9.801447424
11.06474516,-4.161122322,-10.90319443,1.537077546,11.77103203
11.06974978,-5.475539207,-13.20641613,4.206612587,14.90256844
11.07472516,-6.440402508,-15.22233486,5.726930618,17.49274128
11.07973009,-6.660669327,-17.35556793,6.95276165,19.84744691
11.08473416,-6.521805286,-19.55105019,7.304709435,21.86632771
11.08973939,-5.458779812,-21.6435833,5.310339451,22.94433874
11.09474401,-4.977545261,-22.64435959,2.310404539,23.29980573
11.09974893,-3.117250681,-22.34987259,-0.2873041928,22.56804378
11.10472332,-0.8714894056,-20.31001282,-2.540247917,20.48679999
11.10972862,-0.85473001,-16.0555172,-4.209006786,16.62004615
11.11473262,-2.542642117,-12.06917095,-2.755726099,12.63819381
11.11973839,-4.632780075,-7.809885979,-0.3591302633,9.087680935
11.12474339,-5.310339451,-5.118803024,-1.649604917,7.557978954
11.12974793,-7.273584843,-3.150769472,-7.599195957,10.98089996
11.13472301,-10.29027843,-1.268926859,-11.63103199,15.58142839
11.1397277,-12.09550667,0.3064578176,-14.52562141,18.90473156
11.14473139,-12.16015053,1.022324085,-12.48336792,17.45705823
11.14973716,-9.911994934,0.517147541,-3.232172251,10.43848756
11.15474147,-7.936778545,-0.5363011956,4.211400986,9.000887229
11.15974578,-6.081272125,-1.78368032,8.750806808,10.80462891
11.16475101,-4.187458992,-2.942473888,10.87207031,12.016442
11.16972455,-2.224213362,-4.673481941,11.59033012,12.69347513
11.1747307,-1.280897856,-6.43082571,13.58470058,15.08443929
11.17973532,-1.793257117,-8.152256966,16.17283249,18.19987845
11.18474001,-3.337517262,-9.830592155,17.00362015,19.92241606
11.18974485,-3.471592426,-11.77707863,15.71793461,19.9450496
11.19475039,-2.542642117,-13.32133865,14.01326275,19.50114421
11.19972585,-1.503558636,-14.80334949,11.88002872,19.04034998
11.20472947,-0.1268926859,-15.96693134,8.626308441,18.14861415
11.20973409,1.11569798,-16.97249603,5.602431774,17.90803298
11.21473932,3.08133769,-17.55189323,0.3471592367,17.8236954
11.21974309,6.303933144,-17.68117905,-10.14662647,21.33817458
11.22474893,7.58722496,-16.83842087,-16.98925591,25.09448577
11.22972301,5.679046631,-15.27261257,-15.57667637,22.54189682
11.23472793,3.773261786,-13.31415558,-12.52167511,18.66270588
11.23973378,2.52827692,-11.74355888,-9.409213066,15.25898588
11.24473878,1.675941229,-10.66137981,-6.162675381,12.42788664
11.24974209,1.048660398,-10.10113716,-3.608062029,10.77732676
11.25474762,0.0359130241,-9.349357605,-1.355118155,9.44712245
11.25975232,-1.142034173,-8.698134422,0.1556231081,8.7741668
11.26472647,-2.640804529,-7.951143742,0.7805097699,8.414495283
11.26973262,-3.653551817,-7.51061058,0.7445967197,8.385233237
11.27473724,-4.486733913,-6.976703644,0.5770025849,8.314932767
11.27974485,-5.176264286,-6.493074894,0.4285621047,8.314890199
11.2847477,-5.901707172,-6.011840343,0.6368576288,8.448547775
11.28975101,-5.688623428,-5.7963624,0.8236053586,8.163123138
11.29472547,-5.398924828,-5.686229229,0.2729389966,7.845768785
11.29973016,-4.939238071,-5.726930618,-0.2322375625,7.566223716
11.30473601,-3.933673382,-5.899312973,-0.3375824392,7.098566174
11.30973993,-2.949656487,-6.181828976,-0.09816227108,6.850191144
11.31474547,-1.826775908,-6.588842869,-0.1197100878,6.838442153
11.3197507,-0.8906430602,-6.936002254,-0.2250549644,6.996572166
11.32472493,-0.07422025502,-7.453149796,-0.4118026793,7.464886601
11.32972916,0.2513911724,-7.891288757,-0.7015010715,7.926395115
11.33473416,0.3950432837,-8.353369713,-0.9145850539,8.412568608
11.33973993,0.3926490843,-8.808267593,-1.072602391,8.882017068
11.34474462,0.2418143749,-9.275136948,-1.086967587,9.341741707
11.34974924,0.117315881,-9.466673851,-1.048660398,9.525301331
11.3547237,-0.1508347094,-9.658209801,-1.146822572,9.727228263
11.35973016,-0.2035071403,-9.727641106,-1.26413846,9.811547415
11.36473378,-0.423773706,-9.749189377,-1.254561663,9.838709398
11.36973847,-0.8499416113,-9.545681953,-1.199495077,9.658221013
11.37474393,-1.283292055,-9.30386734,-1.185129881,9.466431155
11.37974762,-1.78128612,-9.009381294,-1.027112484,9.241043859
11.38472216,-2.118868589,-8.678980827,-0.7972691655,8.969389635
11.38972732,-2.391807556,-8.413225174,-0.4932055473,8.760499582
11.39473162,-2.585737944,-8.188169479,-0.1771709323,8.588570875
11.39973724,-2.640804529,-7.982268333,0.1604115069,8.409291775
11.40474155,-2.679111719,-7.841010571,0.4979939461,8.301029113
11.40974739,-2.63601613,-7.596801758,0.8283938169,8.083700533
11.41475101,-2.602497339,-7.460332394,0.8906430602,7.951276431
11.41972486,-2.372653961,-7.400477409,0.940921247,7.828274746
11.42473078,-2.159569979,-7.460332394,0.8786720037,7.816160592
11.42973601,-1.972822189,-7.632715225,0.6991068721,7.914487951
11.43474093,-1.812410712,-7.850587368,0.3639186621,8.065295494
11.4397467,-1.628057122,-8.264783859,-0.3711012602,8.431781448
11.44475078,-1.484405041,-8.559270859,-1.242590666,8.775454833
11.44972524,-1.33835876,-8.971074104,-2.310404539,9.359986319
11.45472916,-1.185129881,-9.437943459,-3.426102638,10.11026651
11.45973439,-0.8762778044,-9.830592155,-4.625597477,10.89975032
11.46473909,-0.586579442,-10.10831928,-5.221754074,11.39249357
11.46974424,-0.2585737705,-10.35971069,-5.413290024,11.69162841
11.47474893,0.04788403213,-10.49857426,-5.109226227,11.67589598
11.47972362,0.5147533417,-10.68292809,-4.158728123,11.47540601
11.48472793,0.9385270476,-10.91277122,-3.071760893,11.37563729
11.48973409,1.419761658,-11.14022064,-2.094926596,11.42405167
11.49473839,1.848323703,-11.36767006,-1.592144132,11.62648468
11.49974239,2.33913517,-11.64300251,-1.477222443,11.96717372
11.50474862,2.734178305,-11.901577,-1.613691926,12.31776228
11.50972186,3.107673883,-12.11705494,-1.948880196,12.66012604
11.51472678,3.550601006,-12.21042824,-2.279279947,12.9188406
11.51973447,4.134786129,-12.22000504,-2.729389906,13.18614988
11.52473693,4.455609322,-12.11226654,-2.952050686,13.23911094
11.52974147,4.647145271,-12.08353615,-2.93529129,13.274929
11.5347467,4.582501888,-12.17212105,-2.612074137,13.26585036
11.5397517,4.417302132,-12.21761131,-1.865083098,13.12482835
11.54472578,4.187458992,-12.40196514,-1.221042871,13.14665349
11.54973016,3.890577793,-12.66053867,-0.7709329724,13.26725943
11.55473624,3.414131641,-12.91671848,-0.5243301988,13.37059585
11.55974062,2.719813108,-13.34049225,-0.6368576288,13.62980941
11.56474524,2.035071373,-13.75229454,-1.00556469,13.9383744
11.56975039,1.201889277,-14.1904335,-1.438915253,14.31374926
11.57472393,0.03830722719,-14.60223579,-1.972822189,14.73495114
11.57972986,-1.024718285,-15.04755783,-2.942473888,15.36675622
11.58473439,-2.288856745,-15.08347034,-3.773261786,15.71583429
11.58973909,-3.526659012,-14.98770237,-4.623203278,16.07614863
11.59474432,-4.654327869,-14.60463047,-4.967968464,16.11330847
11.5997507,-4.860229492,-14.38436413,-4.601655483,15.8652764
11.60472401,-4.649539471,-14.4753437,-4.101267338,15.74719614
11.6097277,-3.847482204,-14.85123348,-3.562572241,15.74973575
11.61473255,-2.808398485,-15.18642139,-2.619256735,15.66445028
11.61973839,-2.068590164,-15.40668774,-2.04464817,15.67882899
11.62474247,-1.520318031,-15.41387081,-1.740584612,15.58616101
11.62974762,-1.359906554,-15.06671143,-1.467645645,15.19898427
11.6347227,-1.838746905,-14.37239265,-1.106121182,14.53169518
11.63972709,-2.700659513,-13.80975533,-0.4213795066,14.07765835
11.64473232,-3.79241538,-13.43147182,-0.05267243832,13.95670535
11.64973662,-4.843470097,-13.43147182,0.2920926213,14.28106985
11.65474093,-6.047753334,-13.71638107,0.9911994934,15.02321226
11.6597467,-6.950367451,-13.78102493,1.89860189,15.5508503
11.66475139,-7.829039574,-13.75708294,2.947262287,16.10085546
11.66972647,-8.458714485,-13.75229454,3.801992416,16.58706129
11.6747307,-9.064447403,-13.79778481,4.544194698,17.12287294
11.67973693,-9.526528358,-13.95819569,4.534617901,17.4971063
11.68474032,-10.0604353,-14.1952219,3.770867586,17.80269995
11.68974455,-10.92713642,-14.592659,2.406172752,18.38852018
11.69475047,-11.09712505,-15.36119843,0.423773706,18.95500424
11.69972493,-10.53927612,-15.90947056,-1.067813993,19.11355073
11.70472978,-9.902418137,-16.24944687,-2.679111719,19.21666069
11.70973386,-9.612719536,-16.34282112,-3.952826977,19.36793794
11.71473993,-9.270348549,-16.13213158,-4.443638325,19.12932181
11.71974424,-8.506598473,-15.67723274,-4.510675907,18.39793579
11.72474793,-7.484274387,-15.22951698,-4.235342979,17.48973072
11.7297237,-6.150704384,-14.68842697,-3.519476414,16.30851819
11.73472793,-4.841075897,-13.91749477,-3.634398222,15.17700652
11.73973316,-4.031835556,-13.19923401,-3.67988801,14.28345379
11.74473786,-2.109291792,-12.94066048,-2.051830769,13.27101409
11.74974332,0.2442085743,-12.87601662,0.02394201607,12.87835451
11.7547477,2.913743496,-12.91671848,2.078166962,13.40336881
11.75972486,4.120420933,-12.89995861,2.487575531,13.76861768
11.76472709,4.369418144,-12.72039318,1.764526606,13.56516759
11.76973286,4.556165695,-12.47379112,0.653617084,13.29591389
11.77473663,4.407725334,-11.901577,0.3471592367,12.6963025
11.77974186,3.986345768,-11.15937424,0.3280056417,11.85454232
11.78474616,3.964797974,-10.65180302,0.8283938169,11.39591009
11.78975109,2.916137695,-9.737217903,0.9313444495,10.2070894
11.79472616,1.879448295,-9.054870605,1.063025594,9.30876098
11.79973009,0.9504981041,-8.24802494,1.30005157,8.403778683
11.80473593,0.2466027737,-7.481880188,1.508347034,7.636390172
11.80974062,-0.4764461517,-6.734889507,1.644816518,6.949184052
11.81474516,-0.739808321,-6.148310184,1.872265697,6.469498691
11.81974986,-1.316810966,-5.54018259,2.214636564,6.110010586
11.82472424,-1.70946002,-4.862623692,2.329558372,5.65634201
11.82928301,-1.889025092,-4.206612587,2.463633537,5.228144552
11.83473447,-2.190694571,-3.361459255,2.473210335,4.713313101
11.83974178,-2.456450939,-2.863465309,2.403778553,4.473447901
11.84474486,-2.571372509,-2.461239338,2.391807556,4.288402855
11.84974955,-2.932897091,-2.276885748,2.221819162,4.32695903
11.85472362,-3.332728863,-2.284068346,1.910573006,4.469266057
11.85972855,-3.531447411,-2.327163935,1.52510643,4.495860587
11.86473293,-3.569754839,-2.384624958,1.242590666,4.469185313
11.86973809,-3.442862034,-2.403778553,1.04147768,4.326213827
11.87474209,-3.265691042,-2.477998734,0.9720458984,4.213085441
11.87974801,-3.323152065,-2.571372509,0.9481038451,4.307458314
11.88472332,-3.299209833,-2.659958124,0.8978256583,4.332003423
11.88972647,-3.349488258,-2.71263051,0.7900865674,4.381971322
11.89473263,-3.375824451,-2.741360903,0.7110779285,4.406459139
11.89973693,-3.483563423,-2.695871115,0.7900865674,4.475172843
11.90474155,-3.502717018,-2.703053713,0.8714894056,4.509436735
11.90974616,-3.466804028,-2.719813108,0.9097966552,4.499315888
11.91475132,-3.318363667,-2.746149302,0.9600749016,4.413005464
11.91972762,-3.131615877,-2.808398485,1.053448796,4.336343439
11.92473193,-2.908955097,-2.882618904,1.132457376,4.248996495
11.92973601,-2.681505919,-2.916137695,1.043871999,4.096828261
11.93474001,-2.647987127,-2.932897091,0.758961916,4.023648141
11.93974609,-2.434903145,-3.040636063,0.7900865674,3.974727384
11.94474986,-2.243366957,-3.162740469,0.6751648784,3.935920501
11.94972424,-2.281674147,-3.208230257,0.4165911078,3.958828923
11.95472924,-2.293645144,-3.181894064,0.08619125932,3.923351477
11.95973439,-2.30561614,-3.172317266,-0.2777273953,3.931487649
11.96473993,-2.197877169,-3.179499865,-0.7733271718,3.941816631
11.96974424,-2.051830769,-3.215412855,-1.312022567,4.03364507
11.97430216,-1.862688899,-3.349488258,-1.881842494,4.269661895
11.9797224,-1.577778935,-3.639186621,-2.698265314,4.797259774
11.98428062,-1.161187768,-4.120420933,-3.782838583,5.71280084
11.98928516,-0.6368576288,-4.745307922,-4.807557106,6.784993754
11.9947387,-0.1316810995,-5.640739441,-6.114790916,8.320213297
11.99974516,-0.03112462163,-6.411672115,-7.345410824,9.750157344
12.00474793,-0.05267243832,-7.477091789,-8.444349289,11.27903856
12.00972247,-0.1628057212,-8.453926086,-9.203310966,12.497852
12.01472678,-0.5267243981,-9.287108421,-10.17296314,13.78466541
12.01973232,-1.084573388,-10.0364933,-11.30063248,15.15294663
12.02473663,-2.020706177,-11.13782597,-12.50252151,16.8655704
12.02974147,-3.112462282,-12.72278786,-13.12261963,18.54076315
12.03474709,-3.775655985,-14.94700146,-13.30697346,20.36526389
12.03975101,-3.591302633,-17.67399788,-14.27423096,23.00046358
12.0447264,-2.892195702,-21.84708977,-17.97566605,28.43914023
12.0497307,-1.534683347,-25.44078636,-21.07615662,33.07254513
12.05428862,0.390254885,-27.39685059,-19.33078384,33.53235639
12.05974024,2.688688517,-26.62591743,-15.90707588,31.13203476
12.06474555,3.466804028,-23.74329758,-11.288661,26.5178577
12.0697504,2.468421936,-20.16636086,-9.033323288,22.23457098
12.07472547,1.683123827,-15.89271069,-8.367734909,18.03968254
12.07973286,1.455674648,-11.35569859,-8.954314232,14.53446327
12.08473601,1.26653266,-6.373364925,-10.57518864,12.41203046
12.08974001,1.199495077,-3.452438831,-11.70525169,12.26258698
12.09474393,1.168370485,-1.527500629,-11.6908865,11.84800299
12.09974893,1.086967587,-0.739808321,-10.36928749,10.45231735
12.10427624,0.3615244627,-1.00556469,-8.714894295,8.780161892
12.10972793,-1.565807939,-2.178723574,-5.894524574,6.476419603
12.11473255,-3.543418407,-3.397372246,-3.040636063,5.774376144
12.11973816,-5.382165432,-4.814739704,-0.08858546615,7.221999068
12.12474278,-7.098807812,-6.971915245,3.323152065,10.49018657
12.12974793,-8.216899872,-9.018958092,5.54018259,13.39972655
12.1347227,-9.026140213,-11.35091019,7.153874874,16.17072339
12.13927993,-9.425971985,-13.83848572,7.905653954,18.5162631
12.1447317,-9.804255486,-17.28853035,7.522581577,21.25102211
12.14973663,-9.418789864,-20.24058151,6.641515732,23.29172543
12.1547424,-8.090007782,-22.99151802,4.817133904,24.84477623
12.15974824,-5.647922039,-25.30910683,-1.740584612,25.98998935
12.1647514,-1.891419291,-26.85097122,-10.41238308,28.86121695
12.16972578,2.018311977,-25.90286827,-16.35958099,30.70289983
12.1747307,2.056619167,-22.00031853,-11.80580902,25.05236165
12.17973632,-1.623268723,-14.01086807,3.452438831,14.52097653
12.18474055,-4.503493309,-8.185775757,10.17535686,13.81398799
12.18974524,-5.408501625,-4.934449673,8.090007782,10.91095364
12.1947507,-5.676652431,-3.15795207,1.333570361,6.631399099
12.19972493,-8.801085472,-0.1197100878,-6.847416878,11.15170632
12.20472924,-9.821015358,1.692700624,-10.02452278,14.13536823
12.2097344,-8.664615631,2.078166962,-6.189011574,10.84888041
12.21474024,-6.864176273,1.37666595,-0.1699883193,7.002929464
12.21974493,-5.231330872,-0.2466027737,5.31512785,7.461783947
12.22474893,-4.338293552,-1.529894829,7.838616371,9.088744454
12.22972332,-3.043030262,-3.074155092,9.789890289,10.70291617
12.23472893,-1.853112102,-4.951209068,11.75313568,12.88738507
12.23928647,-1.795651317,-6.928819656,13.47935581,15.26191137
12.24473809,-3.861847401,-9.0740242,14.83447361,17.81329245
12.24929532,-4.642356873,-10.76672459,14.53280449,18.6728745
12.25471724,-4.580107689,-12.34210968,12.80419064,18.36443181
12.25927501,-3.801992416,-13.84566879,11.0085392,18.09269538
12.26472709,-2.401384354,-15.5503397,8.374917984,17.82467287
12.26973224,-0.624886632,-16.81926727,5.659893036,17.75704435
12.27473693,1.422155857,-17.86553383,1.764526606,18.00870291
12.27974209,4.601655483,-18.71547508,-5.231330872,19.97025447
12.2847467,6.449979305,-18.53590965,-10.12029076,22.08172241
12.2897514,5.791574001,-17.27895355,-11.62863731,21.61781143
12.29472555,4.010287762,-15.41865921,-10.75954247,19.22459919
12.29973016,2.178723574,-12.97178459,-8.099584579,15.44724255
12.30473532,1.395819545,-11.36527538,-5.588066578,12.74143967
12.30974024,0.6631938815,-10.05325317,-4.09408474,10.87516691
12.31474547,-0.0718260482,-9.157821655,-2.640804529,9.53124887
12.31975232,-1.127668977,-8.252813339,-0.3950432837,8.338862304
12.32472578,-2.30801034,-7.577648163,0.4955997467,7.93683076
12.32972978,-3.117250681,-6.983886242,0.5889736414,7.670645918
12.33428763,-3.699041605,-6.569689274,0.5291185975,7.558021728
12.33973878,-4.42448473,-6.054935932,0.07900865376,7.4996371
12.34429663,-4.939238071,-5.772420406,-0.3471592367,7.605092347
12.3497187,-5.451597214,-5.640739441,-0.5913678408,7.866865293
12.3547234,-5.585672379,-5.477933407,-0.4118026793,7.834352033
12.35972924,-4.94642067,-5.485116005,0.1388636976,7.387344459
12.36473293,-4.113238335,-5.631162167,-0.1268926859,6.974583765
12.36973786,-3.435679436,-5.868188381,-0.4429273009,6.814375441
12.37474309,-2.523488522,-6.370970726,-0.3280056417,6.860382643
12.37974732,-1.826775908,-6.904877663,-0.1771709323,7.14463682
12.38475286,-1.113303781,-7.417236805,-0.1699883193,7.502249207
12.38972701,-0.6823474765,-7.869740963,-0.3663128614,7.907756067
12.39428455,-0.3974374831,-8.252813339,-0.6033388376,8.284377002
12.3992917,-0.09816227108,-8.643068314,-0.8834604025,8.688657433
12.4047424,0.1364694983,-8.959102631,-1.036689281,9.019915107
12.4097467,0.3112462163,-9.153033257,-0.9744400978,9.210017671
12.4147517,0.349553436,-9.258378029,-0.8188169599,9.301086632
12.41972578,0.3280056417,-9.198522568,-0.5027823448,9.218090649
12.42428332,0.2537853718,-9.160215378,-0.215478152,9.16626334
12.42973624,0.08379705995,-9.205705643,-0.05027823523,9.20622432
12.43474024,-0.2106897533,-9.119514465,0.1340752989,9.122933215
12.43974547,-0.4979939461,-9.088389397,0.2753331959,9.106186258
12.44474955,-0.8858546019,-8.956708908,0.4118026793,9.00982543
12.44927778,-1.233013868,-8.813055992,0.4884171486,8.912285365
12.45472917,-1.568202138,-8.671798706,0.4453215301,8.823698885
12.45973416,-1.697489023,-8.547300339,0.2992752194,8.719367966
12.46473932,-1.750161409,-8.410830498,0.09816227108,8.591552273
12.46974455,-1.762132406,-8.377311707,-0.1963245422,8.562885341
12.47474916,-1.728613615,-8.46589756,-0.6631938815,8.665988268
12.47972555,-1.673547029,-8.561665535,-1.000776291,8.780912799
12.48472832,-1.606509328,-8.726864815,-1.244984865,8.960414557
12.48973293,-1.422155857,-8.84896946,-1.505952835,9.088161625
12.49473878,-0.9768342972,-8.961497307,-1.915361404,9.215815131
12.4997427,-0.6488286853,-9.114726067,-2.11647439,9.379694759
12.50474824,-0.3327940404,-9.217676163,-2.410961151,9.533574324
12.5097227,-0.0191536136,-9.337387085,-3.004723072,9.808951278
12.5147274,0.5530605912,-9.50976944,-3.742137194,10.23450935
12.51973224,1.029506683,-9.713275909,-4.084507942,10.58729512
12.52473724,1.479616642,-9.938331604,-4.290409565,10.92553499
12.52929501,1.881842494,-10.15859795,-4.199429989,11.15229374
12.53471624,2.23139596,-10.56561184,-3.435679436,11.33204195
12.5397514,2.497152328,-10.94629002,-2.477998734,11.49771771
12.54472586,2.784456491,-11.29105568,-1.577778935,11.7358648
12.54973078,3.05021286,-11.50413895,-1.07739079,11.9503047
12.55473563,3.028665066,-11.5927248,-1.256955862,12.04757313
12.55974209,3.038241863,-11.53765774,-1.802833915,12.06642738
12.56474578,2.942473888,-11.39161205,-2.41574955,12.01094599
12.56975047,2.844311714,-11.18331623,-2.913743496,11.90153655
12.57472486,2.813186884,-11.01572227,-2.983175278,11.75412661
12.57972978,2.700659513,-10.9151659,-2.868253708,11.60436503
12.58473378,2.755726099,-10.81700325,-2.52827692,11.44525097
12.58929224,2.743755102,-10.88404083,-2.159569979,11.43041029
12.59426609,2.655169725,-11.05402946,-1.774103403,11.50603913
12.59971809,2.511517525,-11.50174522,-1.369483352,11.8521453
12.6047237,2.303221941,-11.92791271,-1.146822572,12.20225942
12.60972824,1.908178806,-12.40196514,-1.18991828,12.60419737
12.61473263,1.474828243,-12.74672985,-1.470039845,12.9156981
12.61973878,0.962469101,-12.98136139,-1.905784607,13.1557632
12.62474301,0.4022258818,-13.14416695,-2.432508945,13.37340683
12.62974732,-0.2059013397,-13.42668343,-3.045424461,13.76927134
12.63472217,-0.8212111592,-13.66370869,-3.481169224,14.12408801
12.63972886,-1.465251446,-13.94861889,-3.981557369,14.57956549
12.64428455,-2.099714994,-14.16409683,-4.560954094,15.02773251
12.64929009,-2.549824715,-14.27901936,-4.989516258,15.33907665
12.65474301,-2.770091295,-14.39394093,-4.853046894,15.44056363
12.65974678,-2.52827692,-14.42267132,-4.139574528,15.21649465
12.66475163,-2.157175779,-14.35323906,-3.033453465,14.82803826
12.66972547,-1.388636947,-14.65490818,-2.353500366,14.90750181
12.67473132,-0.5363011956,-15.05713463,-2.240972757,15.2324286
12.6797354,0.1723825186,-15.41147614,-2.169146776,15.56433455
12.68474094,0.720654726,-15.57428169,-2.226607561,15.74913886
12.68974586,0.9720458984,-15.41865921,-2.257732153,15.61336862
12.69475016,0.6823474765,-15.13374901,-1.9321208,15.27183839
12.69972486,-0.2753331959,-14.7650423,-1.501164436,14.84371171
12.70472986,-2.039859772,-14.23831749,-0.7517793179,14.40332895
12.70973478,-4.616020679,-13.60864258,0.3663128614,14.37487339
12.7147394,-6.047753334,-13.46499062,1.367089152,14.82397468
12.71974678,-6.962338448,-13.63976669,1.762132406,15.41500901
12.72474955,-8.293514252,-13.73074722,2.346317768,16.21175515
12.7297237,-9.447520256,-13.75708294,2.918531895,16.94198331
12.73472794,-10.23042393,-13.78341961,3.390189648,17.49678873
12.7397344,-10.80503273,-13.85045719,3.485957623,17.90909817
12.74473817,-11.31978607,-13.86961079,3.01190567,18.15420711
12.74974363,-11.48977375,-13.98213768,2.509123325,18.27048918
12.75430055,-11.82256794,-14.35084534,1.580173135,18.66056863
12.75972209,-11.40597725,-14.82010841,0.2035071403,18.70222836
12.7647264,-10.30464458,-15.28937244,-1.503558636,18.49895398
12.76928517,-9.674968719,-15.40908241,-2.343923569,18.34499436
12.77428917,-9.038111687,-15.43062973,-3.325546265,18.18931155
12.77929447,-8.415618896,-15.12656593,-3.871424198,17.73763129
12.78471632,-7.948749542,-14.64054298,-4.316745758,17.20936989
12.78975294,-7.134721279,-14.22395229,-4.417302132,16.5147699
12.79472586,-6.042964935,-13.77384281,-4.141968727,15.60102804
12.79973286,-4.61362648,-13.47935581,-3.914519787,14.77504814
12.8047354,-2.731784105,-13.05318737,-2.97599268,13.66399932
12.80974001,-1.206677675,-12.96939087,-1.687912226,13.13431453
12.81474555,1.482010841,-13.56075859,0.8595184088,13.66855155
12.81975017,3.265691042,-13.90791798,1.470039845,14.36161333
12.82472494,3.94085598,-13.77623653,1.096544385,14.37071496
12.82928186,4.405331135,-13.78102493,-0.1699883193,14.46901816
12.83428709,4.438849926,-13.40034676,-0.5506663918,14.12713401
12.83973901,4.522646904,-13.06037045,0.2466027737,13.82347366
12.8447437,4.821922302,-12.78982544,0.5722141862,13.68057011
12.8493024,4.029441357,-12.23437023,0.4381389022,12.88829618
12.85472278,2.628833532,-11.15697956,0.4357447028,11.47078167
12.85972886,1.256955862,-9.821015358,0.8355764151,9.93632068
12.86473286,0.06943184882,-8.777143478,1.482010841,8.901652911
12.86973747,-0.5889736414,-7.845798969,1.529894829,8.015237339
12.87474394,-1.039083481,-7.10599041,1.326387763,7.303019833
12.87975009,-1.520318031,-6.421248913,1.209071875,6.70862574
12.88472278,-2.027888775,-5.554547787,1.321599364,6.059039435
12.88972763,-2.291250944,-4.953603268,1.532289028,5.668855783
12.89428401,-2.422932148,-4.34787035,1.793257117,5.290590502
12.89928917,-2.523488522,-3.687070608,1.924938202,4.864963625
12.90474217,-2.686294317,-2.964021683,1.649604917,4.326984871
12.9097464,-2.944868088,-2.559401512,1.369483352,4.135005297
12.9147517,-3.548206806,-2.212242365,2.310404539,4.777212258
12.91972578,-3.246537447,-2.147598982,1.019929886,4.023983568
12.92473109,-2.863465309,-2.173935175,0.5339069963,3.634623007
12.9297357,-3.201047659,-2.092532396,0.921767652,3.933834459
12.93473963,-3.892971992,-1.886630893,1.170764685,4.481662304
12.93974555,-2.710236311,-1.97042799,0.0718260482,3.351585641
12.94475101,-3.354276657,-1.922544003,0.3950432837,3.886310143
12.94972394,-3.785232782,-1.78128612,0.6105214357,4.227730347
12.95472894,-2.959233284,-1.865083098,0.4261679053,3.523806986
12.95973563,-2.379836559,-2.121262789,0.2896983922,3.201140894
12.96473963,-2.322375536,-2.322375536,0.2873041928,3.296877304
12.96974517,-2.207453966,-2.509123325,0.2992752194,3.355311987
12.97474886,-2.161964178,-2.671929121,0.3543418646,3.455264461
12.97972401,-2.181117773,-2.784456491,0.5051765442,3.572908624
12.98472771,-2.19308877,-2.844311714,0.5339069963,3.631088564
12.98973286,-2.171540976,-2.870647907,0.5913678408,3.647728819
12.99429132,-2.152387381,-3.031059265,0.6967126727,3.782261262
12.99971355,-1.865083098,-3.131615877,0.6296750307,3.698924656
13.00474855,-1.647210717,-3.282450438,0.586579442,3.719120792
13.00927501,-1.549048543,-3.426102638,0.4836287498,3.790992936
13.0142794,-1.59932673,-3.541024208,0.2944868207,3.896590935
13.01973255,-1.625662923,-3.646369219,-0.05985504389,3.992789882
13.02473717,-1.661576033,-3.653551817,-0.4094084799,4.034462925
13.02974155,-1.647210717,-3.660734415,-0.8523358107,4.10374901
13.03474578,-1.695094824,-3.643975019,-1.37427175,4.247413713
13.03975263,-1.640028119,-3.667917013,-2.214636564,4.587801495
13.04472586,-1.572990537,-3.713406801,-2.954444885,4.999243331
13.0497304,-1.443703651,-3.861847401,-3.854664803,5.644163917
13.0547354,-1.37666595,-4.120420933,-4.910507679,6.556383414
13.05974124,-1.254561663,-4.570530891,-6.603208065,8.128101522
13.06474494,-1.295263171,-5.046977043,-7.931990147,9.490318838
13.06974978,-1.386242747,-5.57848978,-9.361329079,10.98524917
13.07472463,-1.577778935,-6.368576527,-10.75954247,12.60221835
13.07972978,-1.843535304,-7.546523571,-12.59589481,14.7988245
13.08428701,-1.922544003,-8.662221909,-13.88158131,16.47508918
13.08929286,-1.778891921,-10.0364933,-14.15930843,17.44653747
13.09426609,-1.565807939,-11.78665543,-13.23035812,17.78818082
13.09971901,-1.434126854,-14.52083302,-11.20007515,18.39437399
13.10472332,-1.146822572,-17.01319695,-11.42034245,20.52287246
13.10972832,-1.00556469,-19.90060425,-12.74672985,23.65426667
13.11473263,-0.5554547906,-22.87659645,-14.76743603,27.23461698
13.11974094,0.01675941236,-25.09602165,-15.55273438,29.52453438
13.1247424,0.9074024558,-24.33706093,-14.92066479,28.56120011
13.12974794,1.89620769,-22.59886932,-12.98375607,26.13201905
13.13472147,1.994369984,-20.01791954,-10.18732834,22.54941846
13.13972678,1.82198751,-15.48809052,-9.095572472,18.0535322
13.14473294,1.350329757,-11.49216843,-9.550470352,15.00349324
13.14973724,0.624886632,-7.769184589,-10.48181534,13.06212713
13.15429347,0.5961562395,-4.496310711,-10.68292809,11.60591077
13.15971624,-0.02394201607,-1.268926859,-10.94389629,11.0172417
13.16475232,-0.8403648138,-0.4070142806,-10.9055891,10.94548982
13.1697264,-1.321599364,-1.252167463,-9.22725296,9.405144626
13.1747307,-2.085349798,-3.493140221,-7.084442616,8.169457727
13.17928832,-3.715801001,-4.819528103,-5.707777023,8.343485288
13.18474032,-5.72214222,-6.775590897,-3.098097086,9.394133762
13.18974524,-7.022193432,-8.724471092,-1.991975784,11.3752171
13.19475078,-8.655038834,-11.69806957,-1.352723956,14.61452671
13.19972524,-8.937555313,-14.27183628,0.2585737705,16.84137958
13.20472978,-8.777143478,-16.7043457,2.37744236,19.01908634
13.20973594,-8.42759037,-19.01474953,3.672705412,21.12045795
13.2147394,-6.888118267,-22.23974037,3.155557871,23.49488818
13.21974432,-4.903325081,-24.93560982,1.462857246,25.45519957
13.22430155,-2.56897831,-26.59239769,-0.9959878922,26.73475746
13.22972394,0.7709329724,-26.42001534,-4.395754337,26.79429425
13.23428117,3.519476414,-24.04496765,-6.014234543,25.03434043
13.23973355,2.312798738,-18.45450592,-3.308786631,18.89089452
13.24473786,-0.55784899,-12.94544888,2.932897091,13.28524473
13.24974301,-3.184288263,-7.577648163,8.662221909,11.94129523
13.25474801,-4.90811348,-3.153163671,8.422801971,10.24576069
13.25972271,-5.978321552,-1.589749932,2.645592928,6.728060298
13.26472647,-8.06127739,0.0718260482,-4.860229492,9.413351308
13.26928455,-9.39484787,1.467645645,-10.20648193,13.94953131
13.27473686,-8.327033043,1.728613615,-7.668628216,11.45143847
13.27974332,-6.624756336,0.7972691655,-1.244984865,6.787711098
13.28474586,-5.576095581,-0.6512228847,3.335123062,6.52992948
13.28975132,-3.971980572,-2.310404539,6.399701118,7.878500695
13.29427901,-3.059789658,-4.175487995,8.856152534,10.25809195
13.29973101,-2.183511972,-6.548141479,11.33654499,13.27264607
13.30473563,-2.365471363,-8.406042099,12.69645119,15.40963566
13.30929324,-3.368641853,-10.01255131,13.27105999,16.96231013
13.31426824,-4.912901878,-11.35809326,12.71321106,17.74171984
13.31971932,-4.987122059,-12.47379112,11.83214474,17.90157816
13.32472494,-4.230554581,-13.41231823,9.864110947,17.17814184
13.32972986,-2.949656487,-14.55674648,6.969521046,16.40650984
13.33428709,-1.97042799,-15.27500725,4.695029736,16.10129613
13.33929163,-0.08379705995,-16.25662994,-0.517147541,16.26506934
13.34471355,1.683123827,-16.64448929,-5.590460777,17.63874092
13.3493024,3.023876667,-16.51999092,-9.306262016,19.20053236
13.35472332,3.375824451,-15.67962646,-10.64222622,19.24847671
13.35928332,2.643198729,-14.52083302,-9.241618156,17.41403449
13.36473409,1.757344007,-13.30936718,-7.218518257,15.24252336
13.3692904,1.158793569,-12.19845772,-5.422866821,13.39972603
13.37471286,0.5889736414,-10.84812832,-3.665522814,11.46581159
13.37974771,-0.04070143029,-9.864110947,-2.202665567,10.10713001
13.38472271,-0.7302315235,-9.071630478,-1.15400517,9.173845733
13.38972709,-1.529894829,-8.202534676,-0.282515794,8.348770476
13.39473171,-2.296039343,-7.39808321,-0.08140286058,7.746615924
13.39928955,-3.002328873,-6.734889507,-0.06224924326,7.374048434
13.40474209,-3.622427225,-6.20337677,-0.2442085743,7.187732617
13.4097474,-3.952826977,-5.942408562,-0.4955997467,7.154207135
13.41475163,-3.746925592,-5.916072369,-0.5099649429,7.021355133
13.41972494,-3.519476414,-5.844246387,-0.2920926213,6.828414762
13.42473109,-3.088520288,-6.083666325,0.1364694983,6.824117338
13.42973632,-2.559401512,-6.418854713,-0.06224924326,6.910579346
13.43474024,-2.138022184,-6.667851925,-0.3519476354,7.011080893
13.43974794,-1.527500629,-6.904877663,-0.517147541,7.09070062
13.44430309,-0.9169792533,-7.086836815,-0.6081272364,7.171744957
13.44972524,-0.4094084799,-7.343016624,-0.7422025204,7.391777393
13.45472955,-0.1340752989,-7.682993412,-0.9337386489,7.74068678
13.45973471,0.05267243832,-7.99663353,-1.223437071,8.089852932
13.46473971,0.141257897,-8.293514252,-1.496376038,8.428610424
13.46974432,0.04309562966,-8.602366447,-1.874659896,8.804369112
13.47474886,-0.05985504389,-8.765172005,-2.020706177,8.995280782
13.4797224,-0.1053448766,-8.896853447,-1.996764183,9.118780949
13.48428086,-0.174776718,-9.064447403,-2.059013367,9.297004338
13.48973263,-0.4525041282,-9.155426979,-1.958456993,9.373481581
13.49473755,-0.6272808313,-9.18894577,-1.877054095,9.399656254
13.49974278,-0.8307880163,-9.042900085,-1.754949808,9.249005326
13.50474763,-1.180341482,-8.829815865,-1.565807939,9.044921709
13.50972248,-1.462857246,-8.599972725,-1.441309452,8.841767647
13.51472671,-1.685518026,-8.365341187,-1.242590666,8.623452658
13.51928578,-1.836352706,-8.190564156,-1.010353088,8.454486727
13.52473809,-1.953668594,-7.99423933,-0.6847416759,8.257938884
13.52974248,-1.960851192,-7.757213593,-0.3208230138,8.007635576
13.53429932,-1.989581585,-7.55131197,0.1029506698,7.809695653
13.53927386,-2.006340981,-7.441178799,0.4620809257,7.720755457
13.54472586,-1.939303398,-7.280767441,0.7158663273,7.568549187
13.5497304,-1.845929503,-7.213729858,0.739808321,7.482825038
13.55428863,-1.699883223,-7.292738438,0.6464344859,7.516083717
13.55929294,-1.517923832,-7.486668587,0.4788403511,7.653991597
13.56426678,-1.381454349,-7.754819393,0.2394201756,7.880543253
13.56927171,-1.288080573,-8.003816605,-0.1651999205,8.108484619
13.57427717,-1.134851575,-8.329427719,-0.9289502501,8.457553003
13.57928217,-0.9385270476,-8.556877136,-1.577778935,8.751592182
13.58428771,-0.7781155705,-8.777143478,-2.327163935,9.113693184
13.58929201,-0.3399766386,-9.009381294,-3.246537447,9.582512239
13.59471409,-0.004788403399,-9.287108421,-3.845088005,10.05162213
13.59975201,0.323217243,-9.469067574,-4.170699596,10.35192954
13.60472371,0.6153098345,-9.703699112,-4.199429989,10.59129807
13.60972832,0.8140285611,-9.895236015,-4.010287762,10.70797582
13.61473224,0.9648633003,-10.15620327,-3.706224203,10.85428597
13.61973809,1.04147768,-10.3261919,-3.236960649,10.87165255
13.62474248,0.9864110947,-10.55842972,-2.446874142,10.8830436
13.62974794,0.9576807022,-10.86488724,-1.807622313,11.05578697
13.63475317,1.156399369,-11.18092155,-1.563413739,11.34876772
13.63927994,1.52510643,-11.46583176,-1.659181833,11.68520996
13.64473263,2.049436569,-11.6860981,-2.073378563,12.04425081
13.64928886,2.535459518,-11.583148,-2.420537949,12.10193689
13.65474155,2.995146275,-11.33654499,-2.667140722,12.02504857
13.65974678,3.471592426,-11.12585545,-2.671929121,11.95724963
13.66475171,3.620033026,-11.09951878,-2.090138197,11.86054947
13.66972617,3.49553442,-11.18092155,-1.359906554,11.7932656
13.67428248,3.280056238,-11.31020927,-0.7972691655,11.80318774
13.67973778,2.798821688,-11.51850414,-0.7038952708,11.87454458
13.68474001,2.365471363,-11.9901619,-0.9911994934,12.26139933
13.68929809,1.956062794,-12.46900272,-1.465251446,12.70626508
13.69471932,1.541865945,-12.99572659,-1.982398987,13.23616885
13.69972463,0.8595184088,-13.52484512,-2.53067112,13.78638835
13.70473048,0.2082955539,-14.16170311,-2.894589901,14.45599781
13.7097344,-0.4405331016,-14.59505367,-3.241749048,14.95722561
13.71474032,-1.063025594,-14.90869427,-3.687070608,15.39459898
13.71974401,-1.874659896,-14.94700146,-4.141968727,15.62315932
13.72474978,-2.456450939,-14.72194672,-4.491522312,15.58664938
13.7297234,-2.772485495,-14.49210262,-4.759673119,15.50361901
13.73472886,-2.698265314,-14.36281586,-4.67827034,15.34461888
13.73973324,-2.037465572,-14.33887386,-4.127603531,15.05960426
13.74473748,-1.307234168,-14.36042213,-3.289633036,14.79027622
13.74974217,-0.5746083856,-14.49210262,-2.310404539,14.68636042
13.75474801,-0.04548983276,-14.65490818,-1.556231141,14.73737624
13.75972301,0.5051765442,-14.8584156,-1.434126854,14.93601143
13.76472671,0.9169792533,-14.97094345,-1.810016513,15.1078178
13.76973163,1.012747288,-14.7889843,-2.178723574,14.98287523
13.77473694,0.5195417404,-14.52562141,-2.485181332,14.74583763
13.77974178,-0.9816226959,-13.75947762,-2.219424963,13.97185222
13.78474701,-2.52827692,-13.19444561,-1.326387763,13.4998105
13.78975132,-3.904942989,-13.18965721,-1.553836942,13.84305047
13.79472617,-4.855441093,-13.73074722,-1.74776721,14.66844974
13.79973071,-5.853823185,-14.30056667,-0.5195417404,15.46102767
13.80473594,-6.694188118,-14.60941887,1.216254473,16.11603392
13.80974117,-6.912060261,-14.82250309,2.990357876,16.62604629
13.81474555,-7.06768322,-14.80813789,4.570530891,17.03299288
13.82017731,-7.304709435,-14.5088625,5.415684223,17.12295262
13.82515246,-7.797914982,-14.28620148,5.561730385,17.1998801
13.82971031,-8.633491516,-14.18803883,5.125985622,17.38140817
13.83516285,-9.746794701,-14.31253815,4.173093796,17.81189117
13.84016969,-10.85291672,-14.8775692,2.741360903,18.61834918
13.84472508,-10.77869606,-15.49287891,1.534683347,18.93580837
13.84969885,-9.744400978,-15.95256615,0.4070142806,18.69768375
13.85515154,-8.434772491,-16.10340118,-0.5937620401,18.18838833
13.86015616,-7.038952827,-15.94777775,-2.001552582,17.54664312
13.86516139,-5.930437565,-15.70117474,-3.227383852,17.09131312
13.87016654,-4.996698856,-15.48330212,-4.065354347,16.76981663
13.87517092,-3.610456228,-15.19120979,-4.429273129,16.23042543
13.88017554,-3.315969467,-14.41548824,-4.776432514,15.5440105
13.88514992,-2.844311714,-13.55836391,-4.709394932,14.6320792
13.89015554,-0.8164227605,-13.40752983,-3.60327363,13.90726368
13.89516008,1.989581585,-13.33570385,-1.855506301,13.61037603
13.90016477,3.691859007,-13.17050362,-0.2801215947,13.68102542
13.90516869,4.592078686,-13.06276417,0.6512228847,13.86171294
13.91017431,5.410895824,-12.91193008,0.5793967843,14.01183188
13.91518008,5.762843609,-12.73236465,0.6033388376,13.98883462
13.92015762,5.485116005,-12.36126328,1.175553083,13.57458111
13.92515885,4.984727859,-11.9805851,1.584961534,13.0726445
13.93016446,4.070142746,-11.37724686,1.271321058,12.15006441
13.93472139,2.573766708,-10.47942066,0.9696516991,10.83433232
13.94014262,0.8978256583,-9.531316757,1.122880578,9.639136415
13.94517739,0.02633621916,-8.702922821,1.393425345,8.813806976
13.95015277,-0.8164227605,-7.852981567,1.59932673,8.055663325
13.95515739,-1.391031146,-6.99106884,1.963245392,7.393533908
13.96016169,-1.738190413,-6.296750546,2.233790159,6.90363613
13.96516692,-2.030282974,-5.650316238,2.389413357,6.461998045
13.97017208,-2.212242365,-5.039794445,2.501940727,6.045928525
13.97517677,-2.401384354,-4.288015366,2.669534922,5.592865034
13.98015185,-2.557007313,-3.763684988,2.590526342,5.235879851
13.98515762,-2.63601613,-3.313575268,2.384624958,4.859505971
13.990161,-2.616862535,-2.961627483,2.171540976,4.509412056
13.99516569,-2.832340717,-2.67671752,1.807622313,4.295866507
14.00017246,-2.985569477,-2.518700123,1.582567334,4.214498164
14.00517616,-2.983175278,-2.41574955,1.355118155,4.070813904
14.01014992,-2.78924489,-2.437297344,1.278503656,3.918529954
14.01515516,-2.849100113,-2.545036316,1.029506683,3.95657242
14.02015954,-2.827552319,-2.688688517,0.7565677166,3.974480188
14.02516508,-2.772485495,-2.839523315,0.5530605912,4.006924568
14.03016877,-2.82036972,-2.990357876,0.3926490843,4.129273409
14.03517493,-2.889801502,-3.098097086,0.3687070608,4.252658365
14.04017977,-3.134010077,-3.071760893,0.3639186621,4.403427181
14.04515339,-3.354276657,-3.08373189,0.3543418646,4.570134836
14.05015854,-3.572149038,-3.062183857,0.5243301988,4.734146268
14.05516416,-3.732560396,-3.038241863,0.7637503147,4.873010904
14.06016816,-3.837905407,-2.954444885,0.9337386489,4.932558196
14.06472569,-3.900154591,-2.908955097,0.9864110947,4.964497199
14.07014723,-3.833117008,-2.904166698,1.039083481,4.920026899
14.07515208,-3.691859007,-2.954444885,1.058237195,4.845454929
14.08015954,-3.450044632,-3.035847664,0.9864110947,4.700232531
14.08516231,-3.217807055,-3.138798475,0.825999558,4.57040626
14.09016654,-2.968810081,-3.332728863,0.5937620401,4.502606837
14.09517216,-2.82276392,-3.519476414,0.3926490843,4.528673501
14.10017669,-2.743755102,-3.648763418,0.2035071403,4.569801057
14.10515177,-2.743755102,-3.703830004,-0.0359130241,4.609537775
14.11015646,-2.78924489,-3.749319792,-0.5099649429,4.700781871
14.115161,-2.765302896,-3.871424198,-0.988805294,4.859275804
14.12016592,-2.700659513,-3.998316765,-1.611297727,5.086883046
14.12517154,-2.571372509,-4.199429989,-2.394201756,5.475342077
14.13017639,-2.272097349,-4.5394063,-3.430891037,6.126960847
14.13470346,-2.027888775,-4.769249916,-4.070142746,6.589699509
14.14015516,-1.556231141,-5.15950489,-5.169081688,7.467379164
14.14471277,-1.091755986,-5.446808815,-6.39251852,8.468999376
14.14971739,-0.7350199223,-5.968744755,-7.783549786,9.836148408
14.15469246,-0.3926490843,-6.658275127,-9.052476883,11.24429361
14.16014562,-0.2657563984,-7.716512203,-10.39562416,12.94929298
14.16517893,-0.490811348,-8.573636055,-11.8824234,14.66083616
14.17015308,-1.137245774,-9.753977776,-13.29979038,16.53232696
14.17515862,-1.8579005,-10.80024433,-12.86643982,16.90095694
14.18016354,-2.470816135,-12.08114147,-11.49935055,16.86101938
14.18472046,-2.956839085,-13.52005672,-10.05325317,17.10563447
14.18969554,-3.560178041,-15.17923832,-9.842563629,18.43800972
14.19469977,-4.110844135,-17.80807304,-11.97340298,21.84923074
14.20015246,-3.785232782,-20.24776459,-14.70039845,25.30615878
14.20515731,-2.904166698,-22.8119545,-17.79131317,29.07490802
14.210162,-1.089361787,-23.94441032,-18.09537697,30.0327182
14.21516746,0.5363011956,-23.20939064,-15.50724411,27.91841781
14.22017216,1.721431017,-21.4281044,-11.93748951,24.58923827
14.22517708,2.063801765,-18.72505188,-9.114726067,20.92761517
14.23015146,2.296039343,-14.61899567,-8.712499619,17.17249197
14.23515608,2.449268341,-10.73799419,-9.662998199,14.65185889
14.24016192,3.251325846,-7.261613846,-10.43871975,13.12512954
14.24516562,3.986345768,-4.606443882,-11.06360626,12.62987179
14.25017062,3.763684988,-2.45405674,-10.79545593,11.69314278
14.25517577,2.643198729,-1.826775908,-9.662998199,10.18317946
14.26018039,1.798045516,-2.537853718,-8.334216118,8.895663408
14.26515454,0.5339069963,-4.295197964,-6.739677906,8.009809018
14.27015977,-1.106121182,-5.576095581,-5.123591423,7.652942903
14.275165,-2.806004286,-6.816292286,-3.215412855,8.042038324
14.28016908,-4.369418144,-8.07324791,-1.137245774,9.249998631
14.28517454,-5.894524574,-9.677363396,1.826775908,11.47753861
14.29017916,-6.473921299,-11.11149025,4.005499363,13.4692575
14.29515339,-6.770802498,-12.77306652,5.085284233,15.32498321
14.30015854,-6.746860504,-14.78658962,4.728548527,16.92697641
14.30516316,-6.718130112,-17.72666931,3.033453465,19.19817484
14.31016877,-6.287173748,-20.14720726,0.8307880163,21.12175946
14.31472593,-4.642356873,-22.09848213,-1.364694953,22.62204195
14.3201497,-3.852270603,-23.48472404,-4.120420933,24.15264211
14.32515331,-2.518700123,-22.97236443,-7.031770229,24.15614146
14.33015762,-1.704671621,-20.2980423,-7.730877399,21.78721854
14.33471431,-2.341529369,-16.23508263,-3.904942989,16.86147228
14.34016662,-4.204218388,-11.56159973,2.458845139,12.54559524
14.34517185,-5.995080948,-6.955155849,5.063736439,10.48601999
14.35017739,-6.619967937,-5.09725523,1.812410712,8.549316871
14.35515146,-8.482656479,-3.191470861,-2.808398485,9.488311191
14.36015585,-9.938331604,-1.386242747,-6.143521786,11.76583885
14.36471362,-9.907206535,-0.3136404157,-6.339846134,11.76625517
14.36971885,-8.044517517,-0.2920926213,-1.867477298,8.263597984
14.37469331,-6.212953568,-0.9361328483,2.317587137,6.696890837
14.38014477,-4.446032524,-1.833958507,5.655104637,7.42366604
14.38470316,-2.312798738,-2.916137695,8.154650688,8.963884477
14.39015493,-0.5051765442,-4.599261284,10.43393135,11.41382193
14.39516008,-0.3375824392,-5.913678169,12.8401041,14.14050299
14.40016623,-0.653617084,-7.51061058,15.19360352,16.96119319
14.40517031,-1.872265697,-9.540893555,15.32767963,18.15135785
14.41017454,-2.061407566,-10.98220348,14.06354046,17.96222048
14.41517977,-1.877054095,-12.38041687,12.28704357,17.54336039
14.4201537,-1.572990537,-13.61821938,9.344569206,16.59069534
14.42515916,-0.8188169599,-14.77222443,6.576871872,16.19087148
14.43016323,0.5554547906,-15.41147614,2.588132143,15.63715302
14.43516808,2.420537949,-15.92144108,-2.729389906,16.33403989
14.440173,4.709394932,-16.18959236,-8.743624687,18.99295328
14.44517823,4.757278919,-15.77539539,-10.64222622,19.61509066
14.45015339,3.543418407,-14.78180122,-10.12029076,18.26137307
14.45471031,2.286462545,-13.66610336,-8.686163902,16.35358479
14.46016285,0.6416460276,-12.2750721,-6.785167694,14.04021386
14.46516685,-0.3040636182,-11.36048698,-4.977545261,12.40681571
14.4701727,-1.218648672,-10.48899746,-3.112462282,11.00870536
14.4751767,-2.363077164,-9.555258751,-1.707065821,9.990053914
14.4801537,-3.373430252,-8.446743965,-0.01197100803,9.095474621
14.48515639,-4.278438568,-7.632715225,0.490811348,8.763804771
14.49016139,-5.183446884,-6.976703644,0.04788403213,8.691651639
14.4951657,-5.853823185,-6.564900875,-0.4668693244,8.808128992
14.50017146,-6.093243122,-6.35660553,-0.4692635238,8.817837255
14.50517577,-5.925649166,-6.153098583,-0.248996973,8.546106699
14.5101807,-5.480327606,-6.040570736,-0.3399766386,8.163214416
14.51515462,-4.778826714,-6.088454723,-0.2944868207,7.745526978
14.52015954,-4.003105164,-6.196194172,-0.3854664862,7.386897697
14.52516446,-3.303998232,-6.119579315,-0.1891419291,6.957113624
14.53016908,-2.442085743,-6.210559368,-0.1292868853,6.674694415
14.53517431,-1.762132406,-6.361393929,-0.3950432837,6.612753022
14.54017862,-1.017535686,-6.706159115,-0.5793967843,6.807617027
14.545153,-0.3040636182,-7.13232708,-0.6991068721,7.172955784
14.55025123,0.2753331959,-7.563282967,-0.720654726,7.602525951
14.55516323,0.85473001,-8.003816605,-0.7254431248,8.081949725
14.56017085,1.130063176,-8.532935143,-0.7781155705,8.642539486
14.56517308,1.256955862,-8.882488251,-0.9193734527,9.01797001
14.57017946,1.278503656,-9.205705643,-0.9935936928,9.347021793
14.57515277,1.307234168,-9.387664795,-1.065419793,9.537936402
14.580158,1.053448796,-9.574412346,-1.180341482,9.704242997
14.58516231,0.825999558,-9.670180321,-1.15161097,9.773477914
14.59016839,0.5315127969,-9.696516991,-1.04147768,9.76676115
14.59517277,0.2442085743,-9.780313492,-0.9097966552,9.825573763
14.60017823,-0.1939303428,-9.708487511,-0.6679822803,9.73337244
14.60515093,-0.7661445141,-9.600749016,-0.4070142806,9.639866166
14.61015854,-1.177947283,-9.437943459,-0.215478152,9.513609586
14.61516108,-1.592144132,-9.133879662,-0.07422025502,9.271903216
14.62016539,-1.963245392,-8.769960403,-0.04070143029,8.987112693
14.62517085,-2.240972757,-8.176198959,-0.2035071403,8.480188882
14.63017585,-2.293645144,-7.797914982,-0.5770025849,8.148694257
14.63515093,-2.382230759,-7.534552574,-0.8212111592,7.944739999
14.64015739,-2.319981337,-7.331045628,-0.8020575643,7.731095636
14.64516016,-2.248155355,-7.328651428,-0.739808321,7.701340832
14.65016531,-2.102109194,-7.402871609,-0.7445967197,7.731480802
14.65516962,-1.917755604,-7.592013359,-0.9337386489,7.885957219
14.66017454,-1.74776721,-7.905653954,-1.364694953,8.210751912
14.66517916,-1.587355733,-8.319850922,-1.766920805,8.652261364
14.67015554,-1.335964561,-8.978256226,-2.200271368,9.339972176
14.67515862,-1.00556469,-9.572018623,-2.463633537,9.934998293
14.68016377,-0.6488286853,-10.14423275,-2.7509377,10.53062652
14.68472108,-0.2178723514,-10.72602367,-3.100491285,11.16727802
14.69014377,0.1915361285,-11.21922874,-3.502717018,11.75486309
14.69517854,0.5530605912,-11.62384892,-3.754108191,12.22755364
14.700153,0.7685387731,-11.78186703,-3.811569214,12.40689737
14.70515793,0.9552865028,-11.75074196,-3.734954596,12.3669881
14.71016354,1.130063176,-11.59511852,-3.488351822,12.16110253
14.71516716,1.18752408,-11.27190113,-3.062183857,11.74065324
14.7201737,1.127668977,-10.97980881,-2.710236311,11.3654397
14.725177,1.072602391,-10.78348446,-2.612074137,11.14705989
14.73015277,1.086967587,-10.69729328,-2.772485495,11.10406493
14.73515608,1.26653266,-10.67574501,-3.145981073,11.20146568
14.74016131,1.529894829,-10.61828423,-3.296815634,11.2230803
14.7451657,2.11647439,-10.68292809,-3.107673883,11.32528381
14.75017239,2.705447912,-10.78827286,-2.782062292,11.46499674
14.75517639,2.997540474,-10.9055891,-2.284068346,11.5383747
14.76015023,3.49553442,-10.90798283,-1.527500629,11.55578247
14.76515462,3.636792421,-11.10670185,-1.060631394,11.73499144
14.77016108,3.586514235,-11.47062016,-0.7182605267,12.03968892
14.77516508,3.399766445,-11.89918232,-0.4860229492,12.38487667
14.78017,2.920926094,-12.36605167,-0.4429273009,12.71405631
14.78517462,2.341529369,-12.89756489,-0.6200982332,13.12305078
14.79017985,1.711854219,-13.25430107,-0.9959878922,13.40145267
14.79515485,1.022324085,-13.58709431,-1.455674648,13.7030386
14.8001607,0.3375824392,-13.99410915,-1.905784607,14.12731637
14.80516347,-0.6105214357,-14.43703651,-2.348711967,14.63957676
14.8101697,-1.371877551,-14.71236992,-2.667140722,15.0149764
14.81517277,-2.205059767,-14.83926201,-3.088520288,15.31681896
14.82017885,-2.971204281,-14.82489681,-3.483563423,15.51582529
14.825153,-3.371036053,-14.7937727,-3.677493811,15.6122886
14.83015823,-3.201047659,-14.75785923,-3.263296843,15.44960263
14.83516323,-2.580949545,-14.88954067,-2.710236311,15.35269041
14.84016654,-1.675941229,-15.06671143,-2.202665567,15.31882201
14.84517116,-0.8690952063,-15.27979565,-1.869871497,15.4182976
14.85017823,-0.01675941236,-15.59343529,-1.434126854,15.65925365
14.85515154,0.4620809257,-15.70596313,-1.355118155,15.77108563
14.86015677,0.7134721279,-15.5599165,-1.458068848,15.64436028
14.865161,0.3399766386,-15.21994019,-1.611297727,15.30877016
14.86971893,-0.8307880163,-14.90151119,-1.673547029,15.01818911
14.87514039,-3.107673883,-14.39633465,-1.182735682,14.77534947
14.880178,-4.879383087,-13.99410915,-0.5003881454,14.82881852
14.88515023,-6.442796707,-13.9103117,0.3711012602,15.33440958
14.88970816,-7.838616371,-13.98213768,1.328781962,16.08445654
14.89516016,-8.844181061,-14.00129128,2.688688517,16.77750702
14.9001647,-9.478644371,-13.87918758,3.576937437,17.18345217
14.90516931,-9.959878922,-13.77863121,4.141968727,17.49873627
14.91017523,-9.777919769,-13.62779617,4.38617754,17.33675566
14.91518039,-9.603142738,-13.49132633,4.158728123,17.07428641
14.9201537,-9.979032516,-13.35006905,3.665522814,17.06579887
14.92515831,-10.54166985,-13.40752983,2.736572504,17.2736067
14.9301647,-10.7092638,-13.64694977,1.379060149,17.40199345
14.93516908,-10.09874249,-13.93425369,-0.2178723514,17.21033103
14.94017454,-8.995016098,-14.09705925,-2.291250944,16.87860258
14.94517831,-8.365341187,-14.06114674,-3.550601006,16.74220858
14.95015277,-7.927201748,-13.90791798,-4.024652958,16.50662114
14.95515739,-7.592013359,-13.63497829,-4.220977783,16.16687828
14.96016416,-6.845022678,-13.38358784,-4.067748547,15.57309658
14.96516724,-6.016628742,-13.16571522,-3.916913986,14.99593591
14.97017331,-4.939238071,-12.91671848,-4.096478939,14.42285786
14.97517762,-4.084507942,-12.71321106,-3.876212597,13.90445845
14.98015085,-2.964021683,-12.6294136,-2.312798738,13.17712224
14.98515639,-0.03830722719,-13.01727486,1.15400517,13.06838322
14.99016193,1.944091797,-13.06755257,1.805228114,13.33413932
14.99516662,3.363853455,-12.91432381,1.89860189,13.4796127
15.00017031,4.170699596,-12.88319969,0.517147541,13.5513472
15.00517585,4.450820923,-12.68448067,0.03830722719,13.44274243
15.01015208,4.544194698,-12.32535076,0.6272808313,13.15132914
15.01515608,5.013458252,-12.09071827,1.156399369,13.13991976
15.02015977,4.718971729,-11.67412758,0.7541735172,12.6143857
15.02471731,3.60566783,-10.95347309,0.5841852427,11.54645771
15.03017124,2.056619167,-9.804255486,0.9337386489,10.06106236
15.03517547,0.8786720037,-8.331821442,1.249773264,8.47072879
15.04018262,0.1292868853,-7.88171196,1.563413739,8.03631514
15.04515462,-0.5722141862,-6.87854147,1.436521053,7.050202448
15.05016131,-1.297657371,-5.863399982,1.371877551,6.159985554
15.05516285,-1.678335428,-5.063736439,1.505952835,5.543115593
15.06016839,-1.987187386,-4.285621166,1.640028119,5.000515445
15.065173,-2.073378563,-3.60566783,1.63523972,4.46919994
15.07017885,-2.226607561,-2.956839085,1.642422318,4.049472765
15.07515185,-2.729389906,-2.391807556,1.556231141,3.948691936
15.08015731,-3.16034627,-2.178723574,1.414973259,4.091060288
15.08516231,-3.306392431,-2.142810583,1.146822572,4.103543605
15.0897217,-3.217807055,-2.152387381,0.9289502501,3.981206129
15.09514254,-3.145981073,-2.30561614,0.6967126727,3.962129636
15.10017739,-2.911349297,-2.401384354,0.5506663918,3.813900237
15.10515116,-2.679111719,-2.559401512,0.5075707436,3.739759854
15.10970931,-2.552218914,-2.679111719,0.4668693244,3.729534549
15.11516162,-2.545036316,-2.657563925,0.5003881454,3.7135218
15.12016777,-2.430114746,-2.729389906,0.3663128614,3.672766267
15.12517147,-2.355894566,-2.825158119,0.3591302633,3.696042769
15.13017647,-2.571372509,-2.949656487,0.3734954596,3.930894151
15.13515031,-2.691082716,-3.086126089,0.3280056417,4.107759502
15.14015524,-2.698265314,-3.148375273,0.423773706,4.168031516
15.14516008,-2.729389906,-3.148375273,0.5123591423,4.198136254
15.15016593,-2.746149302,-3.124433279,0.6344634295,4.207845428
15.1551697,-2.873042107,-3.148375273,0.85473001,4.347091119
15.16017524,-2.437297344,-3.062183857,0.8499416113,4.004970544
15.16473239,-2.30561614,-3.019088268,0.9576807022,3.917641138
15.17015462,-2.140416384,-3.045424461,0.9600749016,3.844182132
15.17471062,-2.020706177,-3.071760893,0.9385270476,3.794707031
15.17971585,-1.841141105,-3.153163671,0.8403648138,3.746792592
15.18472016,-1.59932673,-3.224989653,0.5985504389,3.649200854
15.18969608,-1.510741234,-3.256114244,0.3543418646,3.606962324
15.19514847,-1.584961534,-3.308786631,0.02394201607,3.66888883
15.20015547,-1.59693253,-3.38061285,-0.356736064,3.755795171
15.20471062,-1.52510643,-3.519476414,-0.806845963,3.919651038
15.20971577,-1.441309452,-3.732560396,-1.37666595,4.231381475
15.21516754,-1.381454349,-4.098873138,-2.683900118,5.090431904
15.22017154,-1.26653266,-4.474762917,-3.983951569,6.123681755
15.22517762,-1.161187768,-4.910507679,-5.35343504,7.356677879
15.2301527,-0.9864110947,-5.528211594,-7.041347027,9.006369869
15.23515647,-0.9481038451,-6.06451273,-8.552088737,10.52689115
15.2401607,-1.089361787,-6.675034523,-10.04367638,12.10860149
15.24516508,-1.379060149,-7.366958618,-11.41315937,13.65408704
15.25017177,-1.889025092,-8.104372978,-13.11783123,15.53469579
15.25517577,-1.905784607,-9.435548782,-14.14973164,17.11363495
15.26018077,-1.534683347,-10.95586681,-14.44661331,18.19590357
15.26515485,-1.249773264,-12.80658531,-14.03002167,19.03712343
15.2701607,-1.429338455,-15.04276943,-12.75391293,19.77347252
15.27516501,-2.092532396,-18.29409599,-11.11149025,21.5062283
15.28017154,-2.980781078,-21.25572205,-11.91115379,24.54722714
15.28517554,-3.330334663,-24.26762772,-14.14733791,28.28702978
15.29018047,-2.877830505,-26.37452507,-15.4665432,30.7101195
15.29515393,-2.782062292,-26.64507103,-14.06832886,30.25917312
15.29971085,-3.232172251,-25.12714767,-13.15853214,28.54763486
15.30516347,-3.002328873,-21.60766983,-11.20725822,24.52566026
15.31016993,-2.547430515,-17.80807304,-10.14902115,20.65476938
15.315173,-1.584961534,-13.34528065,-10.07240677,16.79470145
15.32017824,-0.1580173075,-7.489062786,-10.73799419,13.09257615
15.32515216,0.3280056417,-3.586514235,-11.06121159,11.63275865
15.33015947,0.2202665508,-0.6560112834,-10.74278259,10.76504742
15.335162,-0.1029506698,0.9385270476,-10.0317049,10.07603767
15.34016716,-1.426944256,0.8044517636,-8.312667847,8.472529686
15.34517247,-3.253720045,-0.5841852427,-6.689399719,7.461637564
15.350178,-4.809951305,-2.549824715,-4.493916512,7.059215484
15.35515147,-6.370970726,-4.886565685,-1.771709204,8.222332132
15.36015885,-7.876923561,-7.484274387,0.7254431248,10.88974543
15.36516108,-9.466673851,-10.81700325,4.259284973,14.99223071
15.37016777,-10.30943298,-13.42428875,6.967126846,18.30401031
15.37517054,-10.63743782,-15.96453667,7.912836552,20.75173479
15.38017547,-10.21127033,-18.33479691,6.038176537,21.83791188
15.38518101,-8.101978302,-21.25811768,2.353500366,22.87112991
15.38970808,-6.311115742,-22.75688744,0.2466027737,23.61708959
15.39515924,-2.777273893,-24.28917694,-5.212177277,24.99688298
15.3997167,0.7374141216,-23.9611702,-8.63109684,25.47895778
15.40516877,3.064578056,-21.59569931,-8.61912632,23.45325576
15.40972816,2.968810081,-17.7841301,-4.19464159,18.51172965
15.41514931,0.4812345505,-11.6908865,5.487510204,12.92366751
15.4201537,-1.771709204,-7.407660007,8.370129585,11.31686571
15.42471208,-3.435679436,-4.819528103,6.505045891,8.79473515
15.43016508,-5.20020628,-2.659958124,1.405396342,6.007716825
15.43516785,-6.136339188,-1.221042871,-2.159569979,6.618862955
15.44017554,-5.901707172,-0.4381389022,-2.85867691,6.572225416
15.44517916,-4.79319191,-0.4285621047,-0.5506663918,4.843716304
15.45015454,-3.462015629,-1.139639974,2.516305923,4.429009707
15.4551577,-2.176329374,-2.604891539,5.549759388,6.50551295
15.46016262,-1.369483352,-4.173093796,7.467514992,8.66336982
15.46516716,-1.362300754,-5.789179802,9.682151794,11.36285745
15.47017308,-1.9321208,-7.386112213,11.57357121,13.86489433
15.47472962,-2.525882721,-8.753201485,12.43308926,15.41364098
15.48015124,-3.720589399,-10.3214035,11.60469532,15.97006917
15.48515608,-4.09169054,-11.44188976,10.07958889,15.78787145
15.48971485,-4.161122322,-12.38281155,8.137891769,15.39071939
15.49471893,-3.263296843,-13.44104862,6.54574728,15.30221232
15.49969301,-1.477222443,-14.82489681,4.65193367,15.60769805
15.50514477,0.9504981041,-16.5966053,0.758961916,16.64111707
15.51015054,2.877830505,-17.59738159,-3.371036053,18.14700062
15.51515516,3.770867586,-17.46330643,-6.710947514,19.08463597
15.52016224,2.7509377,-16.09621811,-8.070854187,18.21522942
15.52516508,1.331176162,-14.66209126,-7.311892033,16.43814816
15.53017085,0.3639186621,-13.11783123,-6.172252178,14.50195262
15.53517516,-0.1436520964,-11.72919369,-4.769249916,12.66255761
15.54017916,-0.5458779931,-10.67813969,-2.698265314,11.0272973
15.54515308,-0.8283938169,-9.809044838,-1.094150186,9.904582857
15.55016077,-1.41257906,-9.169792175,-0.2537853718,9.281426353
15.55516408,-2.41574955,-8.336610794,0.2442085743,8.683004275
15.56016839,-3.359065056,-7.505822182,0.7637503147,8.258571258
15.56517278,-4.529829502,-6.789956093,0.3591302633,8.170179533
15.57018016,-4.79319191,-6.375759125,0.004788403399,7.976529072
15.57515239,-4.932055473,-5.940014362,-0.3327940404,7.727851816
15.5801567,-5.178658485,-5.691017628,-0.7685387731,7.73284147
15.58516224,-5.137956619,-5.489904404,-1.323993564,7.634828586
15.59016808,-4.929661274,-5.432443619,-1.139639974,7.423731085
15.59517124,-4.446032524,-5.597643375,-0.9864110947,7.216219468
15.6001777,-3.746925592,-5.829881191,-0.9193734527,6.990866444
15.60515124,-3.031059265,-6.136339188,-0.962469101,6.911463352
15.60970962,-2.439691544,-6.572083473,-0.940921247,7.073168229
15.6151617,-1.728613615,-7.149086475,-1.098938584,7.43674717
15.6201657,-1.156399369,-7.61595583,-1.156399369,7.789563672
15.62517062,-0.6751648784,-7.991845131,-1.15161097,8.102570212
15.63017678,-0.3375824392,-8.367734909,-1.024718285,8.437001658
15.63515001,-0.009576806799,-8.63109684,-0.6631938815,8.656543796
15.64015454,0.2920926213,-8.894459724,-0.3998316824,8.908231994
15.64516008,0.4261679053,-9.136273384,-0.3112462163,9.15150177
15.65016501,0.3639186621,-9.334992409,-0.1197100878,9.342850238
15.65516962,0.248996973,-9.581595421,-0.06224924326,9.585032356
15.65972685,0.06703764945,-9.696516991,-0.004788403399,9.696749905
15.6651487,-0.05506663769,-9.593565941,0.1723825186,9.595272561
15.67015401,-0.2106897533,-9.40681839,0.2705447972,9.413066285
15.67471054,-0.3303998411,-9.229647636,0.3136404157,9.240883608
15.6801657,-0.3998316824,-8.925583839,0.2106897533,8.937018654
15.68516816,-0.4165911078,-8.595184326,-0.0191536136,8.605295382
15.68972631,-0.3950432837,-8.267178535,-0.2777273953,8.28126999
15.69514724,-0.3663128614,-7.965508938,-0.5123591423,7.990371058
15.70015239,-0.4884171486,-7.599195957,-0.6512228847,7.642671114
15.70471085,-0.4788403511,-7.443572998,-0.672770679,7.489238108
15.71016408,-0.4357447028,-7.271190643,-0.6392518282,7.312231514
15.71516724,-0.3806780577,-7.266402245,-0.7110779285,7.311029283
15.72017239,-0.2513911724,-7.433996201,-0.9097966552,7.493679135
15.7251767,-0.1221042871,-7.721300602,-1.15161097,7.80766292
15.72970416,-0.03830722719,-8.054094315,-1.565807939,8.204977585
15.73470847,0.174776718,-8.410830498,-1.965639591,8.639233506
15.74016078,0.4955997467,-8.81066227,-2.334346771,9.128119389
15.74516624,0.8140285611,-9.31823349,-2.837129116,9.774529119
15.75017247,0.9504981041,-9.703699112,-3.239354849,10.27417359
15.75517578,1.058237195,-10.08677197,-3.354276657,10.68241576
15.76015216,1.156399369,-10.44829655,-3.277662039,11.01123193
15.76515578,1.199495077,-10.89361763,-3.059789658,11.37857664
15.77016224,1.242590666,-11.17373943,-2.810792685,11.58865997
15.77516601,1.340752959,-11.41315937,-2.513911724,11.76339991
15.77972254,1.302445769,-11.60948372,-2.351106167,11.91655057
15.78514378,1.22822547,-11.64060879,-2.202665567,11.91066943
15.79018101,1.142034173,-11.74355888,-2.346317768,12.02998854
15.7951537,0.9959878922,-11.82256794,-2.798821688,12.19009874
15.80015893,0.7829039693,-11.87045193,-3.478775024,12.39445212
15.80516324,0.6033388376,-11.86326981,-4.216189384,12.6046595
15.81017024,0.4501099288,-11.70525169,-4.75249052,12.64126901
15.81472631,0.4357447028,-11.53047562,-4.711789131,12.46365509
15.82014747,0.2873041928,-11.24317074,-4.067748547,11.95984992
15.82515216,0.316034615,-10.92234802,-2.995146275,11.32998082
15.83015954,0.4644751251,-10.75475407,-1.594538331,10.88223436
15.83471547,0.5458779931,-10.82897472,-0.3734954596,10.84915551
15.84016908,0.5315127969,-11.04205799,0.5075707436,11.06648899
15.8447247,0.6631938815,-11.37485218,0.6224924326,11.41116055
15.84970008,0.7924807668,-11.80341434,0.2992752194,11.83377292
15.85515216,0.9433154464,-12.41872406,-0.586579442,12.46830489
15.86015647,0.9337386489,-13.02924538,-1.647210717,13.16610824
15.86516101,0.7661445141,-13.66610336,-2.748543501,13.96079689
15.86971916,0.390254885,-14.25747108,-3.677493811,14.72928177
15.87469239,-0.1628057212,-14.73391724,-4.240131378,15.33276025
15.88014531,-0.921767652,-15.05234623,-4.395754337,15.70813289
15.88515031,-1.48679924,-15.17444992,-4.441244125,15.88077932
15.89015516,-1.934514999,-15.14332581,-4.268861771,15.85199816
15.89515978,-2.059013367,-14.99009705,-3.667917013,15.56907707
15.90016478,-1.647210717,-14.79137802,-2.86107111,15.15532563
15.90516993,-1.036689281,-14.74828243,-2.370259762,14.97346622
15.91017647,-0.5099649429,-14.71476364,-1.9321208,14.84982909
15.91517947,-0.02633621916,-14.66687965,-1.731007814,14.76869799
15.92015547,0.8212111592,-14.5088625,-1.582567334,14.61800253
15.92515885,1.388636947,-14.01565647,-1.52510643,14.16661175
15.93016408,1.204283476,-13.43626022,-1.697489023,13.59650163
15.93516816,0.4429273009,-12.87362289,-1.589749932,12.97896975
15.94017301,-0.6033388376,-12.50012684,-0.7422025204,12.53666835
15.94517855,-2.04464817,-12.87841129,0.3878606856,13.04547812
15.95015308,-3.052607059,-13.6110363,1.063025594,13.98959408
15.95515708,-4.05577755,-14.42506504,1.680729628,15.07835154
15.9601617,-4.932055473,-15.04276943,2.868253708,16.08841082
15.96471955,-5.360617638,-15.4713316,4.278438568,16.92345589
15.96969393,-5.554547787,-15.62216568,5.633556366,17.51119696
15.97469862,-6.107608318,-15.51921558,6.567295074,17.92423768
15.97970293,-6.68461132,-15.39471722,6.572083473,18.0242511
15.98515701,-7.345410824,-15.4473896,5.98550415,18.12189741
15.98971401,-7.740454197,-15.70596313,4.999093056,18.20941626
15.99516655,-7.441178799,-16.32366753,3.275267839,18.23624531
16.00017185,-7.13232708,-16.77856636,1.788468719,18.31908838
16.00517639,-6.91684866,-17.11614799,0.4285621047,18.46588701
16.01015124,-6.39491272,-17.23106956,-0.9074024558,18.40184899
16.01515578,-5.714959621,-16.94376564,-2.207453966,18.01734749
16.02015947,-5.066130638,-16.55351067,-3.7181952,17.70619582
16.02471762,-4.185064793,-16.02199745,-4.496310711,17.15913692
16.03017054,-3.454833031,-15.39232254,-4.57771349,16.42604411
16.03517485,-2.978386879,-14.53759289,-4.019864559,15.37438475
16.04017924,-2.85867691,-13.67568016,-3.56496644,14.41891977
16.04515424,-2.327163935,-12.98614979,-3.186682463,13.57242511
16.05016078,-0.6296750307,-12.81616211,-0.758961916,12.85404703
16.05516447,2.561795712,-13.44344234,2.264914751,13.87150959
16.06016747,3.998316765,-13.6254015,2.094926596,14.35363439
16.0651737,4.156333923,-13.71877575,1.8602947,14.45477831
16.07017893,4.151545525,-13.64216137,1.980004787,14.39667726
16.07515278,4.237737179,-13.46738434,1.505952835,14.19847708
16.08015924,3.366247654,-12.54801083,0.9241618514,13.02452587
16.08516262,1.97042799,-11.50413895,1.079784989,11.72150737
16.09016778,1.97042799,-11.50413895,1.079784989,11.72150737
16.09517301,0.1508347094,-9.361329079,1.601720929,9.498565321
16.10017639,-0.7302315235,-8.216899872,2.068590164,8.504689697
16.10515124,-1.177947283,-7.443572998,2.221819162,7.856896281
16.11015585,-1.726219416,-6.636727333,2.379836559,7.258760584
16.11516078,-2.202665567,-5.899312973,2.52827692,6.785706547
16.12016593,-2.501940727,-5.035006046,2.688688517,6.232177728
16.12517031,-2.67432332,-4.592078686,2.913743496,6.060453204
16.13017554,-2.837129116,-4.103661537,3.184288263,5.918532874
16.13518101,-2.925714493,-3.732560396,3.15795207,5.697760409
16.14015485,-3.002328873,-3.423708439,2.758120298,5.32381308
16.14515947,-2.873042107,-3.270479441,2.401384354,4.971624838
16.1501647,-2.868253708,-3.138798475,2.025494576,4.709730722
16.15516931,-2.942473888,-3.047818661,1.714248419,4.570120219
16.16017524,-2.894589901,-2.999934673,1.221042871,4.343869753
16.16517916,-2.734178305,-2.966415882,0.9050082564,4.134536749
16.17015362,-2.743755102,-2.889801502,0.8140285611,4.067159609
16.17515831,-2.774879694,-2.63601613,0.8571242094,3.922142306
16.18016347,-2.928108692,-2.41574955,1.024718285,3.931884276
16.18516839,-3.069366693,-2.341529369,1.079784989,4.008703944
16.19017362,-3.026270866,-2.398990154,1.125274777,4.022401328
16.1951777,-2.841917515,-2.590526342,1.096544385,3.998716229
16.20015239,-2.734178305,-2.844311714,1.18991828,4.120891365
16.2051567,-2.930502892,-3.01429987,1.331176162,4.409748391
16.21016316,-3.177105665,-3.138798475,1.458068848,4.698086955
16.21516754,-3.363853455,-3.16034627,1.534683347,4.864005714
16.22017239,-3.538630009,-3.095702887,1.520318031,4.94132023
16.22472962,-3.411737442,-3.136404276,1.601720929,4.903314602
16.22970439,-3.191470861,-3.23456645,1.56101954,4.804652785
16.23515585,-3.131615877,-3.318363667,1.41018486,4.775685999
16.24016293,-3.208230257,-3.390189648,1.161187768,4.809832041
16.24516693,-3.27287364,-3.447650433,0.8307880163,4.825785335
16.25017116,-3.368641853,-3.478775024,0.4285621047,4.861408138
16.25517616,-3.529053211,-3.574543238,-0.1628057212,5.025741898
16.26015124,-3.509899616,-3.746925592,-0.7805097699,5.193076373
16.26515485,-3.466804028,-4.019864559,-1.458068848,5.504907447
16.27016039,-3.404554844,-4.367023945,-2.22900176,5.969115568
16.27516439,-3.368641853,-4.723760128,-3.337517262,6.693330946
16.28016878,-3.268085241,-4.936843872,-4.110844135,7.207763042
16.28517424,-3.086126089,-5.106832027,-4.932055473,7.741387394
16.29017893,-2.770091295,-5.27442646,-5.861005783,8.357294362
16.29515455,-2.346317768,-5.614402771,-6.825869083,9.14435423
16.29971054,-2.068590164,-5.904101372,-7.297526836,9.61204329
16.30516316,-1.848323703,-6.512228489,-8.343792915,10.74450095
16.30972139,-1.752555609,-7.204153061,-9.725247383,12.22913362
16.31469524,-1.623268723,-8.101978302,-11.55202293,14.20303797
16.31970201,-2.030282974,-9.346963882,-11.40597725,14.88570119
16.3251527,-2.121262789,-11.05402946,-9.018958092,14.42334664
16.32970993,-2.051830769,-12.39717674,-5.513846397,13.72233591
16.33471524,-2.863465309,-13.94143677,-3.974374771,14.77696679
16.34016716,-4.340687752,-16.27099419,-7.888894558,18.59627595
16.34517239,-4.541800499,-17.89186859,-12.43787766,22.25865481
16.35017732,-3.569754839,-19.39064026,-16.68279839,25.82742421
16.35515093,-0.8331822157,-20.64280701,-19.97721863,28.73863145
16.36015647,1.810016513,-20.95884132,-19.86948013,28.93692157
16.36516047,4.362235546,-20.6523838,-17.53273964,27.43988001
16.37016624,6.02620554,-19.13446045,-14.02044487,24.47479528
16.37472355,7.146692276,-16.66603851,-11.02051067,21.21988939
16.38014539,7.862558365,-12.56716442,-9.22725296,17.4612612
16.38514993,8.46589756,-9.026140213,-9.093177795,15.35670899
16.38970747,8.561665535,-5.935225964,-9.84974575,14.3368935
16.39471185,7.699752808,-3.912125587,-11.22641182,14.16415343
16.39971862,5.521028996,-2.497152328,-11.30542088,12.82692762
16.40517032,4.826710701,-2.523488522,-10.12747288,11.49916681
16.41017516,3.761290789,-3.514688015,-7.659051418,9.22829393
16.41517862,2.774879694,-5.025429249,-5.269638062,7.792559384
16.4201537,0.5793967843,-6.538564682,-2.837129116,7.151071972
16.42515855,-1.48679924,-8.221688271,-0.1915361285,8.357237348
16.43016355,-3.627215624,-10.55603504,2.987963676,11.55484729
16.43516847,-5.128379822,-12.52885723,5.154716492,14.48598099
16.43972601,-6.533776283,-14.56632328,6.605602264,17.27721007
16.44514747,-8.094796181,-16.58463478,7.079654217,19.76606536
16.45015247,-9.749189377,-19.21586227,6.641515732,22.5478555
16.45515732,-11.12346077,-21.86624336,5.121197224,25.06173656
16.46016201,-11.60948372,-24.14073563,3.974374771,27.08045206
16.46516747,-10.6446209,-25.28995323,2.059013367,27.51598126
16.4701727,-6.50983429,-24.90209198,-6.528987885,26.55409216
16.4751767,-3.557783842,-22.6850605,-14.18803883,26.99204034
16.4801527,-3.768473387,-18.53830338,-11.84650993,22.32061561
16.48470993,-5.477933407,-13.59906578,-4.941632271,15.47133071
16.49016132,-6.612784863,-8.305485725,0.5985504389,10.63335692
16.49516532,-7.781155586,-5.073313236,-2.537853718,9.629412804
16.50017147,-9.722852707,-2.262520552,-6.497863293,11.91113309
16.50517555,-10.60631371,-0.03112462163,-7.577648163,13.03516823
16.51015032,-9.493009567,1.371877551,-2.944868088,10.03352016
16.51515462,-6.91684866,1.319205165,2.865859509,7.602384387
16.52015985,-4.335899353,0.6296750307,6.543353081,7.874768783
16.52516478,-3.076549292,-0.1723825186,8.221688271,8.780149731
16.53017024,-1.161187768,-1.549048543,9.749189377,9.93954737
16.53472685,-0.5554547906,-2.8993783,11.46343803,11.8374548
16.5397017,-1.122880578,-4.419696331,14.24550056,14.95756875
16.54470632,-2.449268341,-6.131550789,16.76659393,18.01980862
16.54971155,-4.024652958,-7.757213593,17.22867584,19.31837119
16.55471616,-5.001487255,-9.670180321,15.48090839,18.92579686
16.55972285,-5.054159641,-11.13303757,13.54878712,18.24989555
16.56514324,-4.788403511,-12.58152962,11.88481712,17.95752137
16.57017885,-4.005499363,-14.19761562,9.761159897,17.6888823
16.57515301,-2.688688517,-15.51203251,7.311892033,17.3584551
16.58015739,-0.3639186621,-16.9006691,3.282450438,17.22032327
16.58516232,6.071695328,-18.80884933,-12.10987186,23.17945845
16.59016655,9.133879662,-20.14960098,-17.77215958,28.37752338
16.59517116,7.668628216,-19.05545044,-16.11058235,26.10495956
16.60017762,5.262455463,-16.89827538,-12.15536213,21.47086344
16.60515147,2.82276392,-14.18803883,-6.730101109,15.95502124
16.61015639,1.422155857,-12.5647707,-3.936067581,13.24343679
16.61516139,1.007958889,-11.42752457,-1.987187386,11.64273218
16.62016601,0.5817909837,-10.51772785,-0.2920926213,10.53785548
16.62517085,-0.8619126081,-9.236829758,0.4213795066,9.286521308
16.63017555,-2.293645144,-8.255207062,0.141257897,8.569084284
16.6351497,-3.624821424,-7.402871609,-0.1221042871,8.243588289
16.6397087,-4.534617901,-6.586448669,-0.2035071403,7.999092495
16.6451607,-5.252878666,-5.983109951,0.2011129409,7.96434463
16.65016408,-5.937620163,-5.561730385,0.4477157295,8.147921664
16.65516962,-6.358999729,-5.23851347,0.2513911724,8.242699706
16.6601737,-6.20337677,-5.216965675,-0.2801215947,8.110307165
16.66517955,-5.58088398,-5.35104084,-1.063025594,7.804481244
16.67015339,-4.900930882,-5.528211594,-1.323993564,7.505545009
16.67515885,-3.998316765,-5.851428986,-1.256955862,7.197617395
16.68016378,-2.985569477,-6.24168396,-1.04147768,6.996922146
16.68516878,-1.733402014,-6.861782074,-0.895431459,7.133760107
16.69017308,-1.051054597,-7.481880188,-0.825999558,7.600363293
16.69517855,-0.4812345505,-8.092401505,-0.7996633649,8.146042616
16.70015301,-0.004788403399,-8.588001251,-0.7709329724,8.622535942
16.70515732,0.4812345505,-9.117119789,-0.7038952708,9.156906055
16.71016232,0.7302315235,-9.43315506,-0.6416460276,9.483109305
16.71516685,0.8523358107,-9.694122314,-0.720654726,9.758167196
16.72017516,0.9289502501,-9.852140427,-0.7685387731,9.925637078
16.72517678,0.8403648138,-9.943120003,-0.7062895298,10.00353404
16.73015093,0.6679822803,-9.933543205,-0.6560112834,9.977566424
16.73515647,0.4979939461,-9.83777523,-0.7015010715,9.875318891
16.74016101,0.1675941199,-9.682151794,-0.7254431248,9.710737299
16.74471885,-0.2130839527,-9.457097054,-0.7134721279,9.486365581
16.75013985,-0.5626373887,-9.018958092,-0.5123591423,9.051004242
16.75472839,-0.8283938169,-8.662221909,-0.282515794,8.706327577
16.76015024,-1.170764685,-8.327033043,-0.04548983276,8.409056937
16.76515485,-1.460463047,-7.922413349,0.1268926859,8.056903086
16.77015947,-1.685518026,-7.625532627,0.05267243832,7.809769091
16.77471701,-1.800439715,-7.426813602,-0.1963245422,7.644454642
16.78016993,-1.762132406,-7.299921036,-0.3711012602,7.51875481
16.78517393,-1.70946002,-7.366958618,-0.5315127969,7.581348079
16.79017885,-1.541865945,-7.599195957,-0.6991068721,7.785491648
16.79470662,-1.355118155,-7.943961143,-0.7709329724,8.095505019
16.79971301,-1.177947283,-8.322244644,-0.9313444495,8.456637523
16.80516416,-0.9193734527,-8.722076416,-1.158793569,8.846618964
16.80972139,-0.6607996821,-9.028534889,-1.383848548,9.157845558
16.81469555,-0.4453215301,-9.255983353,-1.656787634,9.413632899
16.82014747,-0.1125274822,-9.572018623,-2.272097349,9.838629443
16.8251527,0.1029506698,-9.753977776,-2.901772499,10.17698211
16.83015708,0.3351882398,-9.923966408,-3.524264812,10.53650335
16.83516224,0.5458779931,-10.0364933,-3.964797974,10.80503603
16.84016724,0.7637503147,-10.12986755,-4.273650169,11.02096262
16.84517208,0.895431459,-10.19211674,-4.27125597,11.08713979
16.85017709,0.9911994934,-10.18732834,-3.849876404,10.93552392
16.85515116,1.082179189,-10.29027843,-3.16034627,10.81890616
16.86015578,1.070208192,-10.39322948,-2.243366957,10.68631181
16.86516139,1.058237195,-10.43632507,-1.721431017,10.63014919
16.87016539,0.9959878922,-10.42195988,-1.479616642,10.57348121
16.87517155,1.012747288,-10.51293945,-1.601720929,10.6823716
16.88017986,1.070208192,-10.74996567,-2.135627985,11.01217573
16.88515155,1.352723956,-10.86488724,-2.403778553,11.20954005
16.88970724,1.680729628,-11.04924107,-2.518700123,11.4566326
16.89471339,1.991975784,-11.17613316,-2.499546528,11.62418396
16.90016562,2.33913517,-11.34612179,-2.23139596,11.79767608
16.90472193,2.573766708,-11.52568722,-1.826775908,11.95001469
16.90969678,2.626439333,-11.71243477,-1.230619669,12.06622296
16.91470201,2.604891539,-11.9566431,-0.7182605267,12.25816758
16.91970686,2.482787132,-12.16733265,-0.383072257,12.42396716
16.92471186,2.281674147,-12.48097324,-0.4620809257,12.69622971
16.93016378,2.04704237,-12.66053867,-0.7374141216,12.84614345
16.93516778,1.556231141,-12.83052731,-1.364694953,12.99641022
16.94017339,1.043871999,-12.99812126,-2.025494576,13.19634242
16.94517832,0.4501099288,-13.26148319,-2.705447912,13.54211888
16.95015301,-0.2106897533,-13.62300777,-3.284844637,14.01502534
16.95515701,-1.130063176,-13.95819569,-3.758896589,14.49957148
16.96016293,-1.996764183,-14.04678154,-3.926490784,14.72129304
16.96516655,-2.846705914,-14.03241634,-4.070142746,14.88551326
16.9701727,-3.323152065,-14.01565647,-4.000710964,14.94950348
16.97472962,-3.42131424,-13.97256088,-3.598485231,14.82858539
16.98015086,-2.987963676,-14.03481007,-2.889801502,14.63744422
16.98515547,-2.092532396,-14.28859615,-2.511517525,14.65777583
16.99016132,-1.240196466,-14.62378407,-2.37744236,14.86759496
16.99516593,-0.4716577232,-15.01403904,-2.312798738,15.1984495
17.00017093,-0.05985504389,-15.1720562,-2.466027737,15.37127726
17.00517578,0.2513911724,-15.04755783,-2.322375536,15.22779112
17.01018078,0.1221042871,-14.76025391,-1.948880196,14.88885956
17.01470724,-0.7565677166,-14.43464184,-1.570596337,14.53953412
17.01971301,-2.693476915,-14.25028896,-1.015141487,14.53809017
17.02516447,-4.393360138,-14.00607967,-0.6344634295,14.69266569
17.0297217,-5.38934803,-14.06832886,-0.1867477298,15.06644695
17.03514439,-5.983109951,-14.46816063,0.7326257229,15.67360894
17.0401807,-6.868964672,-14.66687965,1.841141105,16.29999494
17.04470655,-7.563282967,-14.7794075,3.026270866,16.87579482
17.04971124,-8.322244644,-14.72912884,3.945644379,17.37167527
17.05471639,-8.84896946,-14.65011978,4.548983097,17.70941889
17.0597207,-9.332598686,-14.66927338,4.695029736,18.00911669
17.06514255,-9.92636013,-14.64054298,4.288015366,18.2006923
17.07017855,-10.68292809,-14.58068848,3.414131641,18.39504618
17.07515216,-10.72602367,-14.87517548,1.759738207,18.42322197
17.07970993,-9.840168953,-15.21994019,0.174776718,18.12473589
17.08471493,-8.971074104,-15.51921558,-0.988805294,17.95282593
17.08972016,-8.252813339,-15.49287891,-1.680729628,17.63414521
17.09514255,-7.041347027,-15.16487312,-2.729389906,16.94117806
17.09973024,-5.858611584,-14.8679924,-3.780444384,16.42170172
17.10515093,-4.699818134,-14.4992857,-4.620809078,15.92700389
17.10970847,-3.813963413,-14.08508873,-4.647145271,15.31443765
17.11516047,-2.734178305,-13.28781986,-4.546588898,14.3078076
17.12016662,-1.644816518,-12.6485672,-3.909731388,13.3408273
17.12472355,0.3711012602,-12.73715305,-2.468421936,12.97944109
17.12969762,3.002328873,-13.2327528,-0.9313444495,13.60099731
17.13515032,3.402160645,-13.26387787,-0.7613561153,13.71440178
17.14015547,3.655946016,-13.37879944,-0.3256114423,13.87314811
17.14516009,3.287238836,-13.15853214,-0.6679822803,13.5793633
17.15016386,2.762908697,-12.658144,0.2537853718,12.95865274
17.15516901,2.370259762,-11.99734497,1.541865945,12.32606053
17.15972755,2.23139596,-11.37485218,2.023100376,11.76687406
17.16470139,1.889025092,-10.77630138,1.74776721,11.07934012
17.16970655,1.369483352,-10.21127033,1.321599364,10.38711468
17.17515886,0.4644751251,-9.270348549,1.113303781,9.348504943
17.18016262,-0.3663128614,-8.461109161,1.278503656,8.56499416
17.18516778,-1.00556469,-7.694964409,1.553836942,7.914420183
17.19017393,-1.666364431,-6.998251438,1.912967205,7.44390604
17.19517732,-2.049436569,-6.387730122,2.006340981,7.002049021
17.20015401,-2.427720547,-5.781997204,2.080561161,6.60712142
17.20515863,-2.657563925,-5.240907669,2.097320795,6.239271891
17.21016293,-2.806004286,-4.623203278,1.948880196,5.74854787
17.21516686,-2.777273893,-4.182670593,1.661576033,5.288555425
17.22017186,-2.707842112,-3.749319792,1.383848548,4.827509151
17.22517701,-2.796427488,-3.397372246,1.319205165,4.593739995
17.23015155,-2.906560898,-3.047818661,1.063025594,4.34365264
17.23470847,-3.105279684,-2.901772499,0.7972691655,4.32419746
17.24016139,-3.268085241,-2.834734917,0.6344634295,4.372487511
17.2451657,-3.179499865,-2.808398485,0.4381389022,4.264772812
17.25017086,-3.090914488,-2.849100113,0.215478152,4.209222572
17.25517586,-2.887407303,-2.882618904,0.05506663769,4.080397654
17.26015032,-2.619256735,-2.97599268,-0.02394201607,3.964544298
17.26470755,-2.425326347,-3.05021286,-0.03112462163,3.897046975
17.27015893,-2.597708941,-3.062183857,-0.009576806799,4.015613705
17.27516509,-2.717418909,-3.100491285,0.01675941236,4.122825805
17.28017062,-2.784456491,-3.189076662,0.07900865376,4.234341776
17.28517462,-2.82276392,-3.287238836,0.2513911724,4.34017659
17.29017978,-2.827552319,-3.327940464,0.3998316824,4.385214387
17.29515332,-2.839523315,-3.320757866,0.6440402865,4.416459368
17.30015855,-2.803610086,-3.303998232,0.9121908545,4.428174114
17.30516409,-2.700659513,-3.239354849,1.213860273,4.388671599
17.30972039,-2.659958124,-3.169923067,1.290474772,4.334641232
17.31469547,-2.494758129,-3.148375273,1.30005157,4.222110736
17.32014839,-2.370259762,-3.179499865,1.194706678,4.141820225
17.32515209,-2.245761156,-3.294421434,0.9864110947,4.107269483
17.33015701,-2.171540976,-3.438073635,0.7852981687,4.141573824
17.33516201,-2.106897593,-3.507505417,0.538695395,4.126960679
17.33972039,-2.121262789,-3.579331636,0.2920926213,4.170933814
17.34514139,-2.123656988,-3.643975019,-0.09337386489,4.218671784
17.35017616,-2.126051188,-3.632004023,-0.4740519226,4.235123622
17.35515124,-2.078166962,-3.699041605,-0.9241618514,4.342322172
17.36015801,-2.037465572,-3.809175014,-1.532289028,4.58355647
17.36516201,-2.078166962,-4.005499363,-2.537853718,5.177210114
17.3701657,-2.042253971,-4.180276394,-3.500322819,5.822179304
17.37517086,-1.908178806,-4.429273129,-4.639962673,6.692448013
17.38017639,-1.810016513,-4.692635536,-5.925649166,7.772406712
17.38514962,-1.383848548,-5.20020628,-7.290344238,9.061252743
17.38970724,-0.9121908545,-5.822698593,-8.626308441,10.44744506
17.39471239,-0.5817909837,-6.639121532,-9.923966408,11.95414258
17.39971793,-0.5243301988,-7.570465565,-11.15697956,13.49314878
17.40472224,-0.7781155705,-8.597578049,-11.9757967,14.76291024
17.40969701,-1.340752959,-10.01494598,-12.78024864,16.29206914
17.41514878,-1.723825216,-11.2838726,-12.80179691,17.15177421
17.42015401,-1.855506301,-12.87362289,-12.01410389,17.70626336
17.42515855,-1.517923832,-15.56949329,-10.74757099,18.97955469
17.43016316,-1.455674648,-18.04749298,-11.75792408,21.58888071
17.43516839,-1.546654344,-21.03784943,-14.33648014,25.50525262
17.44017524,-1.59693253,-24.18143654,-17.76258278,30.04665395
17.44517855,-0.6991068721,-26.77435684,-17.19276237,31.8268128
17.4501527,-0.3471592367,-26.30270004,-15.10023022,30.33099902
17.45515793,-0.3639186621,-24.31790733,-12.99333286,27.57389622
17.46016263,-1.051054597,-20.64759636,-11.11388397,23.47224676
17.46516624,-1.230619669,-17.22388649,-10.57279491,20.24748584
17.47017216,-0.8212111592,-13.13219643,-10.71644688,16.96971433
17.47517639,0.0143652102,-8.978256226,-10.88404083,14.10927482
17.48015032,0.8643068075,-4.438849926,-10.86249352,11.7662305
17.48470932,1.007958889,-2.23139596,-10.58716011,10.86660334
17.4901607,0.9074024558,0.2609679997,-9.488221169,9.535083873
17.49516632,0.4165911078,1.015141487,-8.118738174,8.192555763
17.50017086,-0.9840168953,0.4285621047,-5.968744755,6.064475961
17.50517547,-2.293645144,-0.691924274,-4.27125597,4.897264012
17.5101804,-3.414131641,-2.243366957,-2.243366957,4.660652902
17.51470724,-4.824316502,-3.971980572,-0.2226607651,6.253018246
17.52016347,-6.670246124,-6.323086739,1.572990537,9.324586237
17.52516509,-7.80509758,-8.353369713,3.232172251,11.88045754
17.52972224,-8.722076416,-10.65180302,5.169081688,14.70560879
17.53514347,-9.241618156,-13.12501335,6.296750546,17.2430435
17.54017924,-9.516951561,-16.19437981,5.990292549,19.7158289
17.54515401,-9.011775017,-18.86391449,3.636792421,21.21993445
17.55015955,-7.345410824,-21.77287102,-0.6584054828,22.9879636
17.55516347,-4.522646904,-24.68900871,-5.372588634,25.66838902
17.56016816,-0.7469909191,-26.54930305,-10.52012253,28.56740216
17.5651737,1.472434044,-24.9140625,-11.99734497,27.69142211
17.57017793,1.678335428,-21.07855225,-10.88164711,23.78092552
17.57515309,0.01197100803,-16.19437981,-5.319916248,17.04580856
17.57971001,-2.279279947,-10.87446404,2.401384354,11.36730979
17.58516263,-3.890577793,-5.607220173,7.228095055,9.940969357
17.59016724,-4.879383087,-3.256114244,5.995080948,8.387589335
17.59517186,-6.569689274,-1.704671621,3.162740469,7.487966998
17.60017832,-7.532158375,-0.1987187415,-1.78128612,7.742472419
17.60515186,-7.582436562,0.4405331016,-3.758896589,8.474474449
17.61015609,-6.380547523,0.3447650373,-1.015141487,6.469989325
17.6151614,-4.458003521,-0.3782838583,3.991134167,5.995502148
17.6201657,-2.997540474,-1.903390408,6.564900875,7.46364974
17.62517024,-1.673547029,-3.514688015,7.99663353,8.893814666
17.63017578,-0.6871358752,-5.341464043,9.430760384,10.86013974
17.63515086,-1.278503656,-7.290344238,10.83376312,13.12075128
17.64015424,-2.106897593,-9.255983353,11.96861458,15.27612452
17.64516078,-2.080561161,-10.88643551,12.28943729,16.5491233
17.65016447,-2.003946781,-12.19845772,11.67891598,17.00632976
17.65517063,-1.357512355,-13.72595787,10.29985619,17.21429048
17.66017516,-0.4668693244,-14.8775692,7.896077156,16.84957171
17.66517886,0.5841852427,-15.96693134,4.139574528,16.50515817
17.66970663,2.013523579,-16.87193871,-0.2561795712,16.99359352
17.67471086,3.466804028,-17.42739487,-4.891354084,18.42981733
17.68016563,4.005499363,-17.18079185,-8.339004517,19.51313994
17.6847214,3.294421434,-16.07945824,-9.126696587,18.78027637
17.69014355,2.157175779,-14.64054298,-8.741230011,17.18743751
17.69517732,0.8379706144,-12.89756489,-7.290344238,14.83908669
17.70015209,-0.03351882473,-11.57117653,-5.983109951,13.02654423
17.70515793,-0.8930372596,-10.43393135,-4.27125597,11.30964485
17.70971424,-1.798045516,-9.615114212,-2.643198729,10.13261509
17.71471916,-2.597708941,-8.923190117,-1.309628367,9.385442987
17.72014163,-3.598485231,-7.972691536,-0.2346317619,8.7503119
17.7251767,-4.455609322,-7.350199223,-0.06703764945,8.595485855
17.73015086,-5.257667065,-6.739677906,-0.08858546615,8.548343034
17.73515609,-5.928043365,-6.217741966,-0.5841852427,8.610649552
17.74016101,-6.033388138,-5.920860767,-0.6584054828,8.478906912
17.74516601,-5.628767967,-5.904101372,-0.3184288144,8.163506523
17.75017116,-5.087678432,-6.10281992,0.1939303428,7.947735009
17.75517493,-4.357447147,-6.385335922,0.7541735172,7.767151227
17.7601817,-3.687070608,-6.634333134,0.5626373887,7.610875549
17.76515516,-3.093308687,-6.919242859,0.2059013397,7.582010006
17.77016009,-2.408566952,-7.273584843,-0.1388636976,7.663257424
17.77516478,-1.517923832,-7.714118004,-0.5027823448,7.878102527
17.78016909,-0.8595184088,-8.056488991,-0.7062895298,8.132934996
17.78517401,-0.2944868207,-8.360552788,-0.9121908545,8.415322784
17.79017886,0.3375824392,-8.676587105,-1.142034173,8.757931705
17.79515393,0.6871358752,-9.054870605,-1.252167463,9.166829373
17.80015955,0.8834604025,-9.287108421,-1.206677675,9.406750561
17.80516409,0.9720458984,-9.454702377,-1.108515382,9.56896424
17.8101687,1.060631394,-9.581595421,-1.185129881,9.712694919
17.81472663,0.988805294,-9.653421402,-1.26413846,9.785924929
17.82014786,0.8403648138,-9.703699112,-1.592144132,9.869291383
17.82515209,0.6177040339,-9.629479408,-1.704671621,9.79869059
17.83015801,0.4309563041,-9.339780807,-1.534683347,9.474834133
17.83516201,0.2106897533,-9.057265282,-1.364694953,9.161923208
17.8401694,-0.009576806799,-8.829815865,-1.206677675,8.911891546
17.84517178,-0.2442085743,-8.628703117,-0.9576807022,8.685119898
17.84973055,-0.5243301988,-8.470685959,-0.7086837292,8.516435604
17.85515117,-0.8020575643,-8.212111473,-0.323217243,8.257514188
17.86015616,-0.9840168953,-7.972691536,-0.009576806799,8.033193094
17.86516132,-1.15161097,-7.783549786,0.282515794,7.873351908
17.8701657,-1.295263171,-7.54891777,0.5434837937,7.678492093
17.87472263,-1.278503656,-7.467514992,0.5937620401,7.599401629
17.88014563,-1.240196466,-7.422025204,0.3974374831,7.535416508
17.88515032,-1.137245774,-7.560888767,0.2346317619,7.649537173
17.89015547,-0.9672574997,-7.773972988,0.04788403213,7.834062546
17.89515978,-0.8978256583,-8.063671112,-0.02154781483,8.113528642
17.89971701,-0.8403648138,-8.28633213,-0.141257897,8.330034033
17.9051697,-0.8451532125,-8.530540466,-0.4525041282,8.584239313
17.90972686,-0.8667010069,-8.789113998,-0.9050082564,8.877991634
17.91514909,-0.921767652,-9.03571701,-1.714248419,9.242969498
17.91970724,-0.8786720037,-9.181763649,-2.473210335,9.549534939
17.92515832,-0.7158663273,-9.370905876,-3.138798475,9.908501269
17.93016386,-0.4525041282,-9.574412346,-3.775655985,10.30192748
17.93516786,-0.2298433632,-9.780313492,-4.077325344,10.59867642
17.94017393,-0.06703764945,-10.02452278,-4.153939724,10.85130251
17.94517863,-0.0287304204,-10.26394272,-3.991134167,11.0126517
17.95015217,0.1125274822,-10.54406452,-3.373430252,11.07113322
17.95515709,0.2705447972,-10.78348446,-2.456450939,11.0630413
17.9601617,0.4453215301,-10.97023201,-1.56101954,11.08968366
17.96516724,0.517147541,-11.06121159,-0.9002198577,11.10982624
17.97017147,0.6153098345,-11.12106705,-0.6823474765,11.15895768
17.97517678,0.7565677166,-11.21204662,-1.142034173,11.29542501
17.98015147,0.9145850539,-11.26711273,-1.929726601,11.46769985
17.98515647,1.098938584,-11.14740276,-2.647987127,11.51017334
17.9901614,1.146822572,-10.94629002,-3.167528868,11.4529344
17.9951657,1.319205165,-10.69489861,-3.090914488,11.21048218
18.0001737,1.577778935,-10.54885292,-2.841917515,11.0383051
18.00517547,1.841141105,-10.6302557,-2.398990154,11.05202654
18.01015116,2.130839586,-10.78587818,-1.922544003,11.16117471
18.01515516,2.312798738,-11.03726959,-1.393425345,11.36274581
18.02015947,2.463633537,-11.36527538,-0.9744400978,11.66998322
18.02516509,2.604891539,-11.86566353,-0.8643068075,12.17893498
18.03016963,2.67671752,-12.20563984,-1.031900883,12.53823273
18.03517424,2.655169725,-12.61026001,-1.347935557,12.95706425
18.04017947,2.559401512,-13.06276417,-1.74776721,13.42538767
18.0451537,2.059013367,-13.67807388,-2.286462545,14.01988417
18.04971093,1.482010841,-14.00607967,-2.576161146,14.31793387
18.05516386,0.3184288144,-14.42745972,-3.318363667,14.80758347
18.0601684,-0.720654726,-14.5639286,-3.97676897,15.11429956
18.0651737,-2.042253971,-14.5088625,-4.472368717,15.31926807
18.07017732,-2.786850691,-14.4897089,-4.46039772,15.41471208
18.0751524,-3.095702887,-14.46576691,-4.024652958,15.33100192
18.08015855,-3.052607059,-14.56632328,-3.529053211,15.29543724
18.0851617,-2.552218914,-14.81532001,-2.987963676,15.32760436
18.08971916,-1.999158382,-14.98770237,-2.56897831,15.33712835
18.09469393,-1.429338455,-15.1529026,-2.274491549,15.38917729
18.09969924,-0.7900865674,-15.12177753,-2.106897593,15.28827688
18.10515147,-0.3256114423,-14.7698307,-1.900996208,14.89522435
18.10970847,-0.6584054828,-14.4753437,-1.606509328,14.57909275
18.11516078,-1.544260144,-14.10903072,-1.221042871,14.24571631
18.12016655,-2.671929121,-13.97974396,-0.6224924326,14.24640106
18.12517063,-4.007893562,-14.06114674,0.1340752989,14.62179998
18.13017547,-5.018246651,-14.42506504,0.7158663273,15.28979285
18.13515001,-5.863399982,-14.81771469,1.539471745,16.00981266
18.13970663,-6.493074894,-15.11220074,2.49236393,16.63582011
18.1451607,-7.120356083,-15.25106525,3.897760391,17.27677627
18.15016409,-7.501033783,-15.18881512,4.888959885,17.63143616
18.15516963,-7.783549786,-15.03079796,5.293580055,17.73500844
18.1601767,-8.47786808,-14.93263626,5.202600479,17.94226643
18.16517955,-9.191340446,-14.87996387,4.467580318,18.0514082
18.17015394,-9.813833237,-15.05234623,3.447650433,18.29674133
18.17515855,-9.567230225,-15.38035202,2.080561161,18.23227515
18.18016294,-8.429984093,-15.71793461,0.5961562395,17.84582591
18.18516878,-7.481880188,-15.84722137,-0.6847416759,17.53801094
18.19017309,-6.775590897,-15.5503397,-1.537077546,17.03186144
18.19517863,-5.980715752,-15.08586502,-2.82036972,16.47139246
18.20015301,-4.821922302,-14.65251446,-4.443638325,16.05282019
18.20515701,-3.780444384,-13.92707157,-4.955997467,15.25834176
18.21016232,-2.882618904,-13.46977901,-4.833893299,14.59832055
18.21516755,-2.401384354,-12.82334423,-4.46279192,13.78844864
18.22017247,-1.510741234,-12.00692177,-3.60566783,12.62732553
18.2251767,0.2035071403,-12.00452709,-0.7781155705,12.03144005
18.23015124,1.735796213,-12.21521664,1.058237195,12.38322946
18.23515586,3.236960649,-12.44266605,1.458068848,12.93923559
18.24016355,4.407725334,-12.64617348,0.1149216816,13.39279483
18.24516624,4.570530891,-12.6294136,-0.1699883193,13.43207864
18.25017001,4.299986362,-12.35168648,0.6224924326,13.09356859
18.2551764,4.295197964,-12.14817905,1.079784989,12.93030995
18.26015024,3.330334663,-11.24556541,1.029506683,11.77343427
18.26470747,2.695871115,-10.53927612,1.106121182,10.93469553
18.27015978,1.367089152,-9.900024414,1.165976286,10.06175516
18.2751654,0.4812345505,-9.224859238,1.283292055,9.326116724
18.2801694,-0.03351882473,-8.42759037,1.429338455,8.548006281
18.28517455,-0.6200982332,-7.601590633,1.63763392,7.80067605
18.29017947,-1.213860273,-6.792350292,1.759738207,7.120825641
18.29515363,-1.750161409,-6.086060524,1.8602947,6.600294996
18.30015832,-2.236184359,-5.16189909,1.810016513,5.909473959
18.30471647,-2.463633537,-4.584896088,1.774103403,5.498927643
18.31016809,-2.63601613,-4.108449936,1.788468719,5.19870775
18.31517363,-2.743755102,-3.665522814,1.874659896,4.947585197
18.32018047,-3.01190567,-3.23456645,1.802833915,4.773280424
18.3251527,-3.141192675,-2.964021683,1.620874524,4.61299796
18.3301577,-3.201047659,-2.801215887,1.345541358,4.461389706
18.33516255,-3.153163671,-2.71502471,1.127668977,4.311083116
18.34016717,-2.846705914,-2.698265314,0.7326257229,3.990126654
18.34517278,-2.626439333,-2.729389906,0.5339069963,3.825285546
18.35017647,-2.7509377,-2.719813108,0.2274491638,3.875148345
18.35515094,-2.815581083,-2.729389906,-0.0359130241,3.921524683
18.36015701,-2.762908697,-2.825158119,-0.1125274822,3.953206964
18.36516101,-2.746149302,-2.968810081,-0.06224924326,4.044631535
18.37016501,-2.669534922,-3.208230257,-0.06703764945,4.174164842
18.37472286,-2.60010314,-3.476380825,-0.04070143029,4.341361144
18.38014501,-2.63841033,-3.854664803,0.08140286058,4.67186004
18.38470324,-2.710236311,-4.106055737,0.2633621991,4.926909196
18.39015463,-2.877830505,-4.235342979,0.423773706,5.138056318
18.39515947,-3.033453465,-4.266467571,0.624886632,5.272102878
18.40016663,-3.064578056,-4.218583584,0.8092401624,5.27664247
18.40516963,-3.064578056,-4.153939724,0.9385270476,5.24668342
18.41017424,-2.990357876,-4.058171749,0.9864110947,5.136536286
18.41517978,-2.839523315,-4.01507616,0.9911994934,5.016593034
18.4201534,-2.705447912,-4.043806553,0.9504981041,4.957344701
18.42515801,-2.63601613,-4.067748547,0.758961916,4.906239137
18.43016386,-2.597708941,-4.113238335,0.4932055473,4.889792741
18.43516786,-2.49236393,-4.165910721,0.06943184882,4.855050038
18.43972601,-2.449268341,-4.187458992,-0.2322375625,4.856713138
18.44514786,-2.367865562,-4.199429989,-0.8044517636,4.887652012
18.44970532,-2.293645144,-4.223371983,-1.369483352,4.997315639
18.45515701,-2.063801765,-4.328716755,-2.19308877,5.273206313
18.46016201,-1.82198751,-4.448426723,-2.987963676,5.660041142
18.46516747,-1.455674648,-4.627991676,-3.876212597,6.20985666
18.4697244,-1.027112484,-4.853046894,-4.659116745,6.805467879
18.47514663,-0.4644751251,-5.166687489,-5.659893036,7.677550776
18.48015247,-0.3734954596,-5.513846397,-6.567295074,8.583202523
18.4847084,-0.5937620401,-5.94959116,-7.596801758,9.667553221
18.48971363,-0.9504981041,-6.564900875,-8.664615631,10.91223782
18.49516624,-1.616086125,-7.572859764,-9.818621635,12.50460996
18.50017094,-2.41335535,-8.415618896,-10.65180302,13.78795971
18.50517586,-3.339911461,-9.301473618,-11.37006378,15.06488534
18.50970232,-3.67988801,-10.28549004,-11.35569859,15.75705466
18.51515555,-3.435679436,-11.99255657,-10.58716011,16.36194565
18.51971278,-3.15795207,-13.71638107,-9.99100399,17.26070485
18.52516417,-3.074155092,-15.68441486,-10.46745014,19.10546549
18.53017024,-2.705447912,-17.98284912,-12.61744308,22.133734
18.53517517,-1.414973259,-21.11207008,-16.29972458,26.70959891
18.54017917,0.1867477298,-23.12319946,-17.83680344,29.20391729
18.5451534,2.23139596,-23.56373405,-17.27655983,29.30372348
18.55015824,4.268861771,-23.13038254,-14.4849205,27.62337233
18.55516347,5.61679697,-21.10728264,-10.7092638,24.32599679
18.56016994,5.468356609,-18.41141129,-9.054870605,21.23378608
18.5651737,4.991910458,-14.88954067,-8.956708908,18.07872302
18.57017763,4.639962673,-11.22880554,-10.35492229,15.9637008
18.5751524,4.355052948,-7.223306656,-11.47540855,14.24175715
18.58015732,3.849876404,-4.802768707,-12.2654953,13.72335639
18.58516194,2.236184359,-3.174711466,-12.29662037,12.89520011
18.59016747,0.9576807022,-2.990357876,-10.25675964,10.72662626
18.59517278,-0.6967126727,-3.708618402,-8.877699852,9.646388633
18.60017671,-2.762908697,-4.714183331,-6.938396454,8.831677887
18.60470378,-3.497928619,-6.682217121,-4.230554581,8.647839172
18.6101567,-5.58088398,-9.184157372,-1.309628367,10.82636315
18.6151614,-7.479485989,-11.03966427,1.110909581,13.38099465
18.62016594,-8.781931877,-12.9430542,3.866635799,16.11197852
18.62517117,-9.727641106,-14.93981838,6.174646378,18.86667519
18.63017555,-9.842563629,-17.37472153,7.390900612,21.29277856
18.63518109,-9.809044838,-19.37627411,6.969521046,22.80858572
18.63971032,-9.030928612,-21.24614525,4.587290287,23.53719592
18.64516017,-6.912060261,-22.3115654,0.921767652,23.37588893
18.65016501,-2.916137695,-21.06657982,-4.395754337,21.71698185
18.65517055,0.1987187415,-18.60055351,-6.806715488,19.80786349
18.65972755,0.8331822157,-15.37316895,-7.431602001,17.09553229
18.66514909,-0.6464344859,-11.27908421,-3.34469986,11.78230178
18.6701537,-2.815581083,-6.02381134,2.142810583,6.986088827
18.67515894,-3.806780815,-3.292027235,2.691082716,5.707096431
18.68016355,-4.8291049,-1.731007814,0.9337386489,5.21426026
18.6847207,-6.655880928,-0.586579442,-1.903390408,6.947497493
18.69014224,-8.214506149,0.3136404157,-6.016628742,10.18706548
18.69517824,-8.221688271,0.4381389022,-5.822698593,10.08424229
18.70015209,-7.108384609,-0.1723825186,-1.132457376,7.200090777
18.7051574,-5.963956356,-1.259350061,4.060565948,7.324133656
18.71016201,-4.666299343,-2.865859509,8.056488991,9.741381583
18.71516724,-3.548206806,-4.374206543,9.208099365,10.79409785
18.72017432,-3.210624456,-5.94959116,10.48660374,12.47696286
18.72473032,-2.853888512,-7.663839817,12.44984913,14.89556524
18.73015032,-3.596091032,-9.753977776,14.17606831,17.57933064
18.7351567,-4.101267338,-11.33654499,14.11621284,18.56354253
18.74016163,-3.778050184,-12.74912453,13.02685165,18.61485169
18.7451657,-2.736572504,-14.05156994,11.22880554,18.19399683
18.75017178,-0.7709329724,-15.70835781,8.046912193,17.66634197
18.75517494,1.482010841,-16.97249603,3.859453201,17.46875373
18.76018078,3.837905407,-17.98524284,-1.479616642,18.44960009
18.76515517,6.768408298,-18.64604378,-6.586448669,20.90137808
18.77015978,7.20654726,-17.84877396,-9.205705643,21.33677744
18.7751644,5.856217384,-16.16086197,-9.220070839,19.50585676
18.78016932,4.19464159,-14.32211494,-8.118738174,16.9891702
18.78517486,2.073378563,-12.14578533,-7.031770229,14.18678232
18.79017894,1.204283476,-10.80982113,-5.853823185,12.35191392
18.79515463,0.7948749661,-9.828198433,-4.42209053,10.80648857
18.80015955,0.0023942017,-9.11233139,-2.609679937,9.478661217
18.8047167,-1.063025594,-8.607154846,-1.165976286,8.750579333
18.8101684,-2.782062292,-7.910442352,-0.9648633003,8.440730418
18.81517363,-3.79480958,-7.450755596,-0.9552865028,8.415872563
18.82017832,-4.529829502,-7.058106422,-0.7062895298,8.416357079
18.82515209,-5.477933407,-6.569689274,-0.457292527,8.56607775
18.83015701,-5.820304394,-6.303933144,-0.1364694983,8.581033751
18.83516201,-6.076483727,-6.052541733,-0.09576806426,8.577067531
18.84016724,-6.325480938,-5.846640587,-0.3256114423,8.619799189
18.84472386,-6.098031521,-5.789179802,-0.4309563041,8.41940108
18.85014663,-5.154716492,-5.940014362,-0.5027823448,7.880841505
18.85470348,-4.290409565,-6.196194172,-0.6081272364,7.561101453
18.86015578,-3.397372246,-6.512228489,-0.6081272364,7.37028336
18.86471332,-2.482787132,-6.967126846,-0.5698199868,7.418206202
18.87016655,-1.704671621,-7.592013359,-0.6081272364,7.804767192
18.87517094,-1.211466074,-7.975085735,-0.6392518282,8.091865387
18.87972963,-0.8283938169,-8.327033043,-0.5434837937,8.385767123
18.88515178,-0.5674257874,-8.65743351,-0.4309563041,8.686705379
18.89015555,-0.4094084799,-8.892065048,-0.4740519226,8.914099021
18.89515986,-0.3375824392,-9.105149269,-0.6344634295,9.133468616
18.90016448,-0.3112462163,-9.260771751,-0.9552865028,9.315113523
18.90516963,-0.390254885,-9.418789864,-1.283292055,9.513818364
18.91017455,-0.4477157295,-9.423578262,-1.355118155,9.531034669
18.91473178,-0.5195417404,-9.33020401,-1.371877551,9.444822841
18.9201534,-0.624886632,-9.155426979,-1.371877551,9.278705432
18.92515894,-0.7924807668,-8.971074104,-1.446097851,9.121370256
18.93016255,-1.019929886,-8.73404789,-1.352723956,8.896837169
18.93516878,-1.26413846,-8.482656479,-1.173158884,8.656200596
18.9401734,-1.580173135,-8.243236542,-1.029506683,8.456227281
18.94517855,-1.812410712,-7.922413349,-0.8882488012,8.175478689
18.95015301,-1.927332401,-7.709329605,-0.8571242094,7.992686348
18.95515709,-1.989581585,-7.592013359,-0.8236053586,7.891478158
18.96016378,-1.89860189,-7.529764175,-0.6416460276,7.791902675
18.96516778,-1.78128612,-7.522581577,-0.4548983276,7.74397484
18.97017186,-1.644816518,-7.563282967,-0.3687070608,7.748846076
18.97472909,-1.379060149,-7.747636795,-0.3423708379,7.876858549
18.98015186,-1.108515382,-7.903259754,-0.1316810995,7.9817079
18.9851564,-0.895431459,-8.204929352,0.1292868853,8.254657974
18.99016132,-0.6943184733,-8.425195694,0.2896983922,8.458718921
18.99516632,-0.4932055473,-8.645462036,0.2633621991,8.663522677
19.00017055,-0.2873041928,-8.963891029,-0.09576806426,8.969005386
19.00517586,-0.1460463107,-9.30386734,-0.5674257874,9.322298484
19.01015024,-0.1149216816,-9.555258751,-1.15161097,9.625091408
19.01470817,-0.0143652102,-9.900024414,-1.829170108,10.06759917
19.02015978,0.05506663769,-10.32858658,-2.719813108,10.68082939
19.02516409,0.1125274822,-10.47463226,-3.406949043,11.01534771
19.03016901,0.2561795712,-10.52730465,-3.983951569,11.25884724
19.03517401,0.2585737705,-10.51533413,-4.314351559,11.36893758
19.04018201,0.2059013397,-10.39083576,-4.369418144,11.2740267
19.0451534,0.09097966552,-10.24239445,-4.079719543,11.0253813
19.05015794,-0.1292868853,-10.17296314,-3.694253206,10.82374246
19.05516409,-0.3136404157,-10.16817474,-3.287238836,10.69093481
19.0601684,-0.6464344859,-10.23760605,-2.741360903,10.61798073
19.06517309,-0.4979939461,-10.51054573,-2.425326347,10.79823029
19.07017763,-0.04070143029,-10.74757099,-2.059013367,10.9431017
19.07515278,0.4668693244,-10.81939793,-1.742978811,10.96883374
19.0801574,1.103726983,-10.6254673,-1.795651317,10.83250351
19.08516101,1.668758631,-10.47942066,-1.917755604,10.78335752
19.09016755,2.293645144,-10.47463226,-1.994369984,10.90670623
19.0947244,2.925714493,-10.67813969,-1.824381709,11.221
19.09969924,3.514688015,-10.98459721,-1.276109457,11.60357113
19.10470409,4.118026733,-11.52808094,-0.5051765442,12.25193853
19.10970963,4.352658749,-11.95185471,-0.06224924326,12.71991918
19.11471425,4.426878929,-12.36844635,0.07422025502,13.13701758
19.11972048,4.283226967,-12.75870132,-0.2896983922,13.46159047
19.12469271,3.744531393,-13.30457878,-1.180341482,13.87178928
19.12969801,3.059789658,-13.85763931,-2.011129379,14.33321741
19.13514994,1.999158382,-14.28380775,-2.707842112,14.67501983
19.13970755,0.7565677166,-14.59505367,-3.320757866,14.98717516
19.14471155,-1.012747288,-14.73391724,-3.950432777,15.28790023
19.15016509,-2.145204782,-14.75307083,-4.297592163,15.51529249
19.15516994,-2.918531895,-14.72194672,-4.292803764,15.61030774
19.16017432,-2.93768549,-14.83207989,-3.921702385,15.62051022
19.16517924,-2.535459518,-15.10262394,-3.727771997,15.7611576
19.17015363,-1.848323703,-15.5407629,-3.703830004,16.08259832
19.17515855,-0.9576807022,-15.93580627,-3.327940464,16.30773625
19.18016348,-0.3184288144,-16.36915779,-2.97359848,16.64010251
19.18516778,0.1604115069,-16.43379974,-2.157175779,16.57555167
19.18972625,0.1795651317,-16.25662994,-1.371877551,16.31540097
19.19514694,-0.9145850539,-15.74905872,-0.5961562395,15.78685272
19.20015401,-2.401384354,-15.19360352,-0.007182605099,15.38220681
19.20515709,-4.048594952,-14.95418358,0.8283938169,15.51466931
19.21016286,-5.628767967,-14.97094345,1.084573388,16.03086012
19.21516755,-7.216124058,-14.99727917,1.537077546,16.71386958
19.22017148,-7.898471355,-14.92305946,2.248155355,17.03343054
19.2247294,-8.441955566,-14.81771469,3.141192675,17.34065667
19.23015032,-8.77235508,-14.75067711,4.065354347,17.63700073
19.23515701,-8.923190117,-14.71955204,4.582501888,17.81257583
19.24016078,-9.052476883,-14.70997524,4.084507942,17.74863134
19.2451654,-9.354146004,-14.60702419,3.313575268,17.65913317
19.25017086,-9.971850395,-14.55435181,2.401384354,17.80543747
19.25517617,-10.43153667,-14.72194672,0.9385270476,18.06747092
19.26015001,-9.935936928,-14.81771469,-0.181959331,17.84154199
19.26470778,-9.167398453,-14.81053162,-1.237802267,17.46210742
19.27015978,-8.43956089,-14.69321537,-2.118868589,17.07648588
19.27516417,-7.455543995,-14.34845066,-2.961627483,16.43880805
19.28017209,-6.562506676,-14.05396366,-3.732560396,15.95344463
19.28517424,-5.554547787,-13.9103117,-4.024652958,15.50959716
19.29017924,-4.314351559,-13.52963352,-3.696647406,14.67412058
19.29515248,-3.409343243,-12.61504841,-4.158728123,13.71342726
19.30015801,-2.042253971,-12.20085144,-3.098097086,12.75263826
19.30516348,0.08619125932,-12.2750721,-2.087743998,12.45164643
19.30972009,1.793257117,-12.19366932,-0.9145850539,12.35871386
19.31514232,3.047818661,-12.26788998,1.146822572,12.69273513
19.32017794,3.7181952,-12.40914726,0.9600749016,12.98975193
19.32515178,4.110844135,-12.23676491,0.4548983276,12.91682575
19.32970963,4.355052948,-12.09311295,0.2849099934,12.85655633
19.33516194,3.97916317,-11.6860981,1.091755986,12.39316584
19.34016694,3.023876667,-10.98220348,1.142034173,11.44800705
19.34517148,2.595314741,-10.20648193,1.55862534,10.64599667
19.34972932,2.217030764,-9.677363396,1.740584612,10.07949515
19.35470348,1.563413739,-9.334992409,1.493981838,9.582188034
19.35971063,0.423773706,-8.628703117,1.391031146,8.75037538
19.36471432,-0.3088520169,-8.099584579,1.608903527,8.263608805
19.36971886,-0.8882488012,-7.522581577,1.778891921,7.780917426
19.3746934,-1.30005157,-6.955155849,1.824381709,7.307030559
19.37969794,-1.948880196,-6.184223175,1.793257117,6.727445383
19.38470263,-2.595314741,-5.568912983,1.750161409,6.388389106
19.39015455,-3.213018656,-4.994304657,1.642422318,6.161502979
19.39515978,-3.347094059,-4.5370121,1.479616642,5.8289607
19.40016448,-3.339911461,-4.185064793,1.240196466,5.496168043
19.40516901,-3.356670856,-3.82593441,1.146822572,5.217299623
19.41017494,-3.536235809,-3.423708439,0.9911994934,5.02087837
19.41517948,-3.617638826,-3.220201254,0.8355764151,4.914793458
19.42015394,-3.608062029,-3.105279684,0.6440402865,4.803713294
19.42515894,-3.471592426,-3.076549292,0.4118026793,4.656897139
19.42971617,-3.232172251,-3.086126089,0.2322375625,4.474935305
19.43516848,-3.124433279,-3.143586874,0.05985504389,4.43258439
19.44017455,-3.129221678,-3.215412855,0.0191536136,4.486788941
19.44473086,-3.064578056,-3.289633036,0.1029506698,4.497101624
19.44970602,-2.916137695,-3.34469986,0.117315881,4.438990789
19.45515702,-2.825158119,-3.387795448,0.356736064,4.425600187
