Time (s),Acceleration x (m/s^2),Acceleration y (m/s^2),Acceleration z (m/s^2),Absolute acceleration (m/s^2)
50.003288,0.8834604025,-10.79784966,-2.889801502,11.21271654
50.00829254,0.6703764796,-10.69011021,-2.370259762,10.97023209
50.01329754,0.4094084799,-10.60391903,-1.721431017,10.75053668
50.01827254,0.3519476354,-10.6111021,-1.314416766,10.69799264
50.02327685,0.4261679053,-10.60631371,-1.496376038,10.71982513
50.02828177,0.5506663918,-10.59913063,-2.166752577,10.83234141
50.03328577,0.6344634295,-10.57279491,-2.956839085,10.99679196
50.03829285,0.7996633649,-10.58716011,-3.579331636,11.20442036
50.04329623,1.142034173,-10.6254673,-3.531447411,11.25503968
50.04827131,1.546654344,-10.74757099,-2.980781078,11.25999457
50.052828,1.989581585,-10.87685871,-2.133233786,11.26122448
50.05783439,2.30561614,-11.08275986,-1.015141487,11.36547157
50.06283785,2.56658411,-11.38442898,0.06943184882,11.67036409
50.06825939,2.844311714,-11.90397072,0.6751648784,12.25767007
50.07284793,3.045424461,-12.35886955,0.5674257874,12.74120241
50.07827039,3.169923067,-12.76109505,0.1244984865,13.14950413
50.0832747,3.215412855,-13.13698483,-0.9864110947,13.56068792
50.08827908,3.047818661,-13.33570385,-2.020706177,13.82799513
50.09328423,2.652775526,-13.48174953,-3.002328873,14.06445048
50.09829008,2.109291792,-13.69962215,-4.019864559,14.43218868
50.10329346,1.197100878,-13.95580196,-4.527435303,14.72056824
50.10829877,0.3806780577,-14.32450867,-4.443638325,15.00274595
50.11327254,-0.3351882398,-14.46816063,-4.108449936,15.04391518
50.11827877,-0.921767652,-14.58547688,-3.801992416,15.10102439
50.12328339,-1.331176162,-14.68842697,-3.725377798,15.21184922
50.1282877,-1.465251446,-14.8584156,-3.892971992,15.4296697
50.13284554,-1.221042871,-14.89911747,-3.816357613,15.4285201
50.13826739,-0.6224924326,-14.80574322,-3.356670856,15.19423471
50.14327193,0.05506663769,-14.75785923,-3.01429987,15.06265067
50.14827693,0.8355764151,-14.68363857,-2.367865562,14.89678546
50.15328177,1.185129881,-14.45140171,-1.802833915,14.61156235
50.15828862,1.352723956,-14.12339592,-1.381454349,14.25512506
50.162844,1.297657371,-13.58948898,-1.051054597,13.69170702
50.16781877,0.8810662031,-12.98136139,-0.7852981687,13.0349037
50.17282239,0.08858546615,-12.52885723,-0.6440402865,12.54571237
50.178276,-1.048660398,-12.45463753,0.0359130241,12.49875891
50.18327962,-1.661576033,-12.57195282,1.125274777,12.73110663
50.18828546,-2.183511972,-12.96220779,2.114080191,13.31374818
50.19328923,-3.093308687,-13.57512379,3.112462282,14.26674335
50.19784885,-3.624821424,-13.92228317,3.667917013,14.84664657
50.2032707,-4.774038315,-14.21676922,4.165910721,15.56479299
50.20827416,-5.91128397,-14.37239265,4.589684486,16.20413998
50.2132787,-6.900089264,-14.53280449,4.582501888,16.72761076
50.21828493,-7.524975777,-14.98291397,3.7181952,17.17375751
50.22284154,-7.951143742,-15.30134296,2.425326347,17.41361511
50.227816,-8.219294548,-16.04354477,0.7086837292,18.04035377
50.23326854,-7.970297337,-16.75222969,-1.024718285,18.57990546
50.23827531,-7.647080421,-17.50400925,-2.717418909,19.29384731
50.24327754,-7.558494568,-17.87750435,-3.287238836,19.68608496
50.24828239,-7.565677166,-17.89905167,-3.404554844,19.7283176
50.25328823,-7.572859764,-17.57583427,-3.416525841,19.44044249
50.25829346,-7.448361397,-16.95812988,-3.325546265,18.81795724
50.26329693,-6.789956093,-16.01481438,-3.227383852,17.6916305
50.26827254,-6.004657745,-15.11459541,-3.351882458,16.60548178
50.27327654,-5.516240597,-14.05635834,-3.768473387,15.56314594
50.27828277,-5.305551052,-13.01248646,-3.739742994,14.54164205
50.28328646,-3.995922565,-12.33971596,-1.125274777,13.01930222
50.28829162,-1.78128612,-12.43069553,3.016694069,12.91493766
50.29329539,0.1987187415,-12.67490387,5.781997204,13.93284497
50.29827131,2.056619167,-12.91671848,4.685452938,13.89333538
50.3032747,2.887407303,-12.82573891,2.468421936,13.37646464
50.30828054,2.968810081,-12.51209831,0.6703764796,12.87695003
50.31328554,3.117250681,-12.18648624,-0.4716577232,12.58769875
50.31829139,3.289633036,-11.67412758,-0.5841852427,12.14282556
50.32329508,3.330334663,-11.09951878,-0.009576806799,11.58837943
50.32830054,2.731784105,-10.34774017,0.55784899,10.71678901
50.33327446,2.207453966,-9.792284966,1.012747288,10.08897195
50.33828031,1.67115283,-9.066842079,1.417367458,9.327877979
50.34328362,1.039083481,-8.176198959,1.778891921,8.431748358
50.348288,0.1675941199,-7.266402245,1.996764183,7.53762274
50.35329416,-0.4046200812,-6.095637321,2.317587137,6.533890258
50.35829962,-0.7350199223,-5.245696068,2.559401512,5.882866446
50.36327377,-0.9935936928,-4.505887508,2.655169725,5.32354928
50.36827816,-1.544260144,-3.876212597,2.667140722,4.952110976
50.37328246,-1.994369984,-3.232172251,2.418143749,4.502429153
50.37828854,-2.030282974,-2.920926094,1.987187386,4.074649912
50.38329346,-1.951274395,-2.717418909,1.520318031,3.674670626
50.38785046,-1.960851192,-2.669534922,1.26413846,3.545334983
50.39282516,-2.169146776,-2.612074137,1.053448796,3.554980084
50.39783039,-2.367865562,-2.408566952,0.7972691655,3.470391938
50.40283539,-2.533065319,-2.394201756,0.7302315235,3.561159928
50.40828639,-2.461239338,-2.535459518,0.7733271718,3.617221166
50.41329162,-2.367865562,-2.717418909,0.8331822157,3.699370954
50.41829685,-2.382230759,-3.004723072,0.9457096457,3.949398797
50.42282339,-2.360682964,-3.177105665,0.8786720037,4.054489975
50.42827531,-2.243366957,-3.315969467,0.8643068075,4.095775271
50.43328,-2.281674147,-3.349488258,1.012747288,4.177411348
50.438287,-2.444479942,-3.263296843,1.15400517,4.237489399
50.443291,-2.535459518,-3.155557871,1.271321058,4.242918533
50.4482957,-2.607285738,-3.08133769,1.393425345,4.270153987
50.45329931,-2.669534922,-2.980781078,1.534683347,4.285641785
50.45827354,-2.693476915,-2.880224705,1.577778935,4.247340181
50.46327908,-2.547430515,-2.813186884,1.697489023,4.157510272
50.46828424,-2.382230759,-2.741360903,1.704671621,4.011980599
50.47284208,-2.164358377,-2.736572504,1.584961534,3.832150743
50.47826647,-2.00873518,-2.774879694,1.419761658,3.708193294
50.48329931,-1.805228114,-2.880224705,1.163581967,3.592835355
50.48827316,-1.788468719,-2.956839085,0.9145850539,3.574630547
50.49327747,-1.917755604,-2.990357876,0.6009446383,3.602937862
50.49828393,-2.099714994,-2.997540474,0.2920926213,3.67142616
50.5032877,-2.243366957,-3.007117271,-0.05267243832,3.752095944
50.50829262,-2.401384354,-3.126827478,-0.6751648784,3.999943063
50.51329747,-2.557007313,-3.227383852,-1.41018486,4.352345835
50.51827224,-2.542642117,-3.402160645,-2.205059767,4.785604931
50.52327693,-2.372653961,-3.670311213,-2.97599268,5.2874572
50.52828031,-2.169146776,-4.067748547,-4.206612587,6.240782437
50.533287,-2.126051188,-4.390965939,-5.42765522,7.297952913
50.53829231,-2.293645144,-4.817133904,-6.785167694,8.631575043
50.54329693,-2.516305923,-5.305551052,-8.111555099,10.01389003
50.5482707,-2.645592928,-6.007051945,-9.670180321,11.68743866
50.553276,-2.549824715,-7.101202011,-11.36767006,13.64377509
50.55828339,-2.353500366,-8.113949776,-12.20324612,14.84231656
50.5632867,-2.343923569,-9.21528244,-12.43069553,15.65048241
50.568291,-1.8602947,-10.29985619,-12.69166279,16.45071543
50.57284762,-1.656787634,-11.57357121,-12.53843403,17.14365257
50.57827039,-2.592920542,-13.85524559,-11.6813097,18.30694031
50.58327508,-2.968810081,-16.13931274,-11.79623222,20.20995655
50.58828,-2.995146275,-18.77532959,-13.30936718,23.20825623
50.59328462,-2.856282711,-21.67470741,-16.13931274,27.17404475
50.59784177,-2.11647439,-24.49268341,-19.46246529,31.35535934
50.60326393,-0.5147533417,-26.12313461,-20.25015831,33.05680028
50.60829847,0.3208230138,-25.20615578,-17.24543571,30.54272859
50.61282554,1.04147768,-22.90772247,-13.2423296,26.480327
50.61783077,1.034295082,-19.28768921,-10.30943298,21.89449999
50.6232827,0.9289502501,-13.72356415,-9.169792175,16.5313112
50.62784085,0.9121908545,-9.351752281,-10.20408726,13.87122055
50.63281562,1.065419793,-5.966350555,-11.34372807,12.86128394
50.63826924,1.256955862,-3.742137194,-11.52568722,12.18297971
50.64327231,1.130063176,-2.097320795,-9.679757118,9.968625541
50.64827693,0.3926490843,-1.968033791,-7.769184589,8.024185908
50.65328216,-0.9433154464,-2.729389906,-6.10042572,6.749415327
50.65828824,-2.940079689,-3.995922565,-4.924872875,6.990410472
50.66329262,-5.501875401,-6.248866558,-3.141192675,8.89865482
50.66829624,-7.307103634,-8.434772491,-1.714248419,11.29060663
50.6732707,-8.726864815,-10.82418633,-0.3375824392,13.90809624
50.67827724,-9.674968719,-13.33330917,1.731007814,16.56437567
50.68328177,-10.61828423,-16.1153717,3.655946016,19.64227854
50.68828585,-10.58237171,-19.9245472,3.75650239,22.87106211
50.69328985,-8.681375504,-22.81434822,1.89860189,24.48398363
50.698296,-6.002263546,-25.13672447,-2.166752577,25.93408764
50.70326893,-2.662352324,-25.7975235,-6.833051682,26.81959981
50.70827447,1.493981838,-22.91490364,-8.372523308,24.4422572
50.71327908,3.505111217,-18.63407135,-4.759673119,19.54914085
50.71828608,2.908955097,-13.64694977,-1.884236693,14.08018486
50.72328893,0.8451532125,-8.46589756,2.616862535,8.901329956
50.72829347,-2.398990154,-3.768473387,9.006986618,10.05397202
50.73329877,-4.994304657,-0.2130839527,9.174580574,10.44803391
50.73827439,-7.575253963,0.7757213712,7.173028469,10.46128834
50.74327808,-9.844957352,1.067813993,3.19865346,10.40647856
50.74828301,-11.10670185,1.218648672,-3.098097086,11.59491855
50.75328793,-10.66856289,0.758961916,-4.484339714,11.59756699
50.75829316,-8.463502884,-0.3926490843,-0.6033388376,8.494060991
50.76329816,-6.313509941,-1.951274395,2.67432332,7.128806686
50.76827193,-4.043806553,-3.892971992,4.254496574,7.043319067
50.77327724,-0.5291185975,-6.337451935,6.962338448,9.429603394
50.77828154,0.4932055473,-9.210494041,11.22401714,14.52773255
50.7832867,-0.4046200812,-10.9055891,14.5878706,18.21816565
50.78829139,-0.9935936928,-12.29901409,15.65807915,19.9356068
50.79329562,-1.347935557,-13.247118,14.98291397,20.04471942
50.79827254,-1.680729628,-13.99410915,12.87601662,19.09061935
50.80282831,-1.436521053,-14.53280449,11.3173914,18.47564199
50.80783293,-0.3016694188,-15.64371395,8.008605003,17.57710285
50.81328454,1.223437071,-16.57505798,4.175487995,17.13662876
50.81829139,4.297592163,-17.55428696,-4.376600742,18.59507792
50.82329562,6.576871872,-17.9900322,-10.85291672,22.01550143
50.82829908,6.43082571,-17.5686512,-12.57674122,22.5430132
50.83327447,4.699818134,-16.38831139,-11.21444035,20.40658504
50.83827939,3.363853455,-14.80813789,-8.240841866,17.27738211
50.84283624,2.353500366,-13.20402241,-5.384559631,14.45263485
50.84784124,1.563413739,-11.91354752,-2.987963676,12.38163171
50.85326247,1.173158884,-10.70208168,-1.929726601,10.9377648
50.85829931,0.8882488012,-9.99100399,-0.7661445141,10.05962843
50.86327285,-0.004788403399,-9.174580574,-0.07661445439,9.174901711
50.86827816,-0.8164227605,-8.664615631,-0.3423708379,8.709726055
50.87328239,-1.984793186,-7.915230751,-0.2896983922,8.165427545
50.87828977,-2.631227732,-7.268796444,0.2968810201,7.736077783
50.88329224,-3.658340216,-6.576871872,0.457292527,7.539748882
50.88829724,-4.601655483,-6.10042572,0.4333505034,7.653640951
50.89282524,-4.697423935,-6.095637321,0.5027823448,7.712028013
50.89827808,-4.656722069,-6.105214119,0.282515794,7.683652454
50.90328247,-4.563348293,-6.076483727,-0.4812345505,7.614419795
50.9082867,-3.758896589,-6.282385349,-1.297657371,7.435158633
50.91329016,-2.968810081,-6.548141479,-1.429338455,7.330415988
50.91829747,-2.061407566,-6.818686485,-1.364694953,7.253018603
50.92327139,-1.235408068,-7.050923824,-1.142034173,7.248862112
50.92827624,-0.6105214357,-7.259219646,-1.017535686,7.355568311
50.93328054,0.05746084079,-7.599195957,-1.173158884,7.689433185
50.93828708,0.4046200812,-7.862558365,-1.283292055,7.976865296
50.9432907,0.6344634295,-8.109161377,-1.37427175,8.24922208
50.94829447,0.7230489254,-8.307879448,-1.462857246,8.466617506
50.95329962,0.7278373241,-8.379706383,-1.419761658,8.530237359
50.95827724,0.6153098345,-8.473079681,-1.383848548,8.607364421
50.96328024,0.5793967843,-8.611943245,-1.201889277,8.714689032
50.96828485,0.5602431893,-8.743624687,-0.8978256583,8.807436404
50.97284216,0.4118026793,-8.82263279,-0.5889736414,8.851854085
50.978264,0.06943184882,-8.860940933,-0.4165911078,8.871000121
50.98329839,-0.2370259613,-8.844181061,-0.3950432837,8.856171811
50.98827316,-0.5913678408,-8.7843256,-0.4620809257,8.816326386
50.99327754,-1.029506683,-8.623914719,-0.5123591423,8.700247179
50.99828431,-1.568202138,-8.300697327,-0.6320692301,8.47114783
51.00328793,-1.826775908,-8.015787125,-0.6488286853,8.246874081
51.00829254,-1.963245392,-7.673416615,-0.7948749661,7.960369415
51.01329747,-1.989581585,-7.438784599,-0.9552865028,7.759286275
51.01827285,-1.953668594,-7.242460251,-0.9337386489,7.559227429
51.02327685,-1.853112102,-7.184999466,-0.7326257229,7.456204278
51.02828239,-1.810016513,-7.165845871,-0.4979939461,7.407665273
51.03328647,-1.728613615,-7.156269073,-0.349553436,7.370378531
51.03829408,-1.642422318,-7.292738438,-0.3806780577,7.485085222
51.04284924,-1.544260144,-7.486668587,-0.5698199868,7.665483725
51.04782331,-1.352723956,-7.757213593,-0.5793967843,7.895563657
51.05282793,-1.091755986,-8.262390137,-0.5817909837,8.35448997
51.05783447,-0.7613561153,-8.755595207,-0.6440402865,8.81220168
51.06328639,-0.3351882398,-9.334992409,-0.8762778044,9.38201989
51.0682907,0.03112462163,-10.01494598,-1.165976286,10.08263916
51.07284739,0.4261679053,-10.49857426,-1.496376038,10.61323804
51.07826985,0.7565677166,-10.9151659,-1.886630893,11.10282025
51.08327478,1.007958889,-11.16655636,-2.219424963,11.42951483
51.08827931,1.177947283,-11.31978607,-2.628833532,11.68057714
51.09328424,1.233013868,-11.20965195,-2.865859509,11.63571101
51.09829008,1.158793569,-11.07078838,-2.978386879,11.52284454
51.10329354,0.9768342972,-10.78827286,-2.913743496,11.217439
51.10829878,0.8571242094,-10.38604736,-2.777273893,10.78507728
51.11327324,0.9576807022,-10.15620327,-2.894589901,10.60397416
51.11828062,1.055842996,-9.976638794,-3.165134668,10.51980055
51.123284,1.139639974,-9.940725327,-3.387795448,10.56380411
51.12828824,1.18752408,-10.04846478,-3.49553442,10.70516785
51.13329193,1.194706678,-10.3405571,-3.174711466,10.88270362
51.13829816,1.326387763,-10.71644688,-2.535459518,11.09189313
51.14327201,1.592144132,-11.18092155,-1.774103403,11.43220769
51.14827685,1.960851192,-11.65018559,-1.084573388,11.8637288
51.15328085,2.449268341,-12.16493893,-0.5051765442,12.41933403
51.1582877,2.863465309,-12.46181965,-0.3663128614,12.79181643
51.16284424,3.19625926,-12.73715305,-0.4070142806,13.13837135
51.16826578,3.426102638,-12.9574194,-0.5554547906,13.41422479
51.17327039,3.473986626,-13.06037045,-0.8044517636,13.53842686
51.17827624,3.349488258,-13.14656162,-1.278503656,13.62665497
51.18328031,3.155557871,-13.12501335,-1.625662923,13.59655474
51.18828431,2.923320293,-13.09867764,-1.927332401,13.55860493
51.19328985,2.640804529,-13.06515884,-2.324769735,13.53058678
51.19829785,2.152387381,-13.05079365,-2.947262287,13.55147008
51.20282208,1.788468719,-13.11543655,-3.318363667,13.64642201
51.20827324,1.168370485,-13.34528065,-3.936067581,13.96260123
51.21327847,0.6320692301,-13.6110363,-4.304774761,14.28953836
51.21828431,0.2082955539,-13.86721611,-4.417302132,14.55526117
51.22328924,-0.3184288144,-14.08508873,-4.218583584,14.7067185
51.22829385,-0.6847416759,-14.18325043,-4.062960148,14.76960084
51.23329878,-0.9864110947,-14.25028896,-3.943250179,14.81866945
51.23827408,-1.091755986,-14.11142445,-3.38061285,14.55172754
51.24327839,-0.9457096457,-13.85285091,-2.384624958,14.08837398
51.24828308,-0.6009446383,-13.75229454,-1.769315004,13.87866042
51.25328701,-0.2226607651,-13.8073616,-1.462857246,13.88642371
51.25829324,0.1292868853,-13.92228317,-1.194706678,13.97404766
51.26329785,0.5195417404,-13.88397598,-1.036689281,13.9323163
51.26827139,0.6703764796,-13.55597019,-0.8714894056,13.60048625
51.27327685,0.2896983922,-13.26627159,-0.4525041282,13.27714755
51.27828308,-0.4285621047,-13.15613842,0.2513911724,13.16551712
51.28328647,-1.072602391,-13.2423296,1.247379065,13.34412693
51.28829078,-1.81959331,-13.64216137,2.533065319,13.99413829
51.29329624,-2.209848166,-14.21916389,3.552995205,14.82200478
51.29827262,-2.85867691,-14.70758057,4.410119534,15.61839025
51.30327662,-3.900154591,-14.94939518,5.204994678,16.30299333
51.30828031,-4.865017891,-15.10980701,5.920860767,16.94199691
51.31328578,-6.098031521,-15.38753414,6.045359135,17.62125315
51.3182907,-6.098031521,-15.38753414,6.045359135,17.62125315
51.32329531,-8.240841866,-15.69159794,4.290409565,18.23582558
51.32830031,-9.131484985,-15.98608494,3.023876667,18.65697617
51.33327447,-9.739612579,-16.68997955,0.5985504389,19.33322873
51.33827939,-9.722852707,-17.45372963,-1.968033791,20.07584867
51.34328431,-9.48343277,-18.07382774,-4.146757126,20.8277301
51.34828893,-8.911218643,-18.41141129,-5.142745018,21.09117611
51.35284708,-8.475474358,-18.50957298,-5.295974255,21.03533458
51.35827039,-7.829039574,-18.10734749,-5.46596241,20.47062869
51.36327508,-7.498639584,-17.38429832,-5.291185856,19.65807904
51.36827808,-7.242460251,-16.19916916,-4.491522312,18.30410021
51.37328208,-6.811503887,-15.17923832,-3.727771997,17.0499896
51.37828708,-6.119579315,-14.29577827,-2.906560898,15.81981744
51.38329224,-5.183446884,-13.31176186,-2.149993181,14.4462312
51.38829716,-4.146757126,-12.23197651,-0.9696516991,12.95210672
51.39327139,-2.645592928,-12.14817905,3.514688015,12.92015666
51.39827685,0.2896983922,-12.79700851,7.905653954,15.04482358
51.40328124,3.134010077,-13.15613842,7.17063427,15.30764492
51.4078387,4.601655483,-13.30218506,3.56496644,14.52006702
51.41281355,4.98233366,-13.26627159,0.4141969085,14.17706492
51.41781847,5.066130638,-12.89038181,-1.165976286,13.89917708
51.42282331,5.092466831,-12.46660805,-1.213860273,13.52120525
51.42827562,4.608838081,-11.70764637,-0.4812345505,12.59134459
51.43328024,3.7181952,-10.89361763,0.2035071403,11.51248434
51.43828831,2.832340717,-10.01015759,0.806845963,10.43438591
51.44328985,2.183511972,-9.184157372,1.371877551,9.539314397
51.44829478,1.268926859,-7.95593214,1.920149803,8.282149894
51.45330031,0.4285621047,-6.864176273,2.296039343,7.250681213
51.45827439,-0.2801215947,-5.786785603,2.41335535,6.276116615
51.4628317,-0.7709329724,-4.915296078,2.494758129,5.565814523
51.46828401,-1.247379065,-4.05338335,2.626439333,4.988391994
51.47328947,-1.508347034,-3.557783842,2.873042107,4.815320092
51.47829478,-1.762132406,-3.124433279,2.777273893,4.536567448
51.4832987,-1.824381709,-2.829946518,2.37744236,4.121795493
51.48827316,-1.733402014,-2.707842112,1.941697598,3.755966055
51.49327785,-1.778891921,-2.631227732,1.805228114,3.65330869
51.49828301,-1.924938202,-2.624045134,1.74776721,3.694007331
51.50328793,-2.152387381,-2.487575531,1.795651317,3.747688235
51.50829193,-2.406172752,-2.319981337,1.666364431,3.73480269
51.51329754,-2.688688517,-2.341529369,1.608903527,3.911569543
51.51827385,-2.868253708,-2.420537949,1.685518026,4.114225846
51.52327785,-2.904166698,-2.533065319,1.810016513,4.257553746
51.52828208,-3.01190567,-2.571372509,1.795651317,4.348321055
51.53328585,-3.186682463,-2.537853718,1.726219416,4.424418615
51.53784393,-3.354276657,-2.444479942,1.666364431,4.472518809
51.54326547,-3.363853455,-2.343923569,1.810016513,4.481701411
51.54827101,-3.308786631,-2.303221941,1.867477298,4.443013812
51.55327501,-3.263296843,-2.260126352,1.853112102,4.380787814
51.55828093,-3.045424461,-2.30801034,1.893813491,4.264745176
51.56328516,-2.770091295,-2.442085743,1.984793186,4.192444699
51.56828955,-2.504334927,-2.523488522,1.920149803,4.040626562
51.57284793,-2.226607561,-2.63601613,1.855506301,3.917813919
51.57827047,-1.965639591,-2.717418909,1.790862918,3.802011904
51.58327439,-1.752555609,-2.808398485,1.577778935,3.667143245
51.58827878,-1.735796213,-2.8969841,1.369483352,3.644309265
51.59283685,-1.886630893,-2.97599268,1.079784989,3.685355367
51.59784339,-2.126051188,-2.93768549,0.7469909191,3.702443129
51.60326393,-2.355894566,-2.925714493,0.2202665508,3.762786448
51.60829908,-2.466027737,-2.894589901,-0.423773706,3.826163568
51.61327447,-2.45166254,-2.959233284,-1.233013868,4.035843659
51.61827847,-2.224213362,-3.191470861,-2.233790159,4.48580314
51.62328278,-1.953668594,-3.450044632,-3.112462282,5.040540685
51.62784062,-1.728613615,-3.780444384,-4.156333923,5.878348106
51.63326178,-1.544260144,-4.173093796,-5.564124584,7.124530413
51.63829693,-1.493981838,-4.747702122,-7.383718014,8.904602679
51.64327162,-1.900996208,-5.339069843,-8.781931877,10.4518793
51.64827747,-2.248155355,-6.007051945,-10.22324085,12.06870039
51.65328147,-2.552218914,-6.849811077,-11.52089882,13.64422379
51.65828647,-2.738966703,-8.183381081,-12.38520527,15.09513081
51.6632917,-2.650381327,-9.423578262,-12.20803452,15.64814542
51.66829662,-2.363077164,-10.40998936,-11.59990692,15.76419528
51.67327047,-1.89860189,-11.5879364,-11.13543224,16.18279365
51.67827785,-1.987187386,-13.95340729,-10.78587818,17.74772258
51.68328001,-2.303221941,-16.27817726,-10.94150162,19.74842637
51.68828547,-3.11964488,-18.72265816,-12.42590714,22.68641181
51.69329016,-3.720589399,-21.23656845,-15.97171974,26.83151983
51.69829508,-3.488351822,-23.98032379,-20.7505455,31.90312941
51.70329939,-2.703053713,-24.63394165,-21.07855225,32.53372013
51.70827439,-2.147598982,-23.75527,-17.95172501,29.8527966
51.71327901,-1.192312479,-21.26529884,-12.84728622,24.87342572
51.71828401,-0.5099649429,-16.45774269,-10.28309631,19.4128676
51.72328916,0.3303998411,-12.35408115,-10.24478912,16.05266923
51.72829408,0.9121908545,-8.621520042,-11.44428444,14.35737951
51.73329878,0.9816226959,-5.15950489,-11.70046329,12.82516726
51.73827324,0.6991068721,-3.548206806,-10.34774017,10.96148934
51.74327778,0.1580173075,-3.325546265,-8.544905663,9.170585598
51.74828239,-1.249773264,-4.630385876,-7.149086475,8.608823613
51.75328824,-4.137180328,-7.419631004,-6.665457726,10.79794017
51.75829447,-6.660669327,-10.0317049,-6.042964935,13.47282615
51.76329716,-9.090784073,-12.67250919,-4.802768707,16.31874479
51.76827101,-11.19528675,-15.19120979,-2.82276392,19.08075723
51.77327632,-12.8401041,-18.08819389,0.7900865674,22.19628952
51.77828124,-12.72278786,-20.28607178,2.8993783,24.12053966
51.78328608,-10.88404083,-22.3019886,2.63601613,24.95575327
51.78829101,-7.220912457,-23.69062614,-0.825999558,24.78042815
51.79329632,-2.315192938,-22.74252129,-3.145981073,23.07551927
51.79827108,0.758961916,-19.72582817,-2.767697096,19.93350113
51.80282885,3.790021181,-16.02199745,-0.7302315235,16.48034893
51.80827993,5.082890034,-12.19127464,1.297657371,13.27203312
51.81328524,3.229778051,-6.852205276,5.647922039,9.448979139
51.81828985,0.3136404157,-3.021482468,8.999804497,9.498642408
51.82329439,-2.662352324,-0.5027823448,9.093177795,9.488244959
51.82830055,-5.827486992,0.586579442,5.875370979,8.296002907
51.83327478,-7.987056732,0.9169792533,0.5410895944,8.05771085
51.83828124,-8.920795441,0.6703764796,-4.254496574,9.906095953
51.84328462,-8.336610794,-0.2849099934,-3.852270603,9.18804887
51.84828947,-6.624756336,-2.296039343,-0.1388636976,7.01273672
51.8528467,-5.133168221,-3.837905407,1.479616642,6.577856741
51.85826832,-1.891419291,-6.641515732,3.861847401,7.912083385
51.86327293,-0.6775590777,-8.722076416,7.079654217,11.25411956
51.86827816,-1.034295082,-10.66616821,10.9247427,15.30316679
51.87328301,-2.312798738,-11.56638813,12.37562847,17.09639004
51.87828801,-2.829946518,-12.19606304,12.47618484,17.67505981
51.88329255,-2.657563925,-12.69405746,11.79623222,17.53148127
51.88829693,-2.11647439,-13.35006905,10.13944435,16.89710446
51.89282401,-1.642422318,-13.89355278,9.004592896,16.63763965
51.89827693,-0.739808321,-14.8823576,6.773196697,16.36789777
51.90328216,0.14844051,-15.7514534,3.67988801,16.17627567
51.90828678,1.9321208,-16.86236191,-3.610456228,17.35245614
51.91329132,2.97599268,-17.13530159,-8.463502884,19.34181931
51.91829808,3.047818661,-16.75941277,-10.01733971,19.76143238
51.92327132,2.286462545,-15.82327938,-8.415618896,18.06728321
51.92827539,1.41257906,-14.2000103,-5.707777023,15.36926773
51.93328055,0.9241618514,-12.76109505,-3.801992416,13.34746299
51.93783839,0.4884171486,-11.56399441,-1.963245392,11.73962736
51.94325932,-0.1364694983,-10.6350441,-0.940921247,10.67745848
51.94829447,-0.6153098345,-9.797073364,-0.8499416113,9.853103747
51.9532997,-0.7350199223,-9.306262016,-1.165976286,9.40777698
51.95827501,-0.9313444495,-8.971074104,-1.632845521,9.165901896
51.96327847,-1.563413739,-8.678980827,-1.951274395,9.031967808
51.96828401,-1.805228114,-8.339004517,-1.381454349,8.64327837
51.97328832,-2.059013367,-8.056488991,-0.9050082564,8.364543672
51.9778467,-2.425326347,-7.673416615,-0.8834604025,8.095926921
51.98326762,-2.956839085,-7.340622425,-1.204283476,8.004869371
51.98827347,-3.426102638,-7.137115479,-1.221042871,8.010464552
51.99327808,-3.711012602,-6.928819656,-0.9552865028,7.917873999
51.99828485,-3.430891037,-6.895300865,-0.5410895944,7.720684249
52.00328824,-2.856282711,-6.718130112,-0.5003881454,7.317240697
52.00829262,-2.217030764,-6.720524311,-0.7326257229,7.114591546
52.0128507,-1.484405041,-6.902483463,-1.055842996,7.138805272
52.01827193,-0.8978256583,-7.146692276,-0.9313444495,7.262830294
52.02327624,-0.3758896589,-7.302315235,-0.8667010069,7.363169933
52.02828155,-0.08619125932,-7.292738438,-1.230619669,7.396342855
52.03328585,0.3136404157,-7.407660007,-1.584961534,7.581813778
52.03829162,0.605733037,-7.553706169,-1.616086125,7.748362651
52.04329624,1.012747288,-7.709329605,-1.577778935,7.934028384
52.04827132,1.209071875,-7.860164165,-1.508347034,8.094389803
52.05327562,1.309628367,-7.989450932,-1.359906554,8.209494411
52.05828055,1.307234168,-8.099584579,-1.240196466,8.297603196
52.06328493,1.177947283,-8.295908928,-1.259350061,8.47323004
52.06828985,1.012747288,-8.360552788,-1.271321058,8.517086193
52.0732947,0.7015010715,-8.382100105,-1.362300754,8.521007527
52.07830247,0.3040636182,-8.35097599,-1.541865945,8.497564667
52.0832747,-0.004788403399,-8.334216118,-1.517923832,8.471320676
52.08828001,-0.3016694188,-8.276755333,-1.386242747,8.397461059
52.09328332,-0.6009446383,-8.195352554,-1.199495077,8.304440161
52.09828862,-1.055842996,-7.967903137,-1.022324085,8.102310249
52.10329439,-1.326387763,-7.821856976,-1.074996591,8.006020779
52.1078507,-1.462857246,-7.716512203,-1.072602391,7.926852326
52.11282493,-1.534683347,-7.630321026,-0.9528923035,7.841240697
52.11827778,-1.587355733,-7.532158375,-0.7086837292,7.730157866
52.12328309,-1.594538331,-7.486668587,-0.4477157295,7.667672945
52.12828832,-1.616086125,-7.529764175,-0.06224924326,7.701490627
52.13284547,-1.553836942,-7.54891777,0.4764461517,7.721888997
52.13826732,-1.465251446,-7.630321026,0.9169792533,7.823657182
52.14282401,-1.395819545,-7.685387611,0.9169792533,7.86475339
52.14827632,-1.271321058,-7.807491779,0.6560112834,7.937476672
52.15328178,-1.165976286,-7.965508938,0.4644751251,8.063781401
52.15828701,-0.988805294,-8.271966934,0.356736064,8.33849108
52.16329132,-0.8643068075,-8.599972725,0.1651999205,8.644874096
52.16829624,-0.672770679,-8.978256226,-0.2633621991,9.00727844
52.17327009,-0.4285621047,-9.332598686,-0.9385270476,9.389456679
52.17782801,-0.1891419291,-9.722852707,-1.8579005,9.900577443
52.18328085,0.174776718,-10.24000072,-3.004723072,10.67316834
52.18828547,0.4740519226,-10.66856289,-3.758896589,11.32131896
52.19284301,0.7852981687,-11.01093388,-4.254496574,11.8303888
52.19781808,1.015141487,-11.25274754,-4.429273129,12.13562111
52.20326947,1.137245774,-11.49456215,-4.173093796,12.28140866
52.20827385,1.067813993,-11.6860981,-3.873818398,12.35765287
52.21327878,0.7302315235,-11.80102062,-3.591302633,12.35697295
52.21783693,0.4716577232,-11.85608673,-3.490746021,12.36828854
52.22328885,0.03351882473,-11.78904915,-3.481169224,12.2923286
52.22829355,-0.2992752194,-11.62145519,-3.404554844,12.11357834
52.23329901,-0.4333505034,-11.27908421,-3.406949043,11.79037043
52.23827439,-0.3399766386,-10.99656868,-3.354276657,11.50179459
52.24327808,-0.2226607651,-10.74517727,-3.203441858,11.21474262
52.24828301,0.1651999205,-10.53927612,-2.798821688,10.90582574
52.25328793,0.8906430602,-10.39083576,-1.934514999,10.6068403
52.25829378,1.549048543,-10.38844109,-1.168370485,10.56808162
52.26329755,2.173935175,-10.44350815,-0.4620809257,10.6773768
52.26827193,2.688688517,-10.57518864,0.03112462163,10.911674
52.27327747,3.232172251,-10.92234802,0.3639186621,11.39636173
52.27828147,3.531447411,-11.28626728,0.3926490843,11.83237606
52.28283878,3.701435804,-11.71482849,0.1221042871,12.28628272
52.28826085,3.655946016,-12.14578533,-0.4357447028,12.6915687
52.29284801,3.430891037,-12.52406883,-1.206677675,13.04144871
52.29827132,2.932897091,-13.04121685,-2.236184359,13.55270242
52.30327593,2.272097349,-13.41231823,-2.987963676,13.92769305
52.3082797,1.393425345,-13.78341961,-3.459621429,14.2791201
52.31328647,0.3471592367,-14.2143755,-3.739742994,14.70219943
52.31829293,-0.3327940404,-14.39633465,-4.012681961,14.94880663
52.32329501,-0.873883605,-14.4849205,-4.249708176,15.12073457
52.32829901,-1.434126854,-14.4944973,-4.302380562,15.1874175
52.3332747,-1.74776721,-14.44182491,-4.266467571,15.15993874
52.33827908,-1.8579005,-14.41069984,-4.285621166,15.14881557
52.34328432,-1.771709204,-14.36042213,-4.395754337,15.12227938
52.34828893,-1.350329757,-14.11860752,-4.218583584,14.79712527
52.35329386,-1.065419793,-13.9055233,-4.024652958,14.51538939
52.35829786,-0.6584054828,-13.6254015,-3.509899616,14.08561177
52.36327347,-0.4477157295,-13.49850941,-2.985569477,13.83198578
52.36827808,-0.356736064,-13.247118,-2.346317768,13.45803117
52.37328339,-0.2849099934,-12.97896767,-1.991975784,13.13402996
52.37828732,-0.4548983276,-12.60547161,-1.582567334,12.71256726
52.38329262,-0.9840168953,-12.20803452,-1.288080573,12.3151755
52.38829747,-1.944091797,-11.68849277,-0.720654726,11.87096034
52.39327232,-2.238578558,-11.53286934,-0.09816227108,11.74852948
52.39827901,-2.130839586,-11.85129833,0.7637503147,12.06553207
52.40328186,-1.879448295,-12.61504841,1.592144132,12.85327566
52.40828701,-1.97042799,-13.70201588,2.760514498,14.11553279
52.41329078,-2.288856745,-14.47773743,3.248931646,15.0133042
52.41829662,-2.602497339,-15.07868195,3.914519787,15.79440112
52.42282332,-2.892195702,-15.5311861,4.726154327,16.48996884
52.42827501,-3.632004023,-15.76342392,5.202600479,16.99247006
52.43328055,-4.38378334,-15.79694271,4.795586109,17.08094264
52.43783755,-5.42765522,-15.90707588,3.971980572,17.2705279
52.44325901,-6.624756336,-16.38352203,2.813186884,17.89472579
52.44829509,-7.61356163,-17.30768394,0.7709329724,18.92396845
52.45285286,-7.852981567,-18.06185722,-1.060631394,19.72371529
52.45782762,-7.608773232,-18.49999619,-2.71263051,20.18667019
52.46327932,-6.643909931,-18.56703377,-4.141968727,20.15024037
52.46783601,-5.861005783,-18.34676743,-4.453215122,19.7683178
52.47328947,-4.65193367,-17.65963173,-4.220977783,18.7435251
52.47784824,-4.156333923,-16.62294197,-4.862623692,17.81130036
52.48326862,-3.16034627,-15.51203251,-4.814739704,16.54668122
52.48827293,-2.695871115,-14.57590008,-4.273650169,15.42688141
52.4932787,-2.643198729,-13.66849709,-3.282450438,14.30345388
52.49828216,-1.802833915,-12.99572659,-1.26653266,13.18116932
52.50328732,-0.1029506698,-12.73715305,2.547430515,12.98980635
52.50829286,1.201889277,-12.71799946,3.617638826,13.27702372
52.51329786,2.133233786,-12.57195282,2.863465309,13.06920494
52.51827201,2.169146776,-12.29662037,2.068590164,12.65666368
52.52327601,1.805228114,-11.97340298,1.230619669,12.17109905
52.52828124,1.89860189,-11.71004009,0.282515794,11.8663197
52.53328616,1.927332401,-11.31978607,0.3639186621,11.48845524
52.5378437,1.977610588,-10.87685871,0.8307880163,11.08635232
52.5428187,1.443703651,-10.30464458,1.118092179,10.46518563
52.54827009,0.9026140571,-9.653421402,1.333570361,9.78681086
52.55282732,0.5195417404,-9.090784073,1.580173135,9.241711195
52.55828239,-0.004788403399,-8.334216118,1.8602947,8.539313649
52.56283786,-0.4955997467,-7.572859764,2.224213362,7.908283581
52.56826024,-0.9289502501,-6.646304131,2.49236393,7.158783774
52.57329539,-1.280897856,-5.944802761,2.506729126,6.577618877
52.57830032,-1.623268723,-5.087678432,2.461239338,5.880235732
52.58327409,-1.802833915,-4.426878929,2.645592928,5.463206853
52.58827993,-1.965639591,-3.845088005,2.664746523,5.074378267
52.59328393,-2.030282974,-3.38061285,2.217030764,4.52391618
52.59784155,-2.178723574,-3.124433279,1.642422318,4.148068321
52.60326339,-2.463633537,-3.026270866,1.321599364,4.120003694
52.60829839,-2.497152328,-2.97359848,1.192312479,4.061978178
52.61327316,-2.485181332,-2.846705914,1.034295082,3.917860019
52.61783101,-2.475604534,-2.758120298,0.8690952063,3.806727186
52.62283539,-2.516305923,-2.803610086,0.7541735172,3.84197901
52.62784124,-2.614468336,-2.920926094,0.5267243981,3.955337219
52.63281501,-2.614468336,-3.11964488,0.4405331016,4.094105308
52.63826762,-2.525882721,-3.256114244,0.4333505034,4.143688713
52.64327224,-2.597708941,-3.423708439,0.5793967843,4.336539156
52.64827632,-2.585737944,-3.512293816,0.7086837292,4.418651512
52.65328093,-2.583343744,-3.49553442,0.8810662031,4.434941199
52.65828578,-2.834734917,-3.466804028,1.031900883,4.595570873
52.66329163,-2.954444885,-3.445256233,1.223437071,4.700567344
52.66829662,-3.01429987,-3.330334663,1.347935557,4.689782824
52.67327101,-3.002328873,-3.213018656,1.453280449,4.631359585
52.67827539,-2.8969841,-3.098097086,1.572990537,4.523828209
52.68328086,-2.770091295,-2.97599268,1.594538331,4.367206281
52.68828516,-2.604891539,-2.875436306,1.55862534,4.181256609
52.69328986,-2.434903145,-2.825158119,1.436521053,3.996731722
52.69829539,-2.300827742,-2.734178305,1.335964561,3.815015151
52.70330055,-2.195482969,-2.719813108,1.240196466,3.708856439
52.70827439,-2.195482969,-2.765302896,1.048660398,3.683304794
52.71327963,-2.219424963,-2.82276392,0.7134721279,3.660995191
52.71828586,-2.30801034,-2.873042107,0.2944868207,3.69702653
52.72328832,-2.480392933,-2.892195702,-0.2873041928,3.820953909
52.72829293,-2.545036316,-2.949656487,-0.9576807022,4.011836932
52.7332987,-2.52827692,-3.076549292,-1.891419291,4.408492562
52.73827355,-2.243366957,-3.251325846,-2.679111719,4.772992213
52.74327809,-1.8602947,-3.507505417,-3.715801001,5.437873453
52.74828239,-1.572990537,-3.787626982,-4.951209068,6.429221463
52.75328801,-1.350329757,-4.302380562,-6.50744009,7.91711093
52.75829255,-1.37666595,-4.876988888,-7.793126583,9.295862073
52.76329786,-1.544260144,-5.657498837,-9.141061783,10.86052683
52.7682717,-1.771709204,-6.562506676,-10.52012253,12.52511179
52.77327716,-2.130839586,-7.874529362,-12.71321106,15.10544357
52.77828086,-2.513911724,-9.224859238,-13.59906578,16.62384944
52.78328586,-2.877830505,-10.73081207,-12.96220779,17.071938
52.78829132,-3.100491285,-12.03325748,-11.20007515,16.72883783
52.7932957,-3.476380825,-13.45301914,-9.042900085,16.57838924
52.79827316,-4.30956316,-15.24627686,-8.77235508,18.11009404
52.80327716,-5.365406036,-17.24304008,-10.07719517,20.67993897
52.80827993,-5.865794182,-19.2182579,-12.74194145,23.79298321
52.81328555,-5.219359875,-21.58612251,-17.18318558,28.07960593
52.81829047,-3.663128614,-22.79519463,-19.7090683,30.35600077
52.8232947,-2.513911724,-22.78082848,-19.94848824,30.38466852
52.8282997,0.06464344263,-21.39458656,-16.16804314,26.81675096
52.83327439,1.886630893,-18.8160305,-12.46181965,22.64728083
52.83827932,2.681505919,-14.72194672,-9.768342972,17.87027458
52.8432837,3.687070608,-10.25675964,-8.997409821,14.13325835
52.84828947,4.786009312,-5.896918774,-10.46266174,12.92852764
52.85329355,4.953603268,-3.620033026,-11.52808094,13.05907633
52.85829778,4.477157116,-2.264914751,-11.23359394,12.30318688
52.86327347,3.586514235,-1.843535304,-9.730035782,10.53258293
52.8682787,2.264914751,-2.561795712,-7.55131197,8.289448025
52.87328301,0.7972691655,-3.912125587,-6.50744009,7.634601578
52.8778427,-1.094150186,-5.530605793,-5.808333397,8.094535312
52.88326278,-3.143586874,-7.35977602,-4.932055473,9.400724051
52.88829809,-5.27442646,-9.780313492,-3.337517262,11.60228977
52.89327101,-6.363788128,-11.73637676,-1.568202138,13.44245501
52.89827662,-7.000645638,-13.58709431,0.9768342972,15.31575582
52.90328247,-7.273584843,-15.61737728,3.596091032,17.5994142
52.90783878,-7.838616371,-17.89905167,4.388571739,20.02696979
52.91326086,-7.529764175,-21.14319611,2.669534922,22.60217925
52.91829624,-6.007051945,-23.98511314,-0.5075707436,24.73111307
52.92282278,-4.472368717,-26.75520325,-4.311957359,27.46699763
52.92827624,-1.371877551,-28.37847328,-7.929595947,29.49742846
52.93328116,1.118092179,-26.16383553,-7.424419403,27.21981673
52.93828578,1.663970232,-21.38740349,-5.566518784,22.16248985
52.94329016,0.9241618514,-14.68603325,-1.314416766,14.77367047
52.9478477,-0.6368576288,-10.29267311,4.680664539,11.32489858
52.95326986,-3.624821424,-3.653551817,10.40520096,11.60844426
52.95827601,-6.131550789,-0.3519476354,8.607154846,10.57368889
52.96327963,-9.943120003,1.692700624,3.677493811,10.7356803
52.96783693,-11.52568722,2.188300371,-0.9289502501,11.76830799
52.97328855,-12.15536213,2.310404539,-6.624756336,14.03489202
52.97829416,-10.36449909,1.618480325,-4.228160381,11.31015739
52.98329878,-7.354987621,0.2442085743,0.5147533417,7.377021875
52.98827386,-4.958391666,-1.177947283,2.418143749,5.640977478
52.99327778,-2.185906172,-3.265691042,3.861847401,5.509699549
52.99828309,0.3016694188,-5.679046631,6.866570473,8.915849098
53.00328763,1.414973259,-8.142680168,12.78743172,15.22576105
53.00829347,0.7350199223,-9.576807022,15.5551281,18.28161637
53.01329662,-0.6081272364,-10.7188406,16.00763321,19.27453459
53.01827193,-1.446097851,-11.86087513,15.20078659,19.33482534
53.02327716,-1.292868972,-13.15613842,13.40992355,18.83033558
53.02828147,-0.8810662031,-14.13297272,11.46343803,18.21888051
53.0328384,-0.2585737705,-15.14093113,8.726864815,17.4777809
53.0378154,0.988805294,-16.10818863,4.292803764,16.69968985
53.04281816,3.806780815,-17.12811852,-4.374206543,18.08307792
53.04782278,6.387730122,-17.87989807,-13.63976669,23.37813266
53.0532754,5.832275391,-17.64047813,-14.5878706,23.62219028
53.05828032,4.034229755,-16.65406609,-11.20007515,20.47131188
53.06283786,3.191470861,-15.26303577,-8.51617527,17.76713225
53.06781224,1.515529633,-13.45780754,-4.75488472,14.35333907
53.0732637,0.6368576288,-12.25831223,-3.179499865,12.67994581
53.07830032,-0.2657563984,-10.96544361,-1.927332401,11.13670464
53.0828267,-0.739808321,-10.30943298,-1.017535686,10.3859089
53.08827909,-1.731007814,-9.325415611,-0.3926490843,9.492836124
53.09283663,-2.585737944,-8.571242332,-0.4548983276,8.964327544
53.09784124,-3.622427225,-7.702147007,-0.3184288144,8.517420057
53.10326332,-4.611232281,-6.658275127,0.6200982332,8.122845107
53.10829932,-5.073313236,-6.107608318,0.457292527,7.953018485
53.11327316,-5.456385612,-5.628767967,-0.2298433632,7.842703663
53.11827909,-6.105214119,-5.339069843,-1.137245774,8.189788409
53.12283593,-5.937620163,-5.346252441,-1.343147159,8.101962272
53.12784055,-5.262455463,-5.57848978,-1.161187768,7.756374331
53.1332624,-4.38617754,-5.91128397,-0.9457096457,7.421333999
53.13829786,-3.05021286,-6.368576527,-0.7086837292,7.096816053
53.1432714,-2.15478158,-6.775590897,-0.806845963,7.155607316
53.14827601,-1.211466074,-7.196970463,-1.051054597,7.373516777
53.15328178,-0.3184288144,-7.536946774,-1.122880578,7.626783357
53.15783878,0.3687070608,-7.84340477,-1.039083481,7.920520044
53.16326024,0.988805294,-8.133103371,-1.00317049,8.254178177
53.16829624,1.323993564,-8.410830498,-1.084573388,8.583200339
53.17327101,1.659181833,-8.66940403,-1.094150186,8.894302402
53.17782793,1.800439715,-8.937555313,-1.177947283,9.192879742
53.18328093,1.948880196,-9.141061783,-1.130063176,9.414573135
53.18828463,1.915361404,-9.217676163,-1.007958889,9.46837601
53.1932907,1.683123827,-9.248801231,-1.015141487,9.455355217
53.19829693,1.379060149,-9.248801231,-1.096544385,9.415122979
53.20326947,0.9361328483,-9.220070839,-1.209071875,9.346010153
53.20827509,0.4501099288,-9.088389397,-1.252167463,9.185278664
53.2132797,0.0359130241,-8.892065048,-1.22822547,8.976561055
53.21828363,-0.2849099934,-8.798690796,-1.297657371,8.898429529
53.22328855,-0.6081272364,-8.700529099,-1.304839969,8.818822635
53.22829347,-0.9337386489,-8.547300339,-1.26413846,8.690584387
53.2332987,-1.345541358,-8.38928318,-1.156399369,8.574836052
53.23827286,-1.601720929,-8.204929352,-1.027112484,8.422667966
53.24327816,-1.764526606,-7.991845131,-0.9337386489,8.237415287
53.24828309,-1.855506301,-7.788338184,-0.9337386489,8.060582062
53.25328863,-1.769315004,-7.546523571,-1.130063176,7.833105155
53.25829316,-1.520318031,-7.388506413,-1.108515382,7.624316381
53.26329724,-1.331176162,-7.369352818,-0.8714894056,7.539156764
53.26827163,-1.110909581,-7.486668587,-0.4955997467,7.58484975
53.27327663,-0.9002198577,-7.800309181,-0.05985504389,7.852311872
53.27828455,-0.7326257229,-8.171410561,0.08140286058,8.204591241
53.28328732,-0.5841852427,-8.61912632,0.02154781483,8.638927898
53.2882914,-0.5243301988,-9.083600998,-0.1939303428,9.10078778
53.29329601,-0.4812345505,-9.569623947,-0.8451532125,9.618917462
53.29782401,-0.4525041282,-9.923966408,-1.630451322,10.06718634
53.3032747,-0.3782838583,-10.23521233,-2.533065319,10.55078622
53.30828155,-0.09816227108,-10.42195988,-3.574543238,11.01835935
53.31328547,0.1580173075,-10.60391903,-4.122815132,11.37829833
53.3182904,0.4764461517,-10.66137981,-4.417302132,11.55008998
53.32329447,0.7254431248,-10.6398325,-4.486733913,11.56992154
53.32829963,0.873883605,-10.56321812,-4.189853191,11.39737335
53.33282647,0.8643068075,-10.46505547,-3.730166197,11.14354306
53.33783109,0.7086837292,-10.27351952,-2.734178305,10.6547251
53.34328424,0.5602431893,-10.12986755,-1.927332401,10.32679521
53.34828893,0.6177040339,-10.0412817,-1.304839969,10.14453073
53.35329447,0.7996633649,-10.00058079,-0.8786720037,10.07090572
53.35785201,1.07739079,-9.99100399,-0.7948749661,10.08031536
53.36282609,1.398213744,-9.986215591,-0.8930372596,10.12309335
53.36783009,1.788468719,-9.967061996,-1.051054597,10.1806513
53.37328247,2.245761156,-10.11550236,-1.302445769,10.44333261
53.3782874,2.56658411,-10.39322948,-1.534683347,10.81488909
53.3832917,2.798821688,-10.79784966,-1.630451322,11.27321301
53.38829724,2.844311714,-11.33893967,-1.534683347,11.79054345
53.39327132,2.772485495,-11.76510715,-1.321599364,12.15940159
53.39827693,2.609679937,-12.17212105,-1.173158884,12.50388987
53.40328155,2.363077164,-12.57195282,-1.249773264,12.85301772
53.4082864,2.001552582,-12.89995861,-1.371877551,13.12620253
53.4128437,1.663970232,-13.12980175,-1.503558636,13.31995419
53.41826586,1.316810966,-13.34528065,-1.74776721,13.52350535
53.42282309,0.9385270476,-13.50329781,-2.26970315,13.72484743
53.42827601,0.4094084799,-13.71159267,-3.009511471,14.04395059
53.43328093,-0.05985504389,-13.87200451,-3.500322819,14.30693369
53.43828701,-0.6488286853,-13.98453236,-3.79480958,14.5047821
53.44329047,-1.249773264,-14.04678154,-4.007893562,14.66073721
53.4478477,-1.501164436,-14.13297272,-4.106055737,14.79371847
53.45326924,-1.647210717,-14.30535507,-4.170699596,14.99170511
53.4578267,-1.41018486,-14.53519821,-3.852270603,15.10299961
53.46327901,-0.8523358107,-14.75785923,-2.801215887,15.04552079
53.46828401,-0.4405331016,-14.93981838,-2.015917778,15.08165002
53.47328893,0.09816227108,-15.14332581,-1.407790542,15.20893903
53.47784555,0.5746083856,-15.27740097,-1.22822547,15.33746045
53.4832677,1.017535686,-15.23191166,-1.379060149,15.32802396
53.48827347,1.039083481,-14.86559868,-1.537077546,14.98093208
53.4932784,0.5913678408,-14.34366226,-1.666364431,14.45223628
53.4982827,-0.1268926859,-13.85045719,-1.477222443,13.92958909
53.50284063,-1.04147768,-13.6206131,-0.9193734527,13.69127549
53.5082624,-2.387019157,-13.55357552,0.1628057212,13.76313102
53.5128507,-3.251325846,-13.6206131,1.230619669,14.05726309
53.51827447,-3.56496644,-13.97256088,2.080561161,14.56949478
53.52327663,-3.981557369,-14.26225948,2.8969841,15.08831871
53.52828147,-4.587290287,-14.25986576,3.349488258,15.34946498
53.53328616,-5.499481201,-14.15930843,3.622427225,15.61577048
53.53829193,-6.868964672,-14.08269405,3.833117008,16.13064579
53.54329655,-7.905653954,-14.2143755,3.730166197,16.68717996
53.54827017,-8.705317497,-14.51125622,3.043030262,17.19357854
53.55327655,-9.40681839,-14.96854877,1.759738207,17.76632667
53.55828178,-9.99100399,-15.68202114,-0.6129156351,18.60434394
53.56328486,-9.761159897,-16.21592903,-2.430114746,19.08250651
53.56828978,-9.277531624,-16.57505798,-3.512293816,19.31686693
53.57284793,-8.765172005,-16.68519211,-3.818751812,19.23035989
53.57826924,-8.099584579,-16.49604988,-3.665522814,18.73923663
53.58327386,-7.663839817,-16.0555172,-3.684676409,18.16840426
53.58783201,-7.35977602,-15.452178,-3.677493811,17.50600094
53.59283686,-6.675034523,-14.87517548,-3.545812607,16.68531445
53.59784363,-5.748478413,-14.11860752,-3.574543238,15.65750433
53.60326332,-4.903325081,-13.08431244,-3.883395195,14.50250279
53.60829809,-4.661510944,-12.28225517,-3.663128614,13.63825457
53.61282586,-3.16034627,-12.13620853,-1.805228114,12.67020894
53.61827817,-0.8690952063,-12.17930412,1.319205165,12.28133045
53.62283624,0.895431459,-12.58392429,4.517858505,13.40029827
53.62828709,3.102885485,-12.86165142,4.604049683,14.00882754
53.63284517,4.290409565,-12.8496809,2.217030764,13.72724076
53.63781994,4.620809078,-12.74433517,0.4429273009,13.56341182
53.64327163,4.666299343,-12.52167511,-0.653617084,13.37886065
53.64827694,4.419696331,-12.22479343,-1.249773264,13.05914329
53.65328247,4.378994942,-11.87045193,-0.5482721925,12.66427369
53.65828586,3.94085598,-11.18092155,0.09576806426,11.85548498
53.66329109,3.203441858,-10.57279491,0.4094084799,11.05502815
53.66829563,2.202665567,-9.9526968,0.739808321,10.22033393
53.67327017,0.8810662031,-9.17697525,1.04147768,9.27781376
53.67827809,-0.0023942017,-7.943961143,1.309628367,8.051189405
53.68328055,-0.3782838583,-7.13232708,2.054224968,7.431892657
53.68828555,-0.8116343617,-6.349422932,2.398990154,6.835866855
53.69329016,-1.477222443,-5.379771233,2.334346771,6.047586255
53.69829563,-2.020706177,-4.649539471,2.248155355,5.545779769
53.70330001,-2.45166254,-4.003105164,2.236184359,5.199617356
53.70827409,-2.774879694,-3.517082214,2.073378563,4.936468706
53.71327878,-3.201047659,-3.193865061,1.321599364,4.711061984
53.7182834,-3.224989653,-3.088520288,0.8451532125,4.544645177
53.72284178,-3.047818661,-3.047818661,0.5602431893,4.346523853
53.7282634,-2.944868088,-3.033453465,0.4548983276,4.25217832
53.73329901,-2.85867691,-3.021482468,0.2896983922,4.169570138
53.73827255,-2.683900118,-3.057395458,0.3088520169,4.079997108
53.74327809,-2.602497339,-3.107673883,0.3543418646,4.06892953
53.74828309,-2.683900118,-3.15795207,0.3447650373,4.158707017
53.75284032,-2.695871115,-3.287238836,0.3734954596,4.267687792
53.75826247,-2.647987127,-3.356670856,0.538695395,4.309207328
53.76329717,-2.592920542,-3.361459255,0.7948749661,4.319082249
53.76827294,-2.561795712,-3.287238836,1.022324085,4.291140055
53.77327686,-2.626439333,-3.100491285,1.268926859,4.256924377
53.7782824,-2.731784105,-2.942473888,1.414973259,4.25710539
53.78328647,-2.870647907,-2.758120298,1.498770237,4.253722982
53.7882917,-2.961627483,-2.504334927,1.594538331,4.19350489
53.79329632,-2.918531895,-2.387019157,1.616086125,4.102124235
53.7982704,-2.78924489,-2.245761156,1.604115129,3.923839392
53.80327532,-2.545036316,-2.205059767,1.520318031,3.694707748
53.80827963,-2.217030764,-2.264914751,1.388636947,3.460256754
53.81328555,-1.963245392,-2.296039343,1.213860273,3.255700523
53.81829017,-1.778891921,-2.358288765,1.048660398,3.134592636
53.82284678,-1.692700624,-2.41335535,0.8834604025,3.077340042
53.82826947,-1.695094824,-2.470816135,0.5889736414,3.053713933
53.83327532,-1.771709204,-2.485181332,0.3208230138,3.068877182
53.83783324,-1.829170108,-2.499546528,-0.04548983276,3.097687114
53.84328424,-1.833958507,-2.56658411,-0.3926490843,3.178825428
53.84828832,-1.831564307,-2.710236311,-0.9768342972,3.413826873
53.85329294,-1.872265697,-2.870647907,-1.704671621,3.827780503
53.8582994,-1.838746905,-3.088520288,-2.523488522,4.391803966
53.86282524,-1.673547029,-3.332728863,-3.536235809,5.139338968
53.86827717,-1.352723956,-3.706224203,-4.967968464,6.344026372
53.8732827,-0.9983820915,-4.153939724,-6.256049156,7.57562757
53.87828794,-0.7062895298,-4.79079771,-7.747636795,9.136545491
53.88329294,-0.4525041282,-5.57848978,-9.248801231,10.81039465
53.88829717,-0.09337386489,-6.938396454,-11.02051067,13.0231225
53.89282394,0.04548983276,-8.274360657,-12.30380249,14.82736218
53.89782917,0.08619125932,-9.890447617,-12.9478426,16.29340391
53.90328155,-0.215478152,-11.5927248,-12.51688671,17.06195042
53.9082864,-0.5889736414,-13.85045719,-11.79144382,18.19945609
53.91329163,-0.7230489254,-15.90228748,-12.13142014,20.01441734
53.91829747,-1.060631394,-18.44732475,-13.34049225,22.79029317
53.9228234,-1.55862534,-21.33712578,-15.34443855,26.32781882
53.92782824,-2.525882721,-24.35621452,-18.7178688,30.8214841
53.93328063,-2.918531895,-27.04250908,-21.3299427,34.5656127
53.93783871,-2.422932148,-27.23404503,-19.51034927,33.58894964
53.94325963,-2.829946518,-24.83744812,-15.10501862,29.2073452
53.94829501,-3.136404276,-21.34430885,-12.2559185,24.81177322
53.95330024,-3.373430252,-16.88630486,-10.58476543,20.21298055
53.9578264,-3.01429987,-11.92312431,-10.13226128,15.93454159
53.96283171,-1.900996208,-7.599195957,-10.41956615,13.03567891
53.96828394,-0.9074024558,-3.497928619,-10.3214035,10.9357329
53.97328924,-0.5889736414,-1.37666595,-9.172186852,9.293605905
53.97829417,-0.7709329724,-0.2992752194,-7.481880188,7.527445413
53.98329809,-1.750161409,-0.7805097699,-5.509057999,5.832836402
53.98827286,-3.191470861,-2.315192938,-4.343081951,5.865830328
53.99327747,-5.011064053,-4.288015366,-3.711012602,7.567658373
53.99828486,-7.017405033,-6.421248913,-2.865859509,9.934262012
54.00328763,-9.145850182,-9.162610054,-1.745373011,13.06316675
54.00829201,-10.62307262,-11.34133339,-0.8619126081,15.56336751
54.01285047,-11.64300251,-13.55118179,0.5985504389,17.87602579
54.01782486,-11.48498535,-15.88074017,2.085349798,19.7091725
54.02327724,-10.36689377,-18.97165489,2.248155355,21.73592368
54.02828247,-8.662221909,-21.32275963,-0.3256114423,23.01738885
54.03328617,-5.963956356,-23.31952477,-4.805162907,24.54503211
54.0382914,-1.915361404,-23.99947739,-9.662998199,25.94257232
54.04329601,1.8602947,-22.3019886,-10.16578007,24.5801236
54.04827101,4.405331135,-19.51753235,-7.534552574,21.38014251
54.05327509,4.824316502,-15.78257751,-4.402936935,17.08068021
54.05828024,2.964021683,-10.3453455,1.209071875,10.82928681
54.06328463,0.9983820915,-6.210559368,6.030993938,8.71439627
54.06784247,-1.647210717,-3.038241863,8.750806808,9.408551247
54.07326463,-4.268861771,-1.079784989,8.274360657,9.373055037
54.07827263,-6.892906666,0.04070143029,5.039794445,8.538931254
54.08327386,-8.125920296,0.2513911724,0.9864110947,8.1894313
54.08827817,-8.236053467,-0.08619125932,-1.26413846,8.332949759
54.09328371,-7.366958618,-0.9768342972,-0.4285621047,7.443785999
54.09828917,-5.190629482,-2.71502471,1.52510643,6.05309369
54.10329447,-3.098097086,-4.5394063,2.52827692,6.049512319
54.10785109,-1.218648672,-6.505045891,3.885789394,7.674639135
54.11282617,0.02394201607,-8.341399193,6.488286495,10.56775167
54.11783009,0.2896983922,-9.765948296,9.47146225,13.60758128
54.12328301,-0.2226607651,-11.16655636,11.54484081,16.06315374
54.12783971,-0.3591302633,-12.09071827,11.77229023,16.87901834
54.13281532,-0.5650315881,-12.90235329,10.81700325,16.84629159
54.13781994,-0.6200982332,-13.49132633,9.016563416,16.23880611
54.14282463,-0.0287304204,-14.1952219,6.519411087,15.6207513
54.14782863,1.15400517,-14.92305946,4.522646904,15.63597668
54.15283471,2.667140722,-15.78257751,1.326387763,16.06121717
54.15784024,4.338293552,-16.55111694,-3.426102638,17.44988373
54.16326117,5.025429249,-16.83123779,-6.900089264,18.87211532
54.16784955,4.295197964,-16.40028191,-7.668628216,18.60714462
54.17282247,2.79163909,-15.33486176,-6.868964672,17.03331763
54.1782754,1.156399369,-13.55118179,-5.123591423,14.53351219
54.18328094,0.2705447972,-12.22718811,-3.699041605,12.77733276
54.18783694,-0.624886632,-11.08994198,-2.585737944,11.40453143
54.19325932,-1.616086125,-10.02452278,-1.666364431,10.28977948
54.19829478,-2.102109194,-9.461885452,-1.309628367,9.78065774
54.20330024,-2.595314741,-9.02374649,-1.144428372,9.459036718
54.20827347,-3.134010077,-8.611943245,-1.242590666,9.248330508
54.21328001,-3.775655985,-8.063671112,-1.529894829,9.034320567
54.21828371,-4.441244125,-7.584830761,-1.501164436,8.916714738
54.22284147,-5.056553841,-7.108384609,-1.034295082,8.784511074
54.22826309,-5.226542473,-6.866570473,-0.3758896589,8.637582377
54.23329786,-5.154716492,-6.703764915,-0.7781155705,8.492174633
54.23827563,-5.372588634,-6.600813866,-1.07739079,8.578824117
54.24327755,-5.281609058,-6.560112476,-0.8475474119,8.464561806
54.2482827,-4.249708176,-6.727706909,-0.5674257874,7.977720969
54.25328794,-2.705447912,-7.089231014,-0.5410895944,7.607195457
54.25829232,-1.714248419,-7.491456985,-0.7230489254,7.719026827
54.26284986,-1.247379065,-7.608773232,-1.029506683,7.77877038
54.2682714,-0.7661445141,-7.673416615,-0.9385270476,7.76847044
54.27282948,-0.4620809257,-7.831433773,-0.7709329724,7.882842848
54.27828094,0.1556231081,-8.027758598,-0.55784899,8.048622377
54.28328617,0.6344634295,-8.161833763,-0.6272808313,8.210454035
54.28829163,1.046266198,-8.310274124,-1.07739079,8.44488602
54.29329601,1.280897856,-8.415618896,-1.48679924,8.641406871
54.29827078,1.278503656,-8.449137688,-1.776497602,8.728026294
54.30327563,1.240196466,-8.573636055,-1.936909199,8.876764034
54.30783317,1.144428372,-8.664615631,-2.023100376,8.970965136
54.31328578,1.024718285,-8.755595207,-1.929726601,9.024097725
54.31829317,0.7781155705,-8.793902397,-1.900996208,9.030612925
54.32329601,0.4692635238,-8.81066227,-1.884236693,9.022102072
54.32826948,0.1580173075,-8.841787338,-1.824381709,9.029426417
54.3332744,-0.08858546615,-8.774748802,-1.613691926,8.922335208
54.33827848,-0.4189853072,-8.59278965,-1.328781962,8.705012588
54.3432834,-0.8499416113,-8.374917984,-1.201889277,8.503304641
54.34828886,-1.302445769,-8.07324791,-1.15400517,8.258657562
54.35329386,-1.462857246,-7.852981567,-1.130063176,8.067608915
54.35829809,-1.517923832,-7.584830761,-1.060631394,7.807604587
54.36282609,-1.405396342,-7.390900612,-0.7996633649,7.565712936
54.36827871,-1.312022567,-7.28555584,-0.3950432837,7.413284448
54.3732824,-1.213860273,-7.216124058,0.02154781483,7.317538349
54.37828824,-1.096544385,-7.141903877,0.4309563041,7.238433803
54.38329224,-0.962469101,-7.082048416,0.6631938815,7.177853625
54.38784948,-0.8667010069,-7.10599041,0.6512228847,7.188209901
54.3932714,-0.6847416759,-7.393294811,0.3423708379,7.432825648
54.39783101,-0.6081272364,-7.69257021,0.09576806426,7.71716442
54.4032824,-0.5434837937,-8.152256966,-0.1771709323,8.172273723
54.40828678,-0.3998316824,-8.456320763,-0.3878606856,8.474648201
54.41329109,-0.3399766386,-8.738836288,-0.672770679,8.771286347
54.41829624,-0.2346317619,-9.033323288,-1.024718285,9.094285527
54.42327017,-0.1244984865,-9.437943459,-1.594538331,9.572503805
54.42827663,0.01197100803,-9.789890289,-2.178723574,10.02940335
54.43328024,0.2250549644,-10.11310768,-2.82036972,10.50143238
54.43828586,0.4979939461,-10.40041256,-3.466804028,10.97430223
54.4432904,0.7469909191,-10.61828423,-3.914519787,11.34149111
54.4482944,0.9983820915,-10.72602367,-4.058171749,11.51143382
54.45330063,1.182735682,-10.88164711,-4.046200752,11.66965501
54.45827417,1.237802267,-11.03726959,-3.974374771,11.79614892
54.46327909,0.8690952063,-11.18092155,-3.620033026,11.78443772
54.46828432,0.2992752194,-11.17134476,-3.107673883,11.59940284
54.47328924,-0.2561795712,-11.19049835,-2.71502471,11.51799638
54.47829601,-0.6751648784,-11.15458584,-2.533065319,11.4584926
54.48329909,-1.00317049,-11.08036518,-2.700659513,11.4487731
54.48827324,-0.9504981041,-10.9989624,-2.849100113,11.4016662
54.49327724,-0.5698199868,-10.89361763,-2.964021683,11.30402691
54.49828186,0.1029506698,-10.69729328,-2.755726099,11.04702262
54.5032874,0.7709329724,-10.42914295,-2.317587137,10.71132907
54.50829263,1.41018486,-10.27830791,-1.824381709,10.53378391
54.51329748,2.236184359,-10.09156036,-1.237802267,10.41020007
54.51827201,3.124433279,-10.06761837,-0.5889736414,10.55774185
54.52327686,3.701435804,-10.23281765,-0.2298433632,10.88411742
54.52783386,4.153939724,-10.55364132,-0.1029506698,11.34218494
54.53283848,4.479551315,-11.06121159,-0.1364694983,11.93463052
54.53826086,4.65193367,-11.79144382,-0.4812345505,12.68503926
54.5432954,4.565742493,-12.36126328,-0.9050082564,13.20855307
54.54782371,4.345476151,-12.8688345,-1.436521053,13.65846466
54.55282732,3.916913986,-13.37640476,-1.982398987,14.07836373
54.5578344,3.347094059,-13.89355278,-2.446874142,14.49900136
54.56328609,2.425326347,-14.52562141,-2.8969841,15.00894407
54.56829101,1.577778935,-14.92784786,-3.210624456,15.35050936
54.5728474,0.7565677166,-15.20078659,-3.517082214,15.62069701
54.57826894,-0.3878606856,-15.24867058,-3.988739967,15.76649729
54.58327417,-1.173158884,-15.21036339,-4.288015366,15.84671991
54.58827932,-1.67115283,-15.11698914,-4.266467571,15.79616592
54.59328401,-1.70946002,-15.12896061,-3.900154591,15.71683519
54.59784148,-1.362300754,-15.13374901,-3.105279684,15.50899688
54.60326301,-0.7565677166,-15.25824738,-2.298433542,15.44892567
54.60785163,-0.2442085743,-15.23670006,-1.630451322,15.32563336
54.61327232,0.2106897533,-15.1672678,-1.197100878,15.21589475
54.61827748,0.3615244627,-14.82968521,-1.096544385,14.87456463
54.62328278,0.2394201756,-14.38915253,-1.043871999,14.42895357
54.6282874,-0.2394201756,-13.9151001,-1.00317049,13.95326785
54.63329232,-1.443703651,-13.59427738,-1.031900883,13.70961258
54.63829932,-2.619256735,-13.6206131,-0.7829039693,13.89224768
54.6432714,-3.519476414,-13.77384281,-0.3208230138,14.21999956
54.64827694,-4.098873138,-13.91749477,0.4453215301,14.51536197
54.65328178,-4.644751072,-14.08508873,1.45088625,14.90196322
54.65828709,-5.121197224,-14.12818432,2.442085743,15.22484929
54.66329101,-5.918466568,-14.19282722,3.435679436,15.75653783
54.66829655,-7.046135426,-14.15691471,4.019864559,16.31642025
54.67326978,-8.185775757,-14.07551193,4.034229755,16.77504011
54.67827601,-8.834604263,-14.02523327,3.624821424,16.96751989
54.68328055,-9.255983353,-14.06114674,3.045424461,17.1074161
54.68783717,-9.54807663,-14.24550056,1.762132406,17.23963933
54.69281232,-9.33020401,-14.56632328,0.1268926859,17.29874511
54.69781686,-8.099584579,-15.06431675,-1.687912226,17.18679601
54.70282155,-7.252037048,-15.39711094,-2.743755102,17.23923602
54.70827409,-6.540958881,-15.62934875,-3.392583847,17.27918721
54.71327932,-6.081272125,-15.60301208,-3.361459255,17.08025952
54.71828494,-6.200982571,-15.29894924,-3.282450438,16.83105801
54.72329009,-5.868188381,-14.863204,-3.45722723,16.34940024
54.72829348,-4.108449936,-14.5088625,-3.512293816,15.48297968
54.73329817,-2.889801502,-13.92946529,-3.835511208,14.73404569
54.73827286,-2.829946518,-13.15613842,-4.249708176,14.11214353
54.74327755,-1.771709204,-12.78503704,-2.880224705,13.2246671
54.74828271,0.806845963,-12.87841129,0.08379705995,12.9039335
54.75328801,2.442085743,-13.28063679,3.548206806,13.96169287
54.75829317,3.943250179,-13.67089176,4.074931145,14.80025565
54.76329778,4.740519524,-13.75229454,1.920149803,14.6725971
54.76827163,4.723760128,-13.54878712,-0.6177040339,14.36193233
54.77327755,4.297592163,-13.16332054,-1.142034173,13.89411919
54.77828063,3.82593441,-12.67011547,-1.086967587,13.2797251
54.78283901,3.399766445,-11.96861458,-0.1843535304,12.44347753
54.78826086,2.726995707,-10.95826149,0.7422025204,11.31683989
54.79329686,2.001552582,-10.18253994,0.962469101,10.4219326
54.79827348,1.206677675,-9.430760384,1.244984865,9.588811174
54.80327655,0.5889736414,-8.738836288,1.546654344,8.894171647
54.80828117,0.08619125932,-7.972691536,1.912967205,8.199431858
54.81283817,-0.3782838583,-7.275979042,2.178723574,7.60459112
54.81825971,-0.8020575643,-6.596025467,2.238578558,7.011567746
54.8232954,-1.156399369,-6.011840343,2.26730895,6.5284128
54.82830001,-1.642422318,-5.334281445,2.219424963,6.006492884
54.83327532,-1.994369984,-4.857835293,1.982398987,5.613018894
54.83827909,-2.250549555,-4.357447147,1.8602947,5.245285055
54.84328401,-2.363077164,-4.036623955,1.78368032,5.005994618
54.84828894,-2.432508945,-3.828328609,1.544260144,4.791444365
54.85329471,-2.525882721,-3.806780815,1.079784989,4.694422149
54.8582984,-2.614468336,-3.857059002,0.7278373241,4.716152669
54.86327194,-2.736572504,-3.938461781,0.6871358752,4.844839108
54.8682784,-2.681505919,-3.957615376,0.7350199223,4.836677345
54.87328278,-2.561795712,-3.981557369,0.7637503147,4.795717975
54.87829009,-2.554613113,-3.986345768,0.6991068721,4.785995315
54.88329286,-2.516305923,-4.027047157,0.691924274,4.798714777
54.88829755,-2.580949545,-3.97676897,0.8475474119,4.816049067
54.89282432,-2.765302896,-3.8642416,1.072602391,4.871318009
54.89827686,-2.966415882,-3.670311213,1.285686255,4.891195838
54.90328178,-3.165134668,-3.426102638,1.520318031,4.905876443
54.90828678,-3.38300705,-3.232172251,1.472434044,4.905072494
54.9132914,-3.368641853,-3.069366693,1.618480325,4.83613879
54.91829624,-3.136404276,-3.045424461,1.848323703,4.746360968
54.92327048,-3.062183857,-3.023876667,1.872265697,4.693205611
54.92827532,-3.01190567,-2.932897091,1.845929503,4.591395958
54.93328117,-2.8969841,-2.856282711,1.697489023,4.408212425
54.93828486,-2.698265314,-2.817975283,1.589749932,4.212947335
54.94329017,-2.473210335,-2.67671752,1.431732655,3.915538843
54.94829478,-2.322375536,-2.609679937,1.295263171,3.725797121
54.9532994,-2.183511972,-2.619256735,1.149216771,3.598462111
54.95827686,-2.104503393,-2.67671752,0.921767652,3.527521342
54.96327971,-2.094926596,-2.736572504,0.6967126727,3.51609941
54.96828494,-2.126051188,-2.758120298,0.3758896589,3.502658172
54.97328886,-2.252943754,-2.724601507,-0.02154781483,3.535487695
54.97829478,-2.439691544,-2.731784105,-0.8451532125,3.758859292
54.98329963,-2.521094322,-2.875436306,-1.575384736,4.13592645
54.98827386,-2.590526342,-3.090914488,-2.458845139,4.723399043
54.99327786,-2.602497339,-3.435679436,-3.483563423,5.541849845
54.99828278,-2.473210335,-4.039018154,-4.800374508,6.743443662
55.00328732,-2.19308877,-4.599261284,-5.837063789,7.748171164
55.00829294,-1.810016513,-5.157110691,-6.928819656,8.824992481
55.01329717,-1.572990537,-5.590460777,-8.135497093,9.995692266
55.01827163,-1.762132406,-6.313509941,-9.416395187,11.47318686
55.02327694,-2.214636564,-7.010222435,-10.3501339,12.69539701
55.02828125,-2.741360903,-7.864952564,-11.08036518,13.86171097
55.03283971,-3.268085241,-8.882488251,-11.87045193,15.18178539
55.03826178,-4.034229755,-10.38844109,-11.91115379,16.31166155
55.04329694,-4.333505154,-11.55681133,-10.46026707,16.17888569
55.04827132,-4.402936935,-12.79461384,-9.090784073,16.30123774
55.05282894,-4.675876141,-14.1856451,-8.398859978,17.13584528
55.05828025,-5.54018259,-16.59900093,-8.482656479,19.44674564
55.06328555,-5.7963624,-18.80884933,-10.46505547,22.29098509
55.06829009,-5.576095581,-21.24614525,-13.79778481,25.93974548
55.07329502,-3.991134167,-23.50627136,-18.51675606,30.18847794
55.07830002,-2.298433542,-24.6387291,-19.18713188,31.31286953
55.08327417,-0.04070143029,-24.04496765,-16.95094872,29.41932678
55.08827871,1.546654344,-21.69625664,-14.37718105,26.07341609
55.09328332,2.042253971,-16.57027054,-12.36844635,20.77794822
55.09828917,2.497152328,-11.94467258,-12.69884586,17.61169098
55.10329448,2.944868088,-7.951143742,-13.98692608,16.35625373
55.10829878,3.361459255,-5.073313236,-14.52562141,15.74901879
55.11282555,3.363853455,-3.066972494,-13.517663,14.26355648
55.11827909,2.817975283,-1.848323703,-11.00614548,11.51053967
55.1232824,1.891419291,-2.006340981,-8.887276649,9.305189805
55.12828763,0.4644751251,-3.201047659,-7.232883453,7.923196723
55.13329225,-2.063801765,-5.152322292,-5.662287235,7.928883873
55.13829694,-4.153939724,-6.971915245,-4.426878929,9.244461827
55.14327163,-6.071695328,-8.947132111,-2.911349297,11.19788426
55.14827663,-7.520187378,-10.97741508,-0.7613561153,13.32803524
55.15328186,-8.597578049,-13.5128746,2.67671752,16.2382556
55.1582864,-9.267954826,-15.8208847,4.197035789,18.80985085
55.1632914,-9.220070839,-18.51675606,3.172317266,20.92710104
55.16829632,-7.565677166,-21.37782669,0.2370259613,22.67834047
55.17327048,-4.388571739,-24.28917694,-4.364629745,25.06538791
55.17782825,-2.097320795,-25.29474068,-6.931213856,26.31091762
55.18328025,0.6033388376,-23.57091522,-7.125144482,24.63168175
55.18783786,2.990357876,-19.57259941,-3.821146011,20.16506992
55.19325909,3.404554844,-14.05156994,-1.108515382,14.50056612
55.19784863,1.256955862,-9.13866806,4.134786129,10.10898849
55.2028224,-1.948880196,-4.49870491,8.887276649,10.14988503
55.20827378,-5.621585369,-1.156399369,8.327033043,10.11330613
55.21327848,-8.4012537,-0.09337386489,5.430049419,10.00376025
55.21828432,-10.7140522,0.2753331959,-0.05267243832,10.71771885
55.22328894,-11.73637676,0.3208230138,-5.791574001,13.0915162
55.22829448,-10.31422138,-0.3543418646,-4.120420933,11.112452
55.23329848,-8.238448143,-1.458068848,-0.07661445439,8.366831081
55.23827386,-5.798756599,-2.916137695,2.612074137,6.996596919
55.24327779,-3.078943491,-4.824316502,4.01507616,6.991048512
55.24828278,-0.07661445439,-7.584830761,6.603208065,10.05673328
55.25328825,0.423773706,-9.196128845,10.48660374,13.9541115
55.25829255,0.1197100878,-10.42914295,13.9007349,17.37848624
55.26329786,-0.2442085743,-11.52089882,15.4426012,19.26822979
55.26827171,-0.5889736414,-12.80897903,14.93024158,19.68067447
55.27327602,-0.653617084,-13.59188271,12.952631,18.78662132
55.27783571,-0.605733037,-14.14733791,10.46505547,17.60771048
55.28283902,-0.3088520169,-14.68603325,7.991845131,16.72257608
55.28826025,0.739808321,-15.42823601,3.529053211,15.84398937
55.29284917,2.233790159,-16.05791092,-2.770091295,16.44748392
55.29827079,4.01507616,-16.42182922,-9.157821655,19.2266224
55.30327563,4.448426723,-16.18001556,-11.76271248,20.49250616
55.30783348,3.447650433,-15.34922695,-10.7332058,19.04433691
55.31328463,2.209848166,-13.84088039,-7.194576263,15.75485089
55.31829009,1.192312479,-12.60786629,-4.788403511,13.53915468
55.32329471,0.2106897533,-11.24556541,-2.959233284,11.63031355
55.32785294,-0.1651999205,-10.64701462,-2.097320795,10.85287823
55.33327417,-0.7972691655,-9.816226959,-0.6679822803,9.87117775
55.33827963,-1.422155857,-9.239224434,-0.1029506698,9.348603867
55.34328309,-2.403778553,-8.513781548,0.009576806799,8.846621914
55.34828825,-3.134010077,-8.051700592,0.04309562966,8.640240669
55.35329409,-3.876212597,-7.390900612,0.1268926859,8.346648292
55.35830025,-4.599261284,-6.806715488,-0.07422025502,8.215235161
55.36327232,-5.408501625,-6.344634533,-0.624886632,8.360428248
55.36827786,-5.480327606,-6.210559368,-1.031900883,8.346847175
55.37328332,-5.106832027,-6.301538944,-1.381454349,8.227851636
55.37828832,-4.261679173,-6.596025467,-1.33835876,7.966220277
55.38329194,-2.920926094,-6.993463039,-1.259350061,7.682857353
55.38829779,-1.963245392,-7.271190643,-1.271321058,7.638115152
55.39327163,-1.137245774,-7.51300478,-1.26653266,7.703419614
55.39827663,-0.4453215301,-7.661445618,-1.223437071,7.771284224
55.40283386,0.1149216816,-7.785943985,-1.134851575,7.869054507
55.40828617,0.5195417404,-7.836222172,-1.108515382,7.93127404
55.41284402,0.739808321,-7.874529362,-1.132457376,7.989867879
55.41826517,0.9193734527,-7.884106159,-1.182735682,8.025162999
55.42327132,1.079784989,-7.936778545,-1.230619669,8.103876484
55.42827571,1.223437071,-8.015787125,-1.218648672,8.199679633
55.43283355,1.15400517,-8.142680168,-1.268926859,8.321366692
55.43828702,1.079784989,-8.334216118,-1.44849205,8.527791223
55.44329048,0.9552865028,-8.544905663,-1.477222443,8.724114352
55.44829417,0.7805097699,-8.671798706,-1.417367458,8.82146353
55.45329994,0.3591302633,-8.726864815,-1.522712231,8.865991009
55.45827348,-0.1005564705,-8.755595207,-1.48679924,8.881504997
55.46327963,-0.4501099288,-8.846575737,-1.314416766,8.955009361
55.4682834,-0.8451532125,-8.829815865,-1.163581967,8.94616427
55.47328917,-1.261744261,-8.738836288,-1.120486379,8.900266736
55.47829325,-1.539471745,-8.59278965,-1.292868972,8.82482393
55.48329871,-1.618480325,-8.413225174,-1.297657371,8.665203462
55.48827263,-1.726219416,-8.135497093,-1.094150186,8.388284154
55.49327786,-1.754949808,-7.852981567,-0.8307880163,8.089460863
55.49828363,-1.625662923,-7.680599213,-0.7326257229,7.884866813
55.50328825,-1.472434044,-7.491456985,-0.9313444495,7.691384288
55.50784548,-1.323993564,-7.352593422,-1.022324085,7.540473163
55.51282032,-1.046266198,-7.331045628,-0.940921247,7.46486676
55.51827379,-0.8044517636,-7.450755596,-0.6847416759,7.525275593
55.52282863,-0.6368576288,-7.625532627,-0.4070142806,7.662897371
55.52783448,-0.5075707436,-7.912836552,-0.3208230138,7.935586794
55.5328394,-0.383072257,-8.36294651,-0.3854664862,8.38058489
55.53781348,-0.2513911724,-8.865729332,-0.6847416759,8.895685767
55.54326548,-0.1029506698,-9.473855972,-1.22583127,9.553387259
55.54827132,0.0023942017,-10.00536919,-1.807622313,10.16734561
55.55282917,0.1268926859,-10.50096893,-2.631227732,10.82634794
55.55827963,0.323217243,-10.97980881,-3.804386616,11.62471627
55.56328494,0.4836287498,-11.18810463,-4.553771496,12.08902051
55.56829048,0.6440402865,-11.23120022,-4.948814869,12.29005349
55.57284794,0.6655880809,-11.19528675,-5.001487255,12.27975275
55.57826986,0.5937620401,-11.09233665,-4.616020679,12.02913682
55.58327471,0.4094084799,-10.95586681,-3.998316765,11.66984018
55.58827878,0.04309562966,-10.86009884,-3.301604033,11.35095561
55.59328425,-0.6153098345,-10.75235939,-2.588132143,11.07656385
55.5982904,-0.988805294,-10.58716011,-2.336740971,10.88696714
55.6032944,-1.072602391,-10.43632507,-2.559401512,10.79897648
55.6082994,-0.9744400978,-10.34295177,-3.141192675,10.85326109
55.61282579,-0.5746083856,-10.24239445,-3.734954596,10.91726635
55.61827786,0.1795651317,-10.24239445,-3.866635799,10.94941825
55.6232824,1.120486379,-10.17535686,-3.184288263,10.72068416
55.62828802,2.573766708,-10.09874249,-2.147598982,10.64053834
55.63329263,3.598485231,-10.02452278,-0.8714894056,10.68642348
55.63829663,4.522646904,-10.0269165,-0.01197100803,10.99970604
55.64282425,5.377377033,-10.22802925,0.6679822803,11.57475557
55.64827656,6.177040577,-10.70208168,1.218648672,12.41674221
55.65328186,6.603208065,-11.3030262,1.288080573,13.15370326
55.65828709,6.780379295,-12.00931549,0.9864110947,13.82643153
55.66284371,6.596025467,-12.68208599,0.4285621047,14.30127695
55.66826579,5.887341976,-13.44583702,-0.5363011956,14.68805459
55.67327048,5.035006046,-13.96537876,-1.165976286,14.89102382
55.67827717,3.928884983,-14.41788292,-1.532289028,15.02196374
55.68327994,2.691082716,-14.81292629,-1.814804912,15.16437366
55.68828486,0.9145850539,-15.05713463,-2.248155355,15.2514908
55.6932904,-1.11569798,-14.93502998,-2.85867691,15.24703041
55.69829471,-2.995146275,-14.79137802,-3.505111217,15.49327498
55.70329909,-4.201824188,-14.79616642,-3.981557369,15.88819267
55.70827509,-4.556165695,-15.00206757,-3.857059002,16.14613208
55.71327971,-4.244919777,-15.25345898,-3.354276657,16.18451502
55.71828494,-3.761290789,-15.67483807,-3.076549292,16.41075904
55.72328886,-3.179499865,-16.14888954,-2.839523315,16.70205812
55.72829356,-2.487575531,-16.50562668,-2.401384354,16.86387829
55.73329909,-2.059013367,-16.55590439,-1.996764183,16.80251688
55.73827356,-1.991975784,-16.37873459,-1.549048543,16.57197833
55.74327817,-2.375048161,-16.02918053,-1.106121182,16.24188986
55.74828271,-3.282450438,-15.54794598,-0.4644751251,15.89744766
55.75328763,-4.067748547,-15.12656593,0.2729389966,15.66633559
55.75829502,-4.807557106,-14.63575459,1.213860273,15.45287593
55.76329725,-5.523423195,-14.14254951,2.319981337,15.35910883
55.76827194,-5.861005783,-13.93904209,2.870647907,15.39119562
55.77327686,-6.260837555,-13.8025732,3.035847664,15.45721466
55.77828148,-6.998251438,-13.60385418,3.08133769,15.6056084
55.78328586,-8.267178535,-13.48174953,2.901772499,16.07868449
55.78829132,-8.932766914,-13.47935581,2.523488522,16.36628706
55.79329602,-9.272743225,-13.65173817,1.982398987,16.62178172
55.79827017,-9.385271072,-13.85763931,1.118092179,16.77401593
55.80327594,-9.40681839,-14.31972027,-0.5817909837,17.1429607
55.80827994,-8.882488251,-14.83926201,-2.035071373,17.41389704
55.81328609,-8.288725853,-15.33007336,-3.004723072,17.68452674
55.81829048,-7.852981567,-15.64850235,-3.497928619,17.85442382
55.82329502,-7.493851185,-15.70596313,-3.574543238,17.7654846
55.82785225,-7.165845871,-15.55752277,-3.177105665,17.42067342
55.83282679,-6.612784863,-15.30852604,-2.475604534,16.85848484
55.83783232,-5.827486992,-15.07628822,-2.140416384,16.30446115
55.84328371,-4.975151062,-14.65490818,-2.19308877,15.63099806
55.84828948,-4.49870491,-13.97256088,-2.748543501,14.93403143
55.85284609,-2.827552319,-13.79299641,-2.15478158,14.24376655
55.85826825,-1.537077546,-13.56075859,-2.114080191,13.81036263
55.86327317,-0.08140286058,-13.45301914,0.09337386489,13.45358945
55.86827817,1.936909199,-13.68286228,1.750161409,13.92965909
55.87328186,3.05021286,-13.46259594,1.04147768,13.84304749
55.87828917,3.275267839,-13.14416695,0.3782838583,13.55136904
55.88329171,3.351882458,-12.66053867,-0.3615244627,13.10171956
55.88829717,3.524264812,-12.26788998,-0.2442085743,12.76640924
55.89327194,3.866635799,-11.73158836,-0.01197100803,12.35237553
55.89827748,3.517082214,-10.93192482,0.2035071403,11.48556758
55.90328156,2.449268341,-10.14662647,0.03351882473,10.43810652
55.90828648,1.479616642,-9.363722801,0.3782838583,9.487447959
55.9132914,1.015141487,-8.66940403,1.331176162,8.829558791
55.9178504,0.6895300746,-8.068459511,2.11647439,8.369883777
55.92327009,0.02633621916,-7.17063427,2.422932148,7.568968861
55.92782863,-0.5123591423,-6.373364925,2.408566952,6.832531531
55.93283386,-0.9864110947,-5.501875401,2.408566952,6.08644679
55.93783809,-1.491587639,-4.759673119,2.396595955,5.533804663
55.94281233,-1.793257117,-4.182670593,2.779668093,5.332640911
55.94826433,-1.975216389,-3.543418407,2.97599268,5.031284749
55.95285294,-2.293645144,-3.047818661,2.470816135,4.544770512
55.95782709,-2.540247917,-2.640804529,1.944091797,4.148035795
55.96327848,-2.703053713,-2.420537949,1.158793569,3.808977011
55.96828402,-2.446874142,-2.45166254,0.5770025849,3.511520221
55.97284209,-2.23139596,-2.542642117,0.3519476354,3.401179795
55.97826363,-2.195482969,-2.657563925,0.3974374831,3.469978103
55.98329933,-2.248155355,-2.738966703,0.4213795066,3.568431279
55.98827256,-2.358288765,-2.837129116,0.3088520169,3.70219085
55.99283109,-2.48996973,-3.004723072,0.1268926859,3.904409271
55.99828517,-2.458845139,-3.318363667,0.2370259613,4.136863322
56.00284117,-2.463633537,-3.423708439,0.390254885,4.235984957
56.00826217,-2.513911724,-3.394978046,0.5363011956,4.25831505
56.01329694,-2.513911724,-3.325546265,0.8236053586,4.249392416
56.01827109,-2.535459518,-3.224989653,0.9552865028,4.212088025
56.02327725,-2.686294317,-3.055001259,0.9672574997,4.181482622
56.02828186,-2.770091295,-2.947262287,1.07739079,4.185753419
56.03328579,-2.810792685,-2.829946518,1.156399369,4.152880002
56.03829263,-2.78924489,-2.837129116,1.213860273,4.15964487
56.04329602,-2.626439333,-2.906560898,1.201889277,4.097660022
56.0482704,-2.370259762,-2.97359848,1.194706678,3.985943214
56.05327502,-2.042253971,-3.064578056,1.086967587,3.83978365
56.05828056,-1.843535304,-3.088520288,0.9959878922,3.732234166
56.06283809,-1.680729628,-3.141192675,0.8451532125,3.66145155
56.0682594,-1.508347034,-3.208230257,0.7086837292,3.615257223
56.07329502,-1.235408068,-3.275267839,0.5099649429,3.537467563
56.07830156,-1.063025594,-3.392583847,0.2178723514,3.56189794
56.08327294,-0.9720458984,-3.49553442,-0.04309562966,3.628428219
56.08827848,-0.9648633003,-3.596091032,-0.3639186621,3.741025086
56.09328371,-1.039083481,-3.75650239,-0.9074024558,4.001797584
56.09828833,-1.137245774,-3.876212597,-1.498770237,4.308673145
56.10329286,-1.307234168,-3.995922565,-2.176329374,4.734201925
56.10829902,-1.63763392,-4.125209332,-3.08373189,5.404498057
56.11327356,-1.879448295,-4.285621166,-4.493916512,6.488001255
56.11827809,-2.003946781,-4.489128113,-5.736507416,7.554838929
56.12328279,-2.092532396,-4.671087742,-6.967126846,8.64514945
56.12828763,-2.078166962,-4.841075897,-8.674192429,10.1487146
56.13329263,-2.00873518,-5.286397457,-10.16578007,11.6328887
56.13829717,-2.051830769,-5.87297678,-11.54244614,13.11220533
56.14327225,-2.161964178,-6.780379295,-13.07952404,14.89031839
56.14827779,-2.542642117,-8.408436775,-14.92545319,17.31866019
56.15328186,-2.777273893,-10.04846478,-15.12896061,18.37308749
56.15828763,-2.918531895,-11.77468395,-14.14015484,18.63075386
56.16329171,-2.944868088,-13.70680428,-13.06755257,19.16532446
56.16784894,-3.387795448,-16.23029327,-11.75792408,20.32605118
56.17327071,-4.144362926,-20.3578968,-11.34372807,23.67065425
56.17827532,-4.594472885,-23.90610313,-12.81616211,27.51117881
56.18328002,-4.917690277,-26.96110535,-15.54794598,31.50910191
56.18828433,-4.663905144,-28.83815956,-16.95334244,33.77583867
56.1932901,-4.302380562,-28.16299438,-16.6061821,32.97620377
56.19784771,-4.441244125,-25.94835854,-14.89911747,30.24939109
56.20326948,-4.398148537,-22.3019886,-12.79222012,26.08377468
56.20827386,-4.412513733,-15.65329075,-11.20486355,19.74955078
56.21328002,-3.521870613,-9.88805294,-11.32696819,15.44271259
56.21828332,-1.793257117,-5.140350819,-11.9805851,13.15953635
56.22328863,-0.323217243,-1.728613615,-12.16015053,12.28665273
56.22784617,0.5003881454,0.5243301988,-11.19528675,11.21872345
56.23282094,0.6200982332,1.690306425,-8.415618896,8.606061761
56.23827533,-0.3256114423,0.8906430602,-5.628767967,5.70809046
56.24283071,-2.114080191,-0.8714894056,-3.227383852,3.955355277
56.24828248,-4.544194698,-3.337517262,-1.307234168,5.787710091
56.25328794,-6.277596951,-5.341464043,-0.490811348,8.257139782
56.25829263,-7.891288757,-7.450755596,0.1436520964,10.85388562
56.26329694,-9.725247383,-10.14183807,0.6775590777,14.06756562
56.26827194,-10.86009884,-12.41633034,1.872265697,16.60157778
56.27327686,-11.18331623,-14.80095482,2.940079689,18.78240916
56.2782821,-10.38365269,-17.42021179,3.210624456,20.53270882
56.28328617,-7.924807549,-20.34592628,0.6703764796,21.84510691
56.28829133,-4.853046894,-22.24213409,-4.398148537,23.18638186
56.29284894,-1.197100878,-23.27882385,-9.550470352,25.19023967
56.29827079,2.968810081,-22.57492828,-11.45146656,25.48680652
56.30327594,5.477933407,-19.18473816,-7.47469759,21.30570432
56.30828025,4.821922302,-14.83447361,-3.299209833,15.94356696
56.31328517,2.700659513,-10.3309803,-0.4979939461,10.68974807
56.31829133,0.2585737705,-6.411672115,2.882618904,7.034620918
56.32329571,-2.640804529,-2.612074137,7.455543995,8.329580789
56.32826917,-5.094861031,-0.8283938169,8.712499619,10.1267712
56.3328261,-7.419631004,-0.1005564705,7.929595947,10.85999667
56.33783294,-9.390059471,0.05985504389,4.728548527,10.51360883
56.34283625,-10.69250488,-0.0191536136,-0.3950432837,10.69981714
56.34828886,-10.73799419,-0.691924274,-2.760514498,11.10872265
56.35329417,-8.829815865,-2.068590164,-0.8331822157,9.107079997
56.35829848,-5.621585369,-3.986345768,0.6416460276,6.92133544
56.36327379,-2.724601507,-6.87854147,2.176329374,7.711951482
56.36783102,-0.4501099288,-9.21528244,4.762067318,10.38274119
56.37283502,0.720654726,-11.06599998,8.233659744,13.81190978
56.37828771,1.065419793,-12.43787766,11.37724686,16.89016477
56.38329194,1.201889277,-13.6110363,12.03804588,18.21041998
56.38829748,1.565807939,-14.19761562,11.0037508,18.03071201
56.3932714,2.178723574,-14.5878706,8.937555313,17.24623727
56.39798254,2.82036972,-15.02840424,6.569689274,16.6423627
56.40328624,3.82593441,-15.57907009,3.124433279,16.34341709
56.40829054,4.711789131,-15.98369026,-0.1771709323,16.66465423
56.41329431,5.485116005,-16.25662994,-3.438073635,17.4981389
56.41830193,5.64313364,-16.07467079,-5.667075634,17.95426814
56.42327431,4.649539471,-15.20318127,-6.342240334,17.11662789
56.42827947,3.179499865,-13.98213768,-6.009446144,15.54743826
56.433285,1.934514999,-12.61983681,-5.130774021,13.75963195
56.43829054,0.9816226959,-11.36288166,-4.220977783,12.16122182
56.44329554,0.08619125932,-10.17056847,-3.536235809,10.76814077
56.44829893,-0.5770025849,-9.514557838,-3.071760893,10.014762
56.45330439,-1.37427175,-8.935160637,-2.312798738,9.331385559
56.45827947,-2.195482969,-8.245630264,-1.352723956,8.639469082
56.46328531,-2.880224705,-7.668628216,-0.5937620401,8.21316665
56.46828777,-3.730166197,-7.000645638,0.5961562395,7.954783558
56.47329277,-4.510675907,-6.43082571,0.5793967843,7.876383503
56.47830016,-5.336675644,-6.007051945,0.08858546615,8.035709513
56.48330231,-5.612008572,-5.717353821,-0.2370259613,8.01492085
56.48827647,-5.140350819,-5.801150799,-0.2729389966,7.755710981
56.49328162,-4.522646904,-6.107608318,-0.4213795066,7.611489675
56.49828777,-3.869029999,-6.423643112,-0.873883605,7.549586513
56.50329208,-3.031059265,-6.758831501,-0.9050082564,7.462450232
56.50829585,-2.260126352,-7.101202011,-0.6775590777,7.48293575
56.51330108,-1.201889277,-7.661445618,-0.4740519226,7.769621098
56.51827647,-0.5219359994,-8.037335396,-0.4357447028,8.066043076
56.52328108,-0.0287304204,-8.331821442,-0.4141969085,8.342159975
56.52828562,0.4070142806,-8.470685959,-0.5458779931,8.498009415
56.53329,0.7972691655,-8.544905663,-0.8236053586,8.621448642
56.53829547,0.9074024558,-8.54251194,-1.027112484,8.651754129
56.54329977,0.9050082564,-8.552088737,-1.247379065,8.689834075
56.54827424,0.8762778044,-8.556877136,-1.33835876,8.70512569
56.55327924,0.7254431248,-8.599972725,-1.414973259,8.745738844
56.55828693,0.4525041282,-8.628703117,-1.323993564,8.741409293
56.56329,0.2920926213,-8.686163902,-1.108515382,8.761482054
56.568294,0.04070143029,-8.781931877,-1.034295082,8.842723021
56.57329885,-0.2944868207,-8.84896946,-1.122880578,8.924788164
56.578305,-0.720654726,-8.736441612,-1.101332784,8.835026269
56.58327862,-0.9959878922,-8.623914719,-1.082179189,8.74842893
56.58828231,-1.149216771,-8.537723541,-0.9337386489,8.665176878
56.59328816,-1.352723956,-8.468291283,-0.5746083856,8.594881858
56.59829493,-1.515529633,-8.473079681,-0.2705447972,8.611800267
56.60329831,-1.663970232,-8.255207062,0.08379705995,8.421654381
56.60830193,-1.795651317,-8.020575523,0.181959331,8.221137669
56.6132767,-1.903390408,-7.809885979,0.09576806426,8.039053773
56.61828262,-1.941697598,-7.647080421,-0.1316810995,7.890840795
56.62328747,-1.980004787,-7.484274387,-0.423773706,7.753345485
56.62829124,-1.833958507,-7.429207802,-0.457292527,7.665875607
56.6332967,-1.642422318,-7.405265808,-0.4525041282,7.598702044
56.63830354,-1.467645645,-7.529764175,-0.4932055473,7.687300176
56.64327639,-1.209071875,-7.757213593,-0.6296750307,7.876084571
56.64828047,-0.9169792533,-8.109161377,-0.8810662031,8.208265763
56.65328531,-0.6751648784,-8.468291283,-1.170764685,8.575458869
56.65829124,-0.423773706,-8.829815865,-1.482010841,8.963346947
56.66329524,-0.117315881,-9.203310966,-1.903390408,9.398807946
56.66830016,0.2801215947,-9.737217903,-2.602497339,10.08290003
56.67327454,0.5746083856,-10.17056847,-3.224989653,10.68509223
56.67783239,0.8044517636,-10.53209305,-3.701435804,11.19253115
56.68328408,1.065419793,-10.79784966,-4.048594952,11.58101021
56.68828908,1.323993564,-10.94868469,-4.307168961,11.83969425
56.69329485,1.539471745,-10.9893856,-4.259284973,11.8860455
56.69829977,1.762132406,-10.99656868,-4.060565948,11.85402165
56.70282601,1.817199111,-10.97980881,-3.651157618,11.71278643
56.70827801,1.776497602,-10.97023201,-3.026270866,11.51782312
56.71328354,1.867477298,-10.95586681,-2.375048161,11.36482921
56.71829024,1.9321208,-10.9199543,-2.19308877,11.30434125
56.72329331,1.965639591,-10.87925243,-2.408566952,11.31472789
56.72829801,2.138022184,-10.85291672,-2.808398485,11.41245119
56.73330193,2.281674147,-10.85052204,-3.241749048,11.55200426
56.73827862,2.387019157,-10.77151299,-3.203441858,11.48848955
56.74328193,2.559401512,-10.7140522,-2.782062292,11.3613961
56.74828693,2.794033289,-10.80024433,-2.281674147,11.3867439
56.75329147,3.074155092,-11.0229044,-1.716642618,11.57159076
56.758297,3.294421434,-11.43710136,-0.9911994934,11.94332352
56.7633017,3.450044632,-11.86326981,-0.4620809257,12.36339344
56.7678287,3.557783842,-12.32774448,-0.1939303428,12.832331
56.7732807,3.612850428,-12.71799946,-0.1891419291,13.22255547
56.77828531,3.473986626,-13.11543655,-0.55784899,13.57919197
56.78329116,3.220201254,-13.45062542,-1.132457376,13.87701265
56.78829485,2.8993783,-13.84088039,-1.968033791,14.27758809
56.79329985,2.463633537,-14.29338455,-2.892195702,14.78969669
56.79827516,1.89620769,-14.84883881,-3.620033026,15.40091739
56.80327985,1.036689281,-15.49048519,-3.945644379,16.01867553
56.80828477,0.3112462163,-15.80891418,-3.804386616,16.26321
56.81284108,-0.3782838583,-15.95974827,-3.519476414,16.34758018
56.81781647,-0.9121908545,-15.95974827,-3.076549292,16.2791527
56.82282016,-1.146822572,-15.84722137,-2.284068346,16.05199662
56.82782539,-1.110909581,-15.89031696,-1.570596337,16.00634456
56.83283062,-0.7254431248,-16.20635223,-1.034295082,16.25551866
56.83783647,-0.3543418646,-16.5175972,-0.8523358107,16.54336881
56.84328777,-0.1149216816,-16.70195198,-0.8714894056,16.72506803
56.84829216,-0.2633621991,-16.48168373,-1.036689281,16.51635501
56.85329708,-0.9313444495,-16.02199745,-0.9337386489,16.0761834
56.85830347,-1.900996208,-15.60780048,-0.6105214357,15.73499155
56.86327647,-2.932897091,-15.20796967,0.1651999205,15.48907737
56.86828201,-4.235342979,-14.58068848,1.608903527,15.26837179
56.87328724,-5.080495834,-14.30774975,2.726995707,15.4259407
56.87829308,-5.899312973,-14.05635834,3.725377798,15.69272261
56.8832967,-6.536170483,-13.96298409,4.484339714,16.05601918
56.8883017,-7.352593422,-13.95101357,4.680664539,16.44992493
56.89327516,-8.415618896,-14.12100124,4.266467571,16.98316999
56.89828193,-8.70771122,-14.28859615,3.538630009,17.10292715
56.90328539,-8.949525833,-14.43464184,2.624045134,17.18541563
56.90829024,-9.220070839,-14.61181259,1.759738207,17.36696439
56.91329585,-9.986215591,-15.16487312,0.2322375625,18.15906972
56.91830224,-9.725247383,-15.82806778,-1.482010841,18.63610803
56.92327493,-9.085995674,-16.51999092,-2.944868088,19.0823915
56.92827947,-8.418013573,-16.95334244,-3.699041605,19.28630813
56.93328354,-8.137891769,-17.17360878,-4.170699596,19.45643482
56.93829054,-8.564059258,-16.95812988,-4.314351559,19.48165572
56.94329401,-9.603142738,-16.24226379,-4.288015366,19.34989817
56.94829954,-9.15063858,-15.40189934,-3.921702385,18.33936856
56.95327331,-7.386112213,-14.76025391,-3.584120035,16.88980951
56.95783185,-5.082890034,-14.26704788,-3.232172251,15.48648972
56.96283608,-3.095702887,-13.8073616,-2.889801502,14.44221463
56.96828908,-1.934514999,-13.27584839,-0.6464344859,13.43161853
56.9728447,0.85473001,-13.76905441,4.134786129,14.40187068
56.97826785,3.292027235,-14.16409683,6.045359135,15.74818877
56.98330324,5.58088398,-14.07551193,4.338293552,15.75078071
56.98827616,5.906495571,-13.66370869,2.26730895,15.05736746
56.99328193,5.614402771,-13.08191776,0.3136404157,14.23925775
56.99828747,5.628767967,-12.50012684,-0.9504981041,13.74189385
57.00329178,5.791574001,-11.71243477,-1.292868972,13.12992642
57.00829678,5.102043629,-10.97023201,-0.6392518282,12.11550587
57.01330108,3.991134167,-10.07958889,0.2346317619,10.84353799
57.01827678,2.880224705,-9.184157372,1.137245774,9.692149861
57.023281,1.56101954,-8.075642586,2.039859772,8.474303102
57.02828531,0.7015010715,-6.564900875,2.827552319,7.182275361
57.03329031,-0.02154781483,-5.442020416,3.356670856,6.394004204
57.03829731,-0.6464344859,-4.42448473,3.552995205,5.711192309
57.04330039,-1.278503656,-3.569754839,3.409343243,5.09915116
57.04827431,-1.900996208,-2.794033289,3.071760893,4.566850511
57.05328008,-2.219424963,-2.420537949,2.849100113,4.347668637
57.05828601,-2.425326347,-2.140416384,2.379836559,4.015870047
57.0632887,-2.439691544,-2.037465572,1.903390408,3.704896197
57.06829424,-2.513911724,-2.128445387,1.127668977,3.481618768
57.07329831,-2.849100113,-2.26730895,0.7900865674,3.725895612
57.07830447,-2.978386879,-2.370259762,0.7254431248,3.874943544
57.08327793,-2.97599268,-2.533065319,0.6631938815,3.96393472
57.08828231,-2.882618904,-2.846705914,0.6081272364,4.096711491
57.09284008,-2.67671752,-3.19625926,0.5506663918,4.205249507
57.0982937,-2.41574955,-3.545812607,0.6081272364,4.333411089
57.10329793,-2.317587137,-3.658340216,0.691924274,4.385592602
57.10830254,-2.303221941,-3.694253206,0.8762778044,4.440743277
57.11327678,-2.217030764,-3.701435804,1.084573388,4.448837135
57.11783701,-2.274491549,-3.622427225,1.170764685,4.43463423
57.12283978,-2.41335535,-3.459621429,1.33835876,4.42543429
57.12829239,-2.559401512,-3.327940464,1.417367458,4.431100805
57.13329639,-2.705447912,-3.15795207,1.474828243,4.412168178
57.13830316,-2.801215887,-2.97359848,1.48679924,4.34737511
57.14282808,-2.911349297,-2.85867691,1.458068848,4.33289201
57.14828078,-2.851494312,-2.703053713,1.438915253,4.184255763
57.15283831,-2.683900118,-2.633621931,1.37666595,4.004309361
57.15829178,-2.458845139,-2.609679937,1.252167463,3.797929982
57.16329678,-2.22900176,-2.671929121,1.118092179,3.654830256
57.16830108,-1.982398987,-2.808398485,0.9050082564,3.554721893
57.17327401,-1.82198751,-2.968810081,0.6153098345,3.537241578
57.17828047,-1.594538331,-3.208230257,0.5410895944,3.623268113
57.18328539,-1.474828243,-3.579331636,0.3974374831,3.891617898
57.1882897,-1.589749932,-3.785232782,0.1292868853,4.107554889
57.19329401,-1.905784607,-3.931279182,-0.383072257,4.385625991
57.1983017,-2.281674147,-4.058171749,-0.9696516991,4.755525131
57.2032737,-2.698265314,-4.180276394,-1.63523972,5.237304209
57.2082777,-2.786850691,-4.335899353,-2.109291792,5.569171557
57.21328293,-2.825158119,-4.551377296,-2.940079689,6.110697364
57.21828808,-2.8993783,-4.826710701,-4.01747036,6.916906737
57.2232927,-2.997540474,-5.13556242,-5.284003258,7.954868993
57.22829793,-3.27287364,-5.705382824,-6.854599476,9.499927842
57.23285547,-3.770867586,-6.172252178,-8.396465302,11.08227273
57.23782931,-4.185064793,-6.775590897,-10.3501339,13.05942843
57.24283485,-4.352658749,-7.534552574,-12.46660805,15.20300749
57.24783916,-3.981557369,-8.547300339,-13.93664837,16.82674389
57.25329239,-2.705447912,-10.10592556,-13.96777248,17.45129932
57.25785054,-1.146822572,-11.41555405,-13.12022495,17.4290097
57.26282408,0.323217243,-12.95502567,-12.19606304,17.79553633
57.26827608,0.9457096457,-14.95897198,-11.53286934,18.9122258
57.27328008,0.739808321,-18.1384716,-12.19606304,21.86996621
57.27828654,0.6177040339,-20.66914368,-15.11220074,25.61198293
57.28329085,0.8212111592,-22.92926979,-19.27332306,29.96475901
57.28829554,1.094150186,-23.87497902,-21.13840675,31.90680222
57.29330008,1.924938202,-23.29079437,-17.79849625,29.37606097
57.29827578,2.293645144,-20.92532349,-13.66370869,25.09635245
57.30327985,1.570596337,-17.15684891,-11.31499767,20.61197248
57.30828385,0.4261679053,-13.03164005,-11.47540855,17.36923323
57.31328847,-0.8690952063,-9.387664795,-13.11064816,16.14845726
57.31829424,-1.668758631,-6.301538944,-13.59906578,15.08074065
57.32329924,-2.142810583,-5.154716492,-12.66053867,13.83661732
57.32830355,-2.497152328,-5.260061264,-10.41717148,11.93404692
57.33283085,-3.292027235,-6.153098583,-7.939172745,10.57017168
57.33828439,-4.742913723,-7.455543995,-5.183446884,10.24443695
57.3432887,-5.923254967,-8.339004517,-3.150769472,10.70286382
57.34829301,-7.213729858,-9.205705643,-1.393425345,11.77813861
57.35329862,-8.063671112,-10.38365269,0.4094084799,13.15335129
57.35830408,-8.104372978,-12.22000504,2.616862535,14.89487677
57.36327647,-8.303091049,-14.00368595,5.219359875,17.09638145
57.36828193,-8.166622162,-16.0267868,6.263231754,19.04677623
57.37284016,-6.986280441,-18.2749424,5.896918774,20.43416955
57.37829239,-5.075707436,-20.50873184,3.169923067,21.36397201
57.38329678,-1.78368032,-22.64435959,-2.691082716,22.87335705
57.3883017,0.282515794,-22.5078907,-6.809109688,23.51699245
57.39327524,3.045424461,-20.51112556,-8.243236542,22.31438618
57.3982817,5.011064053,-17.3028965,-5.844246387,18.93822077
57.40328654,4.398148537,-12.36844635,-2.990357876,13.4634474
57.40828993,2.645592928,-8.209717751,1.78368032,8.807959069
57.41329524,-0.1005564705,-4.220977783,7.759607792,8.833927673
57.41830139,-2.703053713,-1.78128612,9.220070839,9.771856829
57.42327424,-4.333505154,-1.039083481,7.51300478,8.735227657
57.42783185,-6.212953568,-0.7613561153,3.217807055,7.038091887
57.43328408,-8.281543732,-0.4525041282,-3.23456645,8.902311311
57.43829116,-8.549694061,-0.672770679,-3.239354849,9.167513772
57.44284724,-7.603984833,-1.426944256,-0.4429273009,7.749383191
57.44826908,-5.822698593,-3.033453465,1.867477298,6.825916077
57.45327401,-4.19464159,-4.788403511,3.114856482,7.087041495
57.45827954,-2.425326347,-6.871358871,5.614402771,9.198874883
57.46328231,-1.790862918,-8.839392662,9.028534889,12.761524
57.46828747,-1.738190413,-10.51054573,11.21204662,15.46618463
57.4732927,-2.171540976,-12.07395935,12.05241108,17.19757824
57.47829916,-1.965639591,-12.90953541,11.80102062,17.60067985
57.4833017,-1.546654344,-13.50090313,10.66137981,17.27227676
57.48827678,-0.9361328483,-13.9198885,8.997409821,16.60099467
57.49328224,0.0287304204,-14.52801609,5.892130375,15.67741297
57.49828747,0.9720458984,-14.98530865,2.30561614,15.19276849
57.50329216,2.176329374,-15.32528496,-2.52827692,15.68416248
57.50829578,3.222595453,-15.31331444,-6.897695065,17.10148876
57.51330131,3.299209833,-14.80334949,-8.461109161,17.36704667
57.51827793,2.446874142,-13.79539013,-8.003816605,16.13570767
57.52328139,1.666364431,-12.88319969,-6.488286495,14.52072541
57.52828416,0.9121908545,-11.99734497,-4.477157116,12.83796379
57.53329031,0.1723825186,-11.26950741,-2.870647907,11.63065486
57.53829608,-0.5003881454,-10.46984386,-1.678335428,10.61531105
57.54330047,-1.070208192,-9.861717224,-1.094150186,9.979778395
57.54827455,-1.63523972,-9.294290543,-0.720654726,9.464522643
57.55327954,-2.248155355,-8.781931877,-0.7182605267,9.093537715
57.55828624,-2.93768549,-8.238448143,-0.6224924326,8.768666984
57.5632897,-3.545812607,-7.532158375,0.3327940404,8.331683425
57.5682937,-4.201824188,-6.940790653,0.1604115069,8.115148381
57.57329831,-4.522646904,-6.600813866,0.02154781483,8.001596279
57.57830447,-4.572925091,-6.598419666,-0.1508347094,8.029541524
57.58327855,-4.448426723,-6.72531271,-0.517147541,8.079961197
57.58783524,-4.058171749,-6.80192709,-0.4668693244,7.934288692
57.59284078,-3.596091032,-6.797138691,-0.5722141862,7.711056618
57.59829493,-2.8969841,-6.919242859,-0.7493851185,7.538568609
57.60329762,-1.948880196,-7.163451672,-0.605733037,7.448495578
57.60830162,-1.206677675,-7.402871609,-0.6224924326,7.526358741
57.61327678,-0.538695395,-7.558494568,-0.7637503147,7.616058522
57.61783462,0.007182605099,-7.685387611,-0.8379706144,7.730939728
57.62328685,0.3687070608,-7.819462776,-0.9600749016,7.886804601
57.62829178,0.7326257229,-7.95593214,-1.163581967,8.073878849
57.63329701,1.00317049,-8.135497093,-1.371877551,8.31111978
57.63830254,1.182735682,-8.279149055,-1.498770237,8.496439548
57.64327493,1.283292055,-8.406042099,-1.484405041,8.632024131
57.64828016,1.357512355,-8.463502884,-1.307234168,8.670789008
57.65328508,1.371877551,-8.552088737,-1.242590666,8.750102934
57.65829185,1.244984865,-8.525752068,-1.22822547,8.703273719
57.66329547,0.9911994934,-8.518569946,-1.395819545,8.688890756
57.66830008,0.5770025849,-8.422801971,-1.462857246,8.568341517
57.67327424,0.07661445439,-8.183381081,-1.142034173,8.263040466
57.67828201,-0.3184288144,-8.015787125,-0.7948749661,8.061393574
57.68328416,-0.7182605267,-7.824251175,-0.5458779931,7.876089602
57.68828878,-1.048660398,-7.623138428,-0.3878606856,7.70469753
57.69329393,-1.237802267,-7.51300478,-0.3040636182,7.6203576
57.69830132,-1.379060149,-7.491456985,-0.2705447972,7.62213416
57.70327208,-1.520318031,-7.400477409,-0.2633621991,7.559615893
57.70827824,-1.651999116,-7.390900612,-0.2035071403,7.576010038
57.71328293,-1.659181833,-7.486668587,-0.2418143749,7.67212911
57.71828901,-1.683123827,-7.61356163,-0.3447650373,7.805004128
57.72329332,-1.594538331,-7.819462776,-0.4788403511,7.994738187
57.72829855,-1.517923832,-8.092401505,-0.6344634295,8.257941554
57.73330193,-1.355118155,-8.374917984,-0.6607996821,8.509538923
57.73827801,-1.161187768,-8.678980827,-0.5339069963,8.772577837
57.74283485,-1.053448796,-8.825027466,-0.5099649429,8.90229905
57.74783916,-0.7326257229,-9.059659004,-0.7852981687,9.123094592
57.75329216,-0.4477157295,-9.241618156,-1.319205165,9.346028985
57.75829893,-0.14844051,-9.47146225,-2.142810583,9.711965245
57.76330132,0.2657563984,-9.818621635,-3.141192675,10.3122766
57.76827578,0.538695395,-10.13944435,-3.706224203,10.80900654
57.77328008,0.739808321,-10.43393135,-3.892971992,11.16106943
57.77828655,0.873883605,-10.66137981,-3.835511208,11.36397106
57.78329116,0.8571242094,-10.84812832,-3.404554844,11.40208506
57.78784724,0.7230489254,-10.9199543,-3.01429987,11.35139663
57.79327001,0.349553436,-10.98699188,-2.434903145,11.25899336
57.79827547,-0.1340752989,-11.01093388,-2.190694571,11.22754576
57.80327947,-0.4118026793,-10.97023201,-2.396595955,11.23651387
57.80828378,-0.517147541,-10.88404083,-2.762908697,11.24114989
57.81328878,-0.2466027737,-10.9247427,-3.059789658,11.34782484
57.81829547,0.2322375625,-11.018116,-3.289633036,11.50106516
57.82330047,0.8379706144,-11.10670185,-3.078943491,11.55599038
57.82827308,1.728613615,-11.16176796,-2.401384354,11.54728608
57.83327801,2.540247917,-11.09233665,-1.592144132,11.49033136
57.8382847,3.320757866,-11.12824917,-0.7852981687,11.63967592
57.84328755,3.983951569,-11.32457447,-0.1316810995,12.00563188
57.84829208,4.548983097,-11.6765213,0.2442085743,12.53371592
57.85329801,5.111620426,-12.20563984,0.4022258818,13.23888564
57.85830416,5.339069843,-12.71560478,0.3280056417,13.79492151
57.86327762,5.379771233,-13.17768574,-0.0143652102,14.23353597
57.86828162,5.23851347,-13.56075859,-0.6129156351,14.55032173
57.87328632,4.855441093,-14.02523327,-1.482010841,14.91572434
57.87784478,4.446032524,-14.28620148,-1.999158382,15.09501216
57.88326601,3.442862034,-14.7841959,-2.779668093,15.43218397
57.88830101,2.437297344,-15.17444992,-3.337517262,15.72715391
57.89327578,1.314416766,-15.40908241,-3.847482204,15.93645605
57.89828193,0.004788403399,-15.36359215,-4.453215122,15.99597173
57.90328539,-1.060631394,-15.11220074,-4.855441093,15.90845242
57.90829001,-1.908178806,-14.85123348,-5.05894804,15.80484855
57.91329401,-2.360682964,-14.54716969,-4.620809078,15.4448971
57.91830255,-2.327163935,-14.2095871,-3.38061285,14.7904226
57.92327547,-1.984793186,-14.16409683,-2.509123325,14.5209071
57.92827885,-1.403002143,-14.1808567,-1.778891921,14.36069526
57.93328416,-0.6320692301,-14.23113537,-1.395819545,14.31338666
57.93829116,0.2202665508,-14.31972027,-1.443703651,14.39399827
57.94329393,0.605733037,-14.29098988,-1.659181833,14.39972876
57.94829885,0.605733037,-14.29098988,-1.659181833,14.39972876
57.95327424,-0.1029506698,-14.06832886,-1.960851192,14.20469687
57.95827862,-0.9840168953,-14.11860752,-1.551442742,14.23763822
57.96328324,-2.054224968,-14.22634697,-0.3734954596,14.37874428
57.96828747,-2.827552319,-14.28859615,1.098938584,14.60707699
57.9732937,-3.390189648,-14.4849205,2.458845139,15.07820371
57.97829708,-3.928884983,-14.71236992,4.106055737,15.7717995
57.9833017,-4.611232281,-14.74349403,5.243301868,16.31337776
57.98827639,-5.382165432,-14.54238129,5.978321552,16.61893158
57.9932817,-6.181828976,-14.26704788,6.129156113,16.71317502
57.99828878,-6.988674641,-14.07072353,5.111620426,16.52136488
58.00329093,-7.354987621,-13.99410915,3.634398222,16.2215839
58.00829639,-7.896077156,-14.07551193,1.944091797,16.25569327
58.01329985,-8.224082947,-14.53519821,0.02394201607,16.70054192
58.01827609,-7.668628216,-15.41626453,-2.408566952,17.38592148
58.02327978,-7.10599041,-16.14649582,-3.852270603,18.05670002
58.02828655,-6.519411087,-16.7234993,-4.381389141,18.47632865
58.03284232,-6.050147533,-17.00601387,-4.65193367,18.63999141
58.03826447,-5.961562157,-16.8120842,-4.888959885,18.49562995
58.04330047,-6.114790916,-16.29493713,-4.929661274,18.08914604
58.04827339,-6.157886982,-15.61258888,-5.013458252,17.51591469
58.05327985,-5.71974802,-14.90151119,-4.572925091,16.60368023
58.05828478,-4.891354084,-14.06354046,-3.136404276,15.21662074
58.06328939,-4.074931145,-13.52005672,-2.042253971,14.26771877
58.06829301,-3.538630009,-12.76827812,-1.00317049,13.28748206
58.0732977,-2.832340717,-12.11705494,1.431732655,12.52577474
58.07830501,-0.08379705995,-12.48815632,6.129156113,13.91142066
58.0832777,2.274491549,-13.00290966,6.701370716,14.80396369
58.08828316,3.500322819,-13.18486881,3.883395195,14.18357443
58.09328816,3.129221678,-12.8401041,1.113303781,13.2627202
58.09829301,2.537853718,-12.29662037,-0.5554547906,12.56805888
58.1032977,2.695871115,-11.8967886,-0.5793967843,12.21216609
58.10830262,2.719813108,-11.35809326,-0.1364694983,11.67999528
58.11327639,2.348711967,-10.53688145,0.4118026793,10.80332819
58.1182817,1.661576033,-9.859322548,0.5075707436,10.0112289
58.12328693,0.9074024558,-9.287108421,0.6440402865,9.353531415
58.12784378,0.2250549644,-8.597578049,1.012747288,8.659945445
58.13326632,-0.4548983276,-7.520187378,1.697489023,7.722798694
58.13830078,-0.8595184088,-6.744466305,2.049436569,7.101182147
58.14327609,-1.233013868,-5.932831764,2.111685991,6.417011272
58.14828039,-1.484405041,-5.272032261,1.982398987,5.824747911
58.15328593,-1.659181833,-4.649539471,2.006340981,5.328837188
58.15784408,-1.848323703,-4.319139957,1.927332401,5.077979979
58.1632647,-1.886630893,-3.842693806,1.814804912,4.64964393
58.16829978,-1.721431017,-3.579331636,1.606509328,4.284368323
58.17327455,-1.498770237,-3.450044632,1.424550056,4.02224602
58.17827955,-1.467645645,-3.378218651,1.304839969,3.907550682
58.18328501,-1.55862534,-3.347094059,1.15161097,3.86762969
58.18828901,-1.630451322,-3.301604033,0.988805294,3.812702009
58.19329401,-1.766920805,-3.303998232,0.9361328483,3.861962993
58.19829862,-1.968033791,-3.177105665,0.9672574997,3.860407295
58.20330385,-2.037465572,-2.983175278,1.079784989,3.77048224
58.20827893,-2.19308877,-2.801215887,1.084573388,3.719240276
58.21328224,-2.449268341,-2.662352324,1.199495077,3.811275868
58.21784139,-2.628833532,-2.559401512,1.371877551,3.917058827
58.2232927,-2.659958124,-2.434903145,1.446097851,3.885270845
58.2282977,-2.71502471,-2.315192938,1.515529633,3.876636117
58.23330224,-2.782062292,-2.166752577,1.589749932,3.868073445
58.23827824,-2.760514498,-1.956062794,1.731007814,3.800396032
58.24328293,-2.726995707,-1.81959331,1.831564307,3.755270058
58.24828662,-2.554613113,-1.795651317,1.800439715,3.604441008
58.25329216,-2.298433542,-1.872265697,1.78128612,3.458490397
58.25829647,-2.08295536,-1.951274395,1.699883223,3.322014113
58.26330193,-1.865083098,-2.035071373,1.601720929,3.191482476
58.26827609,-1.680729628,-2.073378563,1.391031146,3.009770489
58.27328047,-1.630451322,-2.090138197,1.244984865,2.9286578
58.27828593,-1.625662923,-2.08295536,0.9911994934,2.822048796
58.28329093,-1.611297727,-2.130839586,0.5937620401,2.736660568
58.28829516,-1.831564307,-2.22900176,0.1221042871,2.887557119
58.29330078,-1.994369984,-2.30801034,-0.383072257,3.074275153
58.29827424,-2.092532396,-2.461239338,-1.130063176,3.4224894
58.30283216,-2.200271368,-2.741360903,-2.066195965,4.077428044
58.30828378,-2.252943754,-3.229778051,-3.339911461,5.163548236
58.31328908,-2.217030764,-3.632004023,-4.491522312,6.187119791
58.31829524,-2.094926596,-4.259284973,-5.461174011,7.235651146
58.32285093,-2.066195965,-4.865017891,-7.091625214,8.844699713
58.32827362,-2.243366957,-5.813121796,-9.361329079,11.24542407
58.33327855,-2.365471363,-6.852205276,-11.13782597,13.28906841
58.33828355,-2.128445387,-8.006210327,-12.78264332,15.23238831
58.34328778,-1.326387763,-9.418789864,-13.85285091,16.80399909
58.3482927,-0.7038952708,-11.44428444,-13.77144814,17.9198186
58.35285001,-0.3543418646,-13.26866627,-13.09628296,18.64659996
58.35827209,-0.06224924326,-15.78736591,-12.01889229,19.84183886
58.36327701,0.3064578176,-19.73540497,-11.90636539,23.0508495
58.36828193,0.1987187415,-22.8215313,-12.67011547,26.10351712
58.37328562,0.03112462163,-25.29953003,-15.93341255,29.89884319
58.37829178,-0.5913678408,-26.80308723,-22.72336769,35.144084
58.3832967,-0.08140286058,-26.90843201,-23.53260803,35.74708352
58.3883017,0.4333505034,-25.11278152,-18.39704514,31.13343634
58.39327586,0.5195417404,-21.43289375,-13.88876438,25.54479662
58.39828139,0.08619125932,-16.57745171,-11.39640045,20.11708918
58.40328562,0.02394201607,-10.16338634,-10.91755962,14.91603511
58.40829001,-0.04309562966,-5.87297678,-11.18092155,12.629597
58.41329486,-0.55784899,-2.652775526,-10.66616821,11.00525138
58.41830047,-1.199495077,-0.5410895944,-9.002198219,9.097864539
58.42327432,-1.941697598,0.3016694188,-6.615179062,6.900854151
58.42827924,-2.86107111,-0.4788403511,-5.521028996,6.23672808
58.43328501,-4.213795185,-2.30801034,-5.185841084,7.069365554
58.43828932,-5.571307182,-4.46279192,-4.486733913,8.431296261
58.44329401,-6.830657482,-7.314286232,-3.069366693,10.46793564
58.44829832,-7.608773232,-9.564835548,-1.924938202,12.37274813
58.45330355,-8.099584579,-11.75792408,-0.3950432837,14.2831407
58.45827793,-7.762001991,-14.02762794,1.462857246,16.09853944
58.46328386,-6.80192709,-17.08262825,2.020706177,18.49772022
58.46828747,-5.58088398,-19.65879059,-0.6655880809,20.44645008
58.4728457,-3.572149038,-21.94285774,-3.675099611,22.5334332
58.47826932,-1.417367458,-23.37698555,-4.398148537,23.82931167
58.48330409,0.1388636976,-22.94124031,-4.046200752,23.29574061
58.4878297,2.300827742,-20.54703903,-3.79480958,21.02082779
58.49283462,3.727771997,-17.2837429,-3.241749048,17.97590025
58.49783916,2.930502892,-13.45541382,0.08858546615,13.77112398
58.50284416,0.1867477298,-9.057265282,6.028599739,10.88177118
58.50826601,-3.327940464,-4.647145271,8.896853447,10.57474104
58.51330132,-5.58088398,-2.992752075,6.347028732,8.96591349
58.51827578,-8.264783859,-2.037465572,0.09576806426,8.512760405
58.52328101,-9.540893555,-1.855506301,-3.749319792,10.41772299
58.5282847,-9.706093788,-1.963245392,-4.084507942,10.71194633
58.53329032,-8.889671326,-2.37744236,-2.248155355,9.47273408
58.53829516,-6.528987885,-3.579331636,0.0287304204,7.44581246
58.54330039,-4.393360138,-5.015852451,1.302445769,6.79387622
58.54827516,-2.420537949,-6.696582317,3.248931646,7.82679855
58.55327978,-1.039083481,-8.32463932,6.059724331,10.34889237
58.55828539,-0.1005564705,-9.732429504,10.0269165,13.973881
58.56329032,0.5913678408,-10.58716011,11.73158836,15.81353347
58.56829455,0.8643068075,-11.37485218,12.14099693,16.65947463
58.57329832,0.6296750307,-12.10747814,11.85848141,16.95910077
58.57830409,0.8427590132,-12.89517021,10.56321812,16.69063314
58.58327793,1.48679924,-13.47217274,8.904036522,16.21702428
58.58783578,2.183511972,-13.94622517,6.39491272,15.497091
58.59328786,3.100491285,-14.36521053,1.319205165,14.75508801
58.59829278,3.950432777,-14.64533138,-4.268861771,15.75800848
58.60329709,3.883395195,-14.38675785,-7.867346764,16.8509556
58.6083017,2.959233284,-13.66610336,-9.284713745,16.78467611
58.61327639,1.757344007,-12.62223148,-8.65743351,15.4064967
58.61828132,0.8571242094,-11.84650993,-6.818686485,13.69558122
58.62328724,-0.08140286058,-11.15697956,-4.774038315,12.13574312
58.62829124,-0.9983820915,-10.56561184,-2.841917515,10.98660164
58.63329586,-2.04704237,-9.983820915,-1.314416766,10.27593081
58.63830447,-2.916137695,-9.500192642,-0.7709329724,9.967540165
58.64327647,-3.684676409,-9.097966194,-0.6368576288,9.836433131
58.64828109,-4.560954094,-8.63109684,-0.6009446383,9.780555678
58.6532857,-5.195417881,-8.025363922,-0.009576806799,9.560278487
58.65829116,-5.72214222,-7.472303391,-0.0191536136,9.411620286
58.66329463,-6.069301128,-7.058106422,-0.4764461517,9.32095936
58.66830078,-6.189011574,-6.845022678,-0.7781155705,9.260867323
58.67327455,-5.518634796,-7.022193432,-0.9911994934,8.986045128
58.67783239,-4.584896088,-7.304709435,-1.173158884,8.703812603
58.68328409,-3.881000996,-7.433996201,-0.9385270476,8.438441874
58.68828816,-3.541024208,-7.242460251,-1.055842996,8.130614206
58.69329493,-2.729389906,-7.264008045,-1.206677675,7.853117416
58.69829863,-2.039859772,-7.230489254,-0.8355764151,7.559046943
58.70330347,-1.254561663,-7.149086475,-0.5219359994,7.277072185
58.7082777,-0.6512228847,-7.201758862,-0.4141969085,7.242995307
58.71283547,-0.1221042871,-7.343016624,-0.4620809257,7.3585543
58.71828932,0.323217243,-7.424419403,-0.6344634295,7.458486221
58.72284509,0.5793967843,-7.541735172,-0.720654726,7.598211189
58.72826662,0.8619126081,-7.661445618,-0.7350199223,7.744733474
58.73330201,1.017535686,-7.800309181,-0.8140285611,7.908403423
58.7378297,1.122880578,-7.912836552,-0.9169792533,8.044544365
58.7432817,1.199495077,-7.999027729,-1.012747288,8.151618865
58.74828655,1.218648672,-8.123526573,-1.000776291,8.275164153
58.7528447,1.120486379,-8.209717751,-1.036689281,8.350429925
58.75781916,0.825999558,-8.353369713,-1.024718285,8.45642409
58.76327063,0.586579442,-8.508993149,-1.237802267,8.618537828
58.76827555,0.174776718,-8.753201485,-1.549048543,8.890929902
58.77328078,-0.08379705995,-8.930372238,-1.70946002,9.092899638
58.77828593,-0.3687070608,-9.093177795,-1.850717902,9.286925437
58.78329032,-0.6296750307,-9.148244858,-1.982398987,9.381725873
58.78829463,-0.8283938169,-9.15063858,-1.774103403,9.357770334
58.79330047,-0.9457096457,-9.174580574,-1.489193439,9.342643766
58.79827616,-0.9935936928,-9.107542992,-1.125274777,9.230428543
58.8028327,-1.00556469,-9.033323288,-0.5937620401,9.108492923
58.80828378,-1.065419793,-9.006986618,-0.004788403399,9.069782258
58.8128417,-1.120486379,-8.803479195,0.3399766386,8.881008939
58.81781609,-1.063025594,-8.537723541,0.2442085743,8.607112437
58.82326809,-0.9672574997,-8.271966934,0.02394201607,8.328361018
58.82827301,-0.7517793179,-8.123526573,-0.1628057212,8.159862856
58.83283155,-0.5961562395,-8.06127739,-0.1915361285,8.085560061
58.83828263,-0.4716577232,-8.104372978,-0.2561795712,8.122127206
58.84284109,-0.4285621047,-8.32463932,-0.3303998411,8.342208901
58.84784563,-0.4022258818,-8.513781548,-0.4094084799,8.533104781
58.85326662,-0.390254885,-8.82263279,-0.7637503147,8.864223754
58.85785516,-0.4261679053,-9.095572472,-1.249773264,9.190918936
58.86327739,-0.5075707436,-9.332598686,-2.059013367,9.570504811
58.86783462,-0.5339069963,-9.595960617,-2.583343744,9.951943617
58.87328686,-0.6416460276,-9.864110947,-3.268085241,10.41118512
58.87829216,-0.6392518282,-10.09874249,-3.53384161,10.71826848
58.88329732,-0.85473001,-10.3405571,-3.435679436,10.92984802
58.88830163,-1.079784989,-10.51293945,-3.258508444,11.05919115
58.89327493,-1.371877551,-10.69489861,-3.05021286,11.20565494
58.89828101,-1.470039845,-10.80024433,-2.978386879,11.29942844
58.90283862,-1.613691926,-10.81221485,-2.590526342,11.23471488
58.90829032,-1.582567334,-10.75475407,-1.831564307,11.02378711
58.91329463,-1.22583127,-10.73081207,-1.419761658,10.89351703
58.9183004,-0.6991068721,-10.60391903,-1.180341482,10.69228952
58.92282693,-0.08619125932,-10.45308495,-1.00317049,10.50146489
58.92827924,0.8307880163,-10.24478912,-0.7038952708,10.30249394
58.93328347,1.642422318,-10.09874249,-0.7422025204,10.25831445
58.93784163,2.511517525,-10.08677197,-1.118092179,10.4547032
58.94326409,3.734954596,-10.34295177,-1.594538331,11.11166458
58.94785155,4.642356873,-10.82418633,-1.908178806,11.931288
58.95282655,5.509057999,-11.50892735,-2.128445387,12.93581882
58.95827947,6.232107162,-12.31098557,-2.188300371,13.97097648
58.96328255,6.794744492,-13.29260826,-2.169146776,15.08533012
58.96828755,6.99106884,-13.97734928,-2.023100376,15.75862531
58.97329309,6.87854147,-14.51604462,-1.769315004,16.16045667
58.9782977,6.337451935,-14.90390587,-1.666364431,16.28086231
58.98330232,5.444414616,-15.22951698,-1.982398987,16.29446973
58.98827701,4.211400986,-15.37316895,-2.298433542,16.10444095
58.9932814,2.93768549,-15.43302441,-2.880224705,15.97197335
58.99828747,1.537077546,-15.44978333,-3.749319792,15.9723452
59.00329124,0.2585737705,-15.31091976,-4.390965939,15.93021363
59.00829647,-0.9121908545,-15.10741234,-4.967968464,15.92942907
59.01285455,-1.750161409,-15.03079796,-5.080495834,15.96243685
59.01827486,-2.221819162,-15.14332581,-4.268861771,15.88961855
59.02328132,-2.128445387,-15.48809052,-3.289633036,15.97601055
59.02783863,-1.745373011,-15.77539539,-2.097320795,16.00962777
59.03329032,-1.221042871,-15.97650814,-1.106121182,16.06123476
59.03785001,-0.6081272364,-16.16086197,-0.6009446383,16.18346109
59.04327093,-0.09337386489,-16.11058235,-0.3112462163,16.11385915
59.04827493,-0.1675941199,-15.70356941,-0.3280056417,15.70788871
59.05327978,-0.8858546019,-14.97333717,-0.5363011956,15.00910335
59.0582844,-2.300827742,-13.98932076,-0.720654726,14.19557138
59.06328878,-3.41892004,-13.41710663,-0.4860229492,13.85438497
59.0682937,-4.120420933,-13.09388924,0.181959331,13.72810669
59.07329801,-4.584896088,-12.8640461,1.103726983,13.70121043
59.0783044,-5.044582844,-12.82334423,2.324769735,13.97463873
59.08327832,-5.480327606,-12.9382658,3.12203908,14.39374311
59.08828286,-6.150704384,-13.04361057,3.811569214,14.91626632
59.09328816,-7.101202011,-13.12980175,4.292803764,15.53212568
59.09829332,-8.683769226,-13.32612705,4.30956316,16.47925498
59.1032974,-9.567230225,-13.62300777,3.857059002,17.08786526
59.10830201,-10.38844109,-13.94622517,2.837129116,17.62005125
59.11327616,-10.81221485,-14.29338455,1.340752959,17.97226893
59.11828293,-10.85052204,-15.06431675,-1.312022567,18.61152522
59.12328655,-10.13465595,-15.75863552,-3.481169224,19.05687235
59.12829147,-9.193734169,-16.26620674,-5.216965675,19.39925155
59.13284909,-8.425195694,-16.65646172,-5.94719696,19.59057914
59.13782409,-8.501810074,-16.67082596,-5.434837818,19.48678205
59.14327586,-9.971850395,-15.74427032,-4.381389141,19.14461854
59.14783363,-10.0604353,-14.87996387,-3.837905407,18.36723172
59.15328509,-8.520963669,-13.89834118,-2.940079689,16.56546945
59.15829063,-6.540958881,-13.38358784,-2.71263051,15.14143094
59.16329455,-4.898536682,-12.85686302,-2.97359848,14.07611013
59.16830009,-4.146757126,-12.02368069,-3.45722723,13.18017117
59.17327547,-2.918531895,-11.40118885,-2.274491549,11.98658615
59.17783209,-1.697489023,-11.34612179,-0.9864110947,11.51472776
59.18283701,-0.2777273953,-11.05163479,1.692700624,11.1839617
59.18828909,0.8858546019,-11.14022064,4.42209053,12.01849154
59.1932937,2.904166698,-11.38203526,5.571307182,13.00093745
59.19830047,4.486733913,-11.55202293,3.308786631,12.82685012
59.20327209,4.850652695,-11.41555405,0.6296750307,12.41934766
59.20783063,4.874594688,-11.14740276,-0.4165911078,12.17373443
59.21283516,5.063736439,-10.93192482,-0.6703764796,12.06639182
59.21828755,4.374206543,-10.25675964,-0.7158663273,11.17350732
59.22284509,3.64158082,-9.701305389,-0.3327940404,10.36760286
59.22826655,2.743755102,-9.097966194,0.1867477298,9.504528165
59.23330255,1.778891921,-8.180987358,0.4692635238,8.385297781
59.23827609,1.302445769,-7.472303391,0.8978256583,7.637916853
59.24328163,0.8355764151,-6.622362137,1.446097851,6.829719409
59.24828663,0.1508347094,-5.676652431,1.8602947,5.975602924
59.25284417,-0.1771709323,-4.893748283,2.173935175,5.357812608
59.25826593,-0.5602431893,-4.328716755,2.865859509,5.221571784
59.26330047,-1.027112484,-3.971980572,2.82036972,4.978561547
59.26782817,-1.216254473,-3.658340216,2.624045134,4.663511653
59.27327986,-1.027112484,-3.519476414,1.735796213,4.056434737
59.27828809,-1.051054597,-3.466804028,1.113303781,3.789840529
59.28329032,-1.235408068,-3.397372246,0.825999558,3.708186422
59.28829516,-1.611297727,-3.483563423,0.6009446383,3.884923287
59.2933007,-1.675941229,-3.545812607,0.6416460276,3.974075448
59.29827463,-1.8602947,-3.648763418,0.5817909837,4.136744082
59.30283209,-2.152387381,-3.672705412,0.423773706,4.277980906
59.30783647,-2.499546528,-3.722983599,0.3088520169,4.49485587
59.31328901,-2.995146275,-3.696647406,0.4501099288,4.778985478
59.31784624,-3.318363667,-3.586514235,0.7038952708,4.936607168
59.32326878,-3.514688015,-3.471592426,0.9457096457,5.029846176
59.32827332,-3.665522814,-3.392583847,1.213860273,5.139955196
59.33327801,-3.677493811,-3.280056238,1.333570361,5.10501122
59.33828293,-3.691859007,-3.117250681,1.335964561,5.013170259
59.34328755,-3.639186621,-2.992752075,1.335964561,4.897452966
59.3482924,-3.579331636,-2.894589901,1.242590666,4.768049624
59.35329763,-3.430891037,-2.827552319,1.177947283,4.599307037
59.35830409,-3.162740469,-2.784456491,1.079784989,4.349949523
59.3632774,-2.853888512,-2.79163909,0.9696516991,4.108302917
59.36828109,-2.48996973,-2.839523315,0.8475474119,3.870552743
59.37328663,-2.157175779,-2.868253708,0.7110779285,3.658677151
59.37829186,-1.872265697,-2.911349297,0.5817909837,3.509959304
59.38284901,-1.608903527,-2.995146275,0.4955997467,3.435853733
59.38782347,-1.422155857,-3.052607059,0.3734954596,3.388279209
59.39282878,-1.252167463,-3.15795207,0.1340752989,3.399788349
59.39828016,-1.237802267,-3.239354849,-0.1149216816,3.469694696
59.40328632,-1.26413846,-3.339911461,-0.5195417404,3.608736376
59.40829001,-1.335964561,-3.483563423,-0.8930372596,3.836343438
59.41284755,-1.477222443,-3.636792421,-1.393425345,4.165342657
59.41782193,-1.651999116,-3.801992416,-2.099714994,4.646832305
59.42282724,-1.867477298,-4.003105164,-2.961627483,5.318229006
59.42827832,-2.104503393,-4.278438568,-4.266467571,6.39818073
59.43283701,-2.04704237,-4.580107689,-5.521028996,7.459861264
59.43829178,-1.934514999,-4.920084476,-6.921637058,8.70968651
59.44329493,-1.872265697,-5.355829239,-8.901641846,10.55601787
59.44829832,-1.874659896,-6.004657745,-10.6398325,12.36027103
59.45330378,-1.838746905,-6.936002254,-12.24873543,14.19579646
59.4582774,-1.845929503,-8.192957878,-14.11381912,16.42351682
59.46328324,-1.774103403,-10.13226128,-15.38514042,18.50709883
