Time (s),Acceleration x (m/s^2),Acceleration y (m/s^2),Acceleration z (m/s^2),Absolute acceleration (m/s^2)
50.00018416,0.3758896589,-9.358934402,-0.7469909191,9.396219539
50.00518663,0.2035071403,-9.346963882,-0.6799532771,9.373872489
50.01016163,-0.04548983276,-9.31823349,-0.6272808313,9.33943392
50.01516632,-0.5123591423,-9.179368973,-0.4548983276,9.20490408
50.02017124,-0.8906430602,-9.002198219,-0.2274491638,9.049008286
50.02517616,-1.161187768,-8.863334656,-0.08379705995,8.939467557
50.03018101,-1.371877551,-8.655038834,0.1675941199,8.764692409
50.0351857,-1.48679924,-8.50420475,0.181959331,8.635113179
50.04019055,-1.594538331,-8.334216118,-0.07661445439,8.485728051
50.04516532,-1.623268723,-8.149862289,-0.4070142806,8.319910896
50.05016901,-1.477222443,-8.030152321,-0.6105214357,8.187690081
50.05517463,-1.290474772,-8.104372978,-0.691924274,8.235590186
50.06017947,-1.146822572,-8.255207062,-0.7781155705,8.370729328
50.06518386,-1.055842996,-8.415618896,-0.8906430602,8.52822906
50.0701894,-0.9337386489,-8.659827232,-1.180341482,8.789634894
50.07516386,-0.7805097699,-8.865729332,-1.44849205,9.017121564
50.08017086,-0.5770025849,-9.076418877,-1.644816518,9.242279642
50.08517332,-0.3687070608,-9.313444138,-1.78128612,9.489423947
50.09017701,-0.1149216816,-9.579200745,-2.011129379,9.78871469
50.09518316,0.09816227108,-9.856928825,-2.233790159,10.10734882
50.10018716,0.2896983922,-10.14662647,-2.408566952,10.43260028
50.10516232,0.3926490843,-10.43632507,-2.466027737,10.73090617
50.11016693,0.5147533417,-10.67574501,-2.557007313,10.98975837
50.11517209,0.5363011956,-10.80263805,-2.748543501,11.15970874
50.1201764,0.5746083856,-10.86488724,-2.93529129,11.26906759
50.1251814,0.672770679,-10.88643551,-3.016694069,11.31669305
50.13018624,0.8331822157,-10.92234802,-2.952050686,11.34488793
50.13516101,0.895431459,-10.86249352,-2.731784105,11.23646774
50.14016593,1.048660398,-10.78587818,-2.56897831,11.137078
50.14517001,1.163581967,-10.72602367,-2.576161146,11.09225464
50.15017578,1.235408068,-10.70687008,-2.588132143,11.08430097
50.15517978,1.307234168,-10.723629,-2.552218914,11.10040096
50.16018716,1.477222443,-10.83855152,-2.669534922,11.25978694
50.16519055,1.666364431,-11.05163479,-2.71502471,11.5015982
50.17016509,1.824381709,-11.3030262,-2.41335535,11.70089971
50.17517032,1.968033791,-11.44667816,-1.939303398,11.77541913
50.18017486,2.166752577,-11.61666679,-1.45088625,11.90574798
50.18518009,2.358288765,-11.71722317,-0.962469101,11.99087951
50.1901844,2.365471363,-11.79862595,-0.6296750307,12.04987633
50.1951894,2.255337954,-11.82256794,-0.3998316824,12.04240538
50.20016317,2.049436569,-11.901577,-0.316034615,12.08087758
50.20516878,1.745373011,-12.02846909,-0.4548983276,12.16294898
50.21017301,1.436521053,-12.21282291,-0.7541735172,12.32012232
50.21517824,1.139639974,-12.40914726,-1.307234168,12.52974765
50.22018324,0.7613561153,-12.6485672,-1.956062794,12.82154815
50.22518724,0.3064578176,-13.00051498,-2.8969841,13.32290596
50.23016286,-0.0718260482,-13.30697346,-3.588908434,13.78263274
50.23516778,-0.538695395,-13.51047993,-3.94085598,14.08380653
50.2401737,-0.9744400978,-13.64934349,-4.046200752,14.26975304
50.24517709,-1.505952835,-13.68525696,-3.895366192,14.3083203
50.25018193,-1.917755604,-13.67089176,-3.823540211,14.32447304
50.25518686,-2.176329374,-13.63258457,-3.849876404,14.33196846
50.26016132,-2.240972757,-13.49611473,-3.8642416,14.21616808
50.26516563,-2.015917778,-13.37879944,-3.857059002,14.06887
50.27017063,-1.695094824,-13.29739666,-3.586514235,13.87649771
50.27517617,-1.407790542,-13.20162773,-3.251325846,13.66879544
50.28018078,-1.106121182,-13.06994724,-3.155557871,13.49090696
50.2851854,-0.7996633649,-12.70123959,-3.023876667,13.08070253
50.29019024,-0.8403648138,-12.2846489,-2.671929121,12.5999213
50.29516447,-1.417367458,-11.8728466,-2.090138197,12.1384552
50.30017055,-2.063801765,-11.54962921,-1.256955862,11.79970977
50.30517455,-2.583343744,-11.39879417,0.2322375625,11.69017142
50.31017916,-2.738966703,-11.74834728,1.173158884,12.12030958
50.31518417,-3.172317266,-12.32535076,1.951274395,12.87576561
50.32019117,-3.588908434,-12.91671848,2.729389906,13.6810617
50.3251647,-3.845088005,-13.73792934,3.904942989,14.7906722
50.33016847,-3.919308186,-14.28859615,4.826710701,15.58274985
50.33517424,-4.070142746,-14.58068848,5.291185856,16.03618365
50.34017832,-4.568136692,-14.67166805,5.066130638,16.17996897
50.34518232,-5.341464043,-14.79616642,4.161122322,16.27183818
50.35018809,-5.980715752,-15.08107662,2.997540474,16.49827512
50.35516263,-6.347028732,-15.62456036,1.601720929,16.94040053
50.36016693,-6.217741966,-16.23508263,-0.2394201756,17.38664847
50.36517217,-5.896918774,-16.91503525,-1.438915253,17.97115872
50.37017678,-5.489904404,-17.18318558,-2.161964178,18.16796648
50.37518163,-4.932055473,-17.14008904,-2.525882721,18.01354787
50.38018655,-4.38378334,-16.74265289,-3.08373189,17.57962982
50.38516163,-3.971980572,-16.07467079,-3.682282209,16.96263166
50.39016593,-3.928884983,-15.14332581,-4.690241337,16.33263045
50.39517124,-3.557783842,-14.40591145,-4.50109911,15.5063859
50.40017793,-2.576161146,-13.74750614,-3.636792421,14.45187844
50.40518132,-2.011129379,-13.14656162,-2.844311714,13.60025121
50.41018563,-1.244984865,-12.68687439,-0.873883605,12.77773226
50.41519055,-0.4309563041,-12.56237602,0.9720458984,12.60729503
50.42016447,0.9504981041,-12.52167511,2.358288765,12.77721879
50.42517001,2.226607561,-12.5551939,1.922544003,12.89522588
50.43017401,2.817975283,-12.49055004,0.8882488012,12.83525656
50.4351804,2.444479942,-12.22479343,0.6177040339,12.48209177
50.44018447,1.592144132,-11.75553036,0.873883605,11.89500271
50.4451897,1.307234168,-11.42991924,0.940921247,11.54284401
50.45016417,0.8403648138,-10.98459721,0.9864110947,11.06076831
50.4551687,0.3639186621,-10.45787334,1.106121182,10.52250235
50.46017247,0.03830722719,-9.672574997,1.233013868,9.750922916
50.46517824,0.06703764945,-8.987833023,1.501164436,9.112580928
50.47018294,0.07900865376,-8.497021675,1.721431017,8.670002564
50.47518809,-0.2777273953,-8.396465302,1.716642618,8.574650077
50.48016501,-0.873883605,-7.795520782,1.855506301,8.060813883
50.48516778,-1.185129881,-7.165845871,2.035071373,7.542903643
50.49017178,-1.398213744,-6.502651691,1.97042799,6.937007075
50.49517794,-1.668758631,-5.892130375,1.853112102,6.398123177
50.5001814,-1.934514999,-5.195417881,1.647210717,5.783426181
50.50518717,-2.178723574,-4.764461517,1.295263171,5.396724622
50.51016101,-2.509123325,-4.42448473,0.940921247,5.172726339
50.5151657,-2.923320293,-4.127603531,0.653617084,5.100012523
50.52017117,-3.153163671,-3.892971992,0.3806780577,5.024200221
50.52517609,-3.339911461,-3.706224203,0.2992752194,4.998066833
50.53018101,-3.521870613,-3.555389643,0.3639186621,5.017649342
50.53518532,-3.610456228,-3.390189648,0.4118026793,4.969744608
50.53974294,-3.574543238,-3.280056238,0.5195417404,4.879144587
50.54471794,-3.624821424,-3.189076662,0.6368576288,4.869818062
50.54972347,-3.799597979,-2.97599268,0.6488286853,4.869749058
50.55472694,-3.957615376,-2.832340717,0.7254431248,4.920481798
50.56018286,-4.065354347,-2.813186884,0.7565677166,5.001351929
50.56518478,-4.115632534,-2.863465309,0.8020575643,5.077515245
50.57019032,-4.09408474,-2.928108692,0.8690952063,5.107903371
50.57516417,-4.010287762,-2.992752075,0.9911994934,5.101122362
50.58016847,-3.876212597,-3.004723072,1.113303781,5.029197763
50.58517432,-3.722983599,-3.009511471,1.132457376,4.919372508
50.59017763,-3.464409828,-3.043030262,1.086967587,4.737474767
50.59518378,-3.169923067,-3.059789658,0.9097966552,4.498717034
50.60018786,-3.071760893,-3.138798475,0.7493851185,4.455260812
50.6051617,-3.026270866,-3.162740469,0.5363011956,4.410086349
50.61016663,-2.961627483,-3.222595453,0.316034615,4.388192872
50.61472501,-2.875436306,-3.292027235,0.03351882473,4.371121227
50.62017678,-2.93529129,-3.488351822,-0.5674257874,4.594181692
50.62473494,-3.023876667,-3.684676409,-1.122880578,4.897094151
50.63015647,-2.999934673,-3.909731388,-1.707065821,5.215331369
50.63516101,-2.887407303,-4.177882195,-2.466027737,5.645627809
50.6401684,-2.760514498,-4.448426723,-3.138798475,6.104178608
50.64517155,-2.734178305,-4.800374508,-3.816357613,6.714455439
50.6501767,-2.683900118,-5.23851347,-4.441244125,7.37360106
50.65518047,-2.540247917,-5.908889771,-5.322310448,8.348342728
50.66018501,-2.557007313,-6.459556103,-6.052541733,9.213979209
50.66519001,-2.468421936,-7.010222435,-6.773196697,10.05547209
50.67016501,-2.19308877,-7.582436562,-7.048529625,10.58228484
50.67516963,-2.018311977,-8.271966934,-6.993463039,11.01850922
50.68017486,-2.030282974,-8.803479195,-6.818686485,11.3189125
50.68517955,-1.719036818,-9.282320023,-6.921637058,11.70579396
50.69018478,-1.288080573,-10.0460701,-7.134721279,12.38898397
50.69518878,-1.182735682,-10.88164711,-7.299921036,13.15666959
50.70016409,-1.276109457,-11.94706631,-8.628703117,14.79240907
50.7051687,-1.436521053,-13.34528065,-10.96065521,17.3290528
50.71017363,-1.340752959,-15.66286755,-14.82729149,21.60952594
50.71517855,-0.9002198577,-17.79370689,-17.80088997,25.18527515
50.72018478,0.4261679053,-19.61330032,-18.61252403,27.04235973
50.72518817,2.537853718,-20.1903038,-17.57344055,26.88707649
50.73016201,4.515464306,-19.31402588,-14.21198082,24.4008486
50.73516747,4.690241337,-17.76976585,-11.79623222,21.83836159
50.74017155,4.333505154,-15.88313389,-10.39801788,19.47233897
50.74472994,3.734954596,-13.79060173,-9.962273598,17.41773456
50.75015032,3.289633036,-11.16416264,-10.19211674,15.47059974
50.75518724,3.150769472,-9.428366661,-10.58476543,14.52097467
50.76016109,2.724601507,-8.137891769,-10.66856289,13.6918578
50.76516594,2.080561161,-7.228095055,-10.07480049,12.57281583
50.77017117,0.3663128614,-6.375759125,-9.236829758,11.22958207
50.77517547,-0.7134721279,-6.239289761,-7.762001991,9.984310397
50.78018047,-1.891419291,-6.533776283,-5.928043365,9.022715644
50.78518563,-3.129221678,-7.065289021,-3.806780815,8.614053484
50.79019063,-4.718971729,-7.999027729,-0.9433154464,9.33504059
50.7951644,-5.698200226,-9.052476883,1.024718285,10.74555122
50.79972378,-6.342240334,-10.36210537,2.422932148,12.38821377
50.80517578,-5.968744755,-11.91594219,3.244143248,13.71641563
50.81017986,-5.279214859,-13.72116947,3.754108191,15.17346136
50.8151844,-4.819528103,-14.85123348,4.278438568,16.18925643
50.82018909,-4.434061527,-15.54794598,5.31273365,17.01836257
50.82471617,-6.121973515,-16.1345253,6.754043102,18.53155591
50.8297207,-7.070077419,-16.68040276,6.91684866,19.39238578
50.8351737,-6.426037312,-17.23825264,2.901772499,18.62448907
50.84017794,-4.639962673,-17.56625748,-3.804386616,18.56275876
50.84473555,-3.332728863,-17.29810715,-9.248801231,19.89653027
50.85015801,-3.849876404,-14.95657825,-8.066065788,17.42361038
50.85471494,-5.044582844,-12.03325748,-4.302380562,13.73890753
50.86016632,-6.093243122,-9.246406555,-2.7533319,11.41071788
50.86472509,-7.369352818,-6.701370716,-3.754108191,10.64467279
50.86972963,-8.276755333,-4.838681698,-4.417302132,10.5560446
50.87515147,-8.384494781,-3.514688015,-2.331952572,9.385669256
50.87974132,-7.505822182,-3.153163671,0.7637503147,8.176987361
50.88516201,-5.688623428,-3.371036053,4.333505154,7.90592104
50.89016601,-3.988739967,-3.890577793,6.526593685,8.581553893
50.89517055,-2.786850691,-4.517858505,8.295908928,9.848841921
50.9001764,-2.353500366,-5.104437828,10.12268448,11.57855736
50.90518101,-1.699883223,-6.258443356,12.20085144,13.81732579
50.9101857,-2.171540976,-7.417236805,13.31894398,15.39887206
50.91519001,-2.722207308,-8.686163902,13.6301899,16.39029995
50.92016509,-2.595314741,-10.04367638,12.79461384,16.47158878
50.92516963,-2.578555346,-11.80580902,10.42435455,15.95911157
50.93017455,-2.147598982,-13.01009178,7.893682957,15.36830831
50.93517924,-1.089361787,-13.88158131,4.685452938,14.69144234
50.94018324,0.5554547906,-14.61181259,0.5339069963,14.63211037
50.94474286,2.643198729,-15.31570816,-4.259284973,16.11517684
50.94971678,4.30956316,-15.75384712,-8.123526573,18.24137379
50.9551684,4.8291049,-15.79933739,-9.18894577,18.90439209
50.95972809,4.5394063,-15.37795734,-9.026140213,18.39997252
50.96473178,3.646369219,-14.62617779,-7.802703381,16.97360496
50.96970601,2.389413357,-13.49611473,-5.724536419,14.85344156
50.97471001,1.556231141,-12.52167511,-4.297592163,13.3297975
50.97971586,0.7015010715,-11.58554173,-3.114856482,12.01745446
50.98516755,-0.6703764796,-10.30224991,-1.587355733,10.44535572
50.99017209,-1.304839969,-9.323021889,-0.2777273953,9.417986886
50.99517732,-2.130839586,-8.463502884,0.7086837292,8.756345758
51.00018163,-3.335123062,-7.632715225,0.6392518282,8.354042761
51.00518694,-4.022258759,-6.854599476,-0.08379705995,7.948026261
51.0101614,-4.209006786,-6.454767704,-0.2466027737,7.709771538
51.01516663,-4.01747036,-6.311115742,-0.1891419291,7.483717303
51.02017147,-3.624821424,-6.184223175,-0.04788403213,7.168419597
51.02472847,-3.320757866,-6.138733387,0.3112462163,6.986297632
51.03018078,-2.868253708,-6.20337677,0.3447650373,6.843071358
51.03473794,-2.516305923,-6.344634533,0.05506663769,6.825629289
51.04016071,-1.891419291,-6.698976517,-0.3543418646,6.969886044
51.0451657,-1.288080573,-7.137115479,-0.6655880809,7.282896155
51.05017001,-0.7038952708,-7.520187378,-0.7948749661,7.594768789
51.05517401,-0.2322375625,-7.876923561,-0.787692368,7.919616047
51.06017855,0.1149216816,-8.305485725,-0.7493851185,8.340016678
51.06518478,0.3064578176,-8.650250435,-0.7422025204,8.687439989
51.0701894,0.383072257,-8.942343712,-0.6799532771,8.976335103
51.07516348,0.349553436,-9.279925346,-0.6033388376,9.306085095
51.08016817,0.1268926859,-9.533711433,-0.7350199223,9.562845274
51.0851734,-0.2561795712,-9.519346237,-1.125274777,9.589047089
51.09017824,-0.4501099288,-9.404424667,-1.288080573,9.502891867
51.09518348,-0.5770025849,-9.258378029,-1.316810966,9.369337587
51.1001884,-0.8667010069,-9.052476883,-1.503558636,9.217331334
51.10516224,-1.101332784,-8.779537201,-1.549048543,8.982914825
51.11016755,-1.235408068,-8.506598473,-1.400607944,8.709199348
51.11517217,-1.391031146,-8.269572258,-1.163581967,8.466092131
51.11973094,-1.493981838,-8.197746277,-0.9361328483,8.385187563
51.12515186,-1.683123827,-8.051700592,-0.5363011956,8.243203698
51.13018694,-1.733402014,-7.984662533,-0.1723825186,8.172468051
51.1351614,-1.778891921,-7.95832634,0.1029506698,8.155367155
51.14016624,-1.814804912,-7.984662533,0.4094084799,8.198534499
51.14517117,-1.726219416,-8.020575523,0.4429273009,8.216182191
51.1501764,-1.572990537,-8.178592682,0.2466027737,8.332136005
51.15518078,-1.393425345,-8.458714485,-0.06943184882,8.572998642
51.16018501,-1.15400517,-8.889671326,-0.4884171486,8.977557325
51.16518994,-0.8643068075,-9.251194954,-0.7948749661,9.325420127
51.17016501,-0.6512228847,-9.538499832,-1.067813993,9.620150571
51.17516901,-0.3639186621,-9.797073364,-1.405396342,9.904050796
51.18017363,-0.2705447972,-10.09156036,-1.891419291,10.27084476
51.18517948,-0.1628057212,-10.24718285,-2.30561614,10.50462411
51.18973709,-0.08619125932,-10.31422138,-2.650381327,10.64965318
51.19471086,-0.01675941236,-10.3214035,-3.038241863,10.75930131
51.19971832,0.03830722719,-10.31182671,-3.205836058,10.79873244
51.20472163,0.2513911724,-10.29746151,-3.287238836,10.81234712
51.20972594,0.4429273009,-10.30464458,-3.404554844,10.86153204
51.21517832,0.6895300746,-10.23521233,-3.275267839,10.76858405
51.21973586,0.8116343617,-10.18972206,-2.964021683,10.64305457
51.22471024,0.873883605,-10.08916569,-2.126051188,10.34770653
51.22971548,0.9193734527,-10.04367638,-1.48679924,10.19466795
51.23516717,1.055842996,-10.01494598,-0.8667010069,10.1076762
51.24017217,1.118092179,-10.06282997,-0.720654726,10.15037046
51.2451774,1.261744261,-10.11789608,-0.9145850539,10.23720106
51.25018224,1.398213744,-10.18972206,-1.37666595,10.37692857
51.25518571,1.59693253,-10.24478912,-1.97042799,10.55407429
51.26016078,1.915361404,-10.3405571,-2.185906172,10.74122508
51.26516624,2.214636564,-10.51293945,-2.185906172,10.96379026
51.27017063,2.408566952,-10.67335129,-2.001552582,11.12330145
51.27517517,2.561795712,-10.95107841,-1.589749932,11.35853074
51.28018263,2.56658411,-11.20246983,-1.290474772,11.56494744
51.28518571,2.588132143,-11.51132202,-1.063025594,11.84647568
51.28974317,2.53067112,-11.81059742,-0.8379706144,12.10771252
51.29471763,2.365471363,-12.05959415,-0.7445967197,12.31193284
51.3001694,2.183511972,-12.33013916,-0.9385270476,12.55710513
51.30517455,1.980004787,-12.51688671,-1.367089152,12.74605055
51.31017948,1.714248419,-12.68208599,-1.89860189,12.93748978
51.31518409,1.326387763,-12.89756489,-2.561795712,13.21625067
51.32018963,0.8331822157,-13.11543655,-2.983175278,13.47620879
51.32471648,0.2274491638,-13.29979038,-3.483563423,13.75032259
51.33016878,-0.4118026793,-13.38837624,-4.000710964,13.97940943
51.33517332,-1.26413846,-13.29979038,-4.493916512,14.09530971
51.34017832,-1.920149803,-13.14895535,-4.661510944,14.08231821
51.34518255,-2.363077164,-13.06515884,-4.57531929,14.04336341
51.34974017,-2.516305923,-13.02685165,-4.146757126,13.90058467
51.35516294,-2.319981337,-13.15853214,-3.411737442,13.79018615
51.36016871,-1.953668594,-13.39555836,-2.997540474,13.86517413
51.36517248,-1.575384736,-13.73074722,-2.729389906,14.08775446
51.36973055,-1.247379065,-14.00368595,-2.808398485,14.33688518
51.37470286,-0.9648633003,-14.09705925,-3.203441858,14.488619
51.38015578,-0.7996633649,-14.03002167,-3.445256233,14.4689585
51.38516071,-1.015141487,-13.82890892,-3.229778051,14.23729962
51.38971855,-1.673547029,-13.42428875,-2.607285738,13.77716324
51.39517148,-3.062183857,-12.80179691,-1.247379065,13.22191093
51.40017548,-3.948038578,-12.45703125,0.2394201756,13.06988746
51.40518009,-4.541800499,-12.56237602,1.321599364,13.42340747
51.41018563,-5.372588634,-12.80658531,1.774103403,14.00074208
51.41519032,-5.772420406,-13.03164005,2.035071373,14.39743016
51.42016471,-5.94719696,-13.223176,2.655169725,14.74013099
51.42516971,-6.215347767,-13.39076996,3.193865061,15.10443782
51.43017455,-6.919242859,-13.57751751,3.361459255,15.60526551
51.43517955,-7.58722496,-13.83369732,2.97599268,16.05595517
51.44018532,-8.552088737,-14.16649151,2.217030764,16.69559609
51.44518994,-9.31823349,-14.57111168,0.9193734527,17.32027767
51.45016386,-9.44512558,-15.23430538,-1.048660398,17.95533754
51.45516878,-8.918401718,-15.71314621,-2.240972757,18.20612018
51.46017394,-8.164227486,-16.01960373,-2.834734917,18.20214372
51.46517894,-7.366958618,-16.02439117,-2.875436306,17.86956423
51.47018263,-6.31829834,-15.65807915,-2.813186884,17.1175453
51.47518809,-5.38934803,-15.24867058,-2.827552319,16.4183458
51.48016201,-4.778826714,-14.72434044,-3.181894064,15.80404492
51.48471955,-4.994304657,-13.86721611,-3.778050184,15.2156638
51.49017248,-4.256890774,-13.15853214,-3.265691042,14.21030701
51.49517678,-3.186682463,-12.74672985,-3.117250681,13.50375203
51.50018171,-2.279279947,-12.32056236,-2.547430515,12.78596012
51.50518755,-0.7517793179,-12.00692177,-1.022324085,12.07379348
51.50971455,0.517147541,-11.93030739,0.7326257229,11.96396324
51.51516563,1.082179189,-11.8728466,0.988805294,11.96299854
51.52017455,1.606509328,-11.78186703,0.1867477298,11.89235627
51.52517617,2.281674147,-11.77468395,-0.2346317619,11.99601063
51.53018132,2.190694571,-11.51371574,0.4884171486,11.73044519
51.5351854,1.807622313,-11.10909557,0.4525041282,11.26429149
51.54019063,1.695094824,-10.80742645,0.6607996821,10.9594922
51.54516417,1.393425345,-10.47942066,0.6871358752,10.59396278
51.55016971,0.9241618514,-9.792284966,0.490811348,9.848036137
51.55517524,0.7158663273,-9.179368973,0.2729389966,9.2112852
51.5597324,0.4548983276,-8.633491516,0.2513911724,8.649121676
51.56515455,-0.06703764945,-7.91762495,0.55784899,7.937535789
51.57018909,-0.5961562395,-7.261613846,0.6823474765,7.317925661
51.57516378,-1.168370485,-6.476315498,0.6224924326,6.610238184
51.5801684,-1.568202138,-5.655104637,0.739808321,5.914962616
51.5851734,-1.841141105,-5.257667065,0.8667010069,5.63773307
51.59017855,-1.929726601,-4.812345505,0.7781155705,5.242897849
51.59518348,-1.944091797,-4.49870491,0.5722141862,4.934092405
51.60018971,-1.795651317,-4.350264549,0.3854664862,4.722049313
51.60516232,-1.642422318,-4.170699596,0.06464344263,4.482908093
51.61016686,-1.606509328,-4.05577755,-0.2585737705,4.370018781
51.61517209,-1.707065821,-3.936067581,-0.4668693244,4.31563074
51.62017763,-1.845929503,-3.835511208,-0.691924274,4.312465786
51.62518201,-2.130839586,-3.672705412,-0.8786720037,4.336047379
51.63018694,-2.288856745,-3.600879431,-0.8523358107,4.351054379
51.63516171,-2.504334927,-3.500322819,-0.7230489254,4.364258586
51.64016601,-2.693476915,-3.430891037,-0.6464344859,4.409502097
51.64472378,-2.97599268,-3.299209833,-0.4261679053,4.463511738
51.65017548,-3.399766445,-3.100491285,-0.0191536136,4.601285141
51.65473394,-3.56736064,-2.959233284,0.4141969085,4.653459212
51.66015517,-3.629609823,-2.853888512,0.8690952063,4.698305395
51.66519094,-3.665522814,-2.770091295,1.237802267,4.758320894
51.67016478,-3.620033026,-2.774879694,1.479616642,4.795191532
51.67472163,-3.521870613,-2.815581083,1.616086125,4.789864697
51.68017548,-3.301604033,-2.863465309,1.661576033,4.675559611
51.68517894,-2.978386879,-2.992752075,1.541865945,4.494964291
51.68973824,-2.755726099,-3.12203908,1.283292055,4.357521411
51.69515894,-2.576161146,-3.275267839,1.034295082,4.293454552
51.70016325,-2.422932148,-3.462015629,0.7829039693,4.297568037
51.70516871,-2.262520552,-3.615244627,0.4309563041,4.286573958
51.71017394,-2.128445387,-3.761290789,0.1221042871,4.323482117
51.71473086,-1.944091797,-3.938461781,-0.1125274822,4.393590393
51.71970632,-1.759738207,-4.113238335,-0.4381389022,4.495261266
51.72515763,-1.534683347,-4.38617754,-0.8978256583,4.732852977
51.73016171,-1.419761658,-4.627991676,-1.417367458,5.044101568
51.73516725,-1.333570361,-4.838681698,-2.066195965,5.427745042
51.74017178,-1.350329757,-5.027823448,-2.959233284,5.98827694
51.74473002,-1.426944256,-5.188235283,-3.677493811,6.517508419
51.75015117,-1.419761658,-5.418078423,-5.075707436,7.558710401
51.75518748,-1.335964561,-5.71974802,-6.351817131,8.651352472
51.76016348,-1.00556469,-6.296750546,-7.893682957,10.14743605
51.76516594,-0.5793967843,-6.964732647,-9.011775017,11.40417864
51.77017002,-0.1987187415,-7.850587368,-10.00058079,12.71545623
51.77517671,0.0718260482,-9.052476883,-11.08275986,14.31013846
51.78018017,0.5003881454,-10.89840603,-12.21521664,16.37794736
51.7851854,1.060631394,-12.67250919,-12.67969227,17.95806293
51.79019063,1.441309452,-14.64054298,-13.18247414,19.75349326
51.79516417,1.582567334,-16.81687355,-14.08508873,21.99321441
51.80016971,1.903390408,-19.61808968,-15.42344761,25.02748636
51.80517494,2.250549555,-21.79681206,-15.7658186,26.99494444
51.80973155,2.319981337,-23.39134979,-15.28458405,28.03847478
51.81515425,1.836352706,-23.89892197,-14.37957573,27.9517953
51.82019032,0.4788403511,-22.92687607,-13.36682796,26.54322935
51.82516286,-0.7541735172,-21.37543297,-12.72757626,24.88913638
51.83016909,-1.740584612,-19.22304535,-12.38041687,22.93097968
51.83517363,-2.427720547,-16.4194355,-12.44027233,20.74251829
51.84018071,-3.009511471,-12.52646351,-12.2846489,17.80118102
51.84518386,-2.930502892,-9.54807663,-11.49935055,15.23117453
51.85018786,-2.856282711,-7.120356083,-10.40759468,12.92964998
51.85516232,-2.882618904,-5.319916248,-9.045293808,10.88247861
51.86016663,-2.97599268,-4.106055737,-7.043741226,8.679315445
51.86472386,-3.536235809,-3.945644379,-6.002263546,8.006262607
51.86972932,-4.687847137,-4.410119534,-5.195417881,8.271483062
51.87515117,-6.16506958,-5.513846397,-3.809175014,9.106063876
51.88018694,-8.355764389,-7.527369976,-1.766920805,11.38429209
51.88516048,-9.713275909,-9.48343277,-0.09576806426,13.5754336
51.89016625,-10.57758331,-11.53047562,1.307234168,15.70178327
51.89472294,-10.9343195,-13.51047993,2.631227732,17.57884439
51.89972778,-10.07958889,-15.14571953,3.227383852,18.47720051
51.90473432,-8.322244644,-16.56787491,2.681505919,18.73351833
51.91015548,-6.622362137,-16.58942413,2.059013367,17.9806621
51.91519117,-4.235342979,-15.18881512,1.216254473,15.81510385
51.92016655,-2.066195965,-13.00051498,-0.7661445141,13.18595969
51.92517002,-0.2346317619,-11.6813097,-2.128445387,11.87595588
51.93017402,0.8331822157,-10.43393135,-2.470816135,10.75481513
51.93517894,0.739808321,-8.927978516,-1.060631394,9.021144921
51.94018348,-0.1771709323,-6.852205276,0.6153098345,6.882057315
51.9451894,-1.383848548,-5.425261021,2.00873518,5.948404069
51.95016325,-2.49236393,-4.417302132,2.607285738,5.702839205
51.95516878,-3.991134167,-3.593696833,1.63523972,5.614073192
51.96017278,-5.305551052,-3.23456645,0.7493851185,6.258823383
51.96473063,-6.335057735,-3.277662039,0.8786720037,7.186660521
51.96970571,-6.708553314,-3.732560396,1.881842494,7.904304261
51.97515709,-6.232107162,-4.8291049,3.466804028,8.612673452
51.97971517,-5.786785603,-5.679046631,4.115632534,9.092683289
51.98516655,-4.817133904,-7.235277653,4.704606533,9.883690828
51.98972478,-3.90254879,-8.590395927,5.367800236,10.85532444
51.99517702,-2.679111719,-10.3166151,6.449979305,12.45842766
52.00018355,-1.810016513,-11.62624359,7.326257229,13.86072671
52.00518694,-0.9504981041,-12.76348972,7.764396191,14.96983516
52.01016163,-0.0287304204,-13.65892029,7.237671852,15.45803424
52.01516602,1.218648672,-14.50167942,5.245696068,15.46936126
52.02017117,2.272097349,-14.99488544,3.08133769,15.47590572
52.02472817,3.052607059,-15.23670006,0.7685387731,15.55847327
52.02973332,3.763684988,-15.1720562,-1.357512355,15.69074421
52.03515517,4.106055737,-14.68603325,-3.404554844,15.62466832
52.04019055,3.809175014,-13.96777248,-4.381389141,15.12630336
52.0451654,3.351882458,-13.02924538,-4.850652695,14.30123011
52.04972317,2.908955097,-12.13860226,-4.783615112,13.36752251
52.05517425,2.444479942,-11.22641182,-4.496310711,12.33793397
52.06017978,1.850717902,-10.65180302,-4.019864559,11.5345297
52.06518355,1.00317049,-10.16099167,-3.469198227,10.78366538
52.07018963,-0.007182605099,-9.634267807,-2.999934673,10.09052902
52.07516348,-0.8283938169,-8.899248123,-1.776497602,9.112562604
52.08017117,-1.510741234,-8.358158112,-0.8930372596,8.540413435
52.08517371,-2.217030764,-7.891288757,-0.1987187415,8.199216597
52.09017863,-2.954444885,-7.453149796,0.1197100878,8.018261467
52.09518409,-3.450044632,-7.043741226,0.5626373887,7.863438132
52.1001884,-3.713406801,-6.809109688,0.07661445439,7.75623843
52.10516232,-3.916913986,-6.679822922,-0.8331822157,7.788224576
52.11016786,-3.804386616,-6.701370716,-1.350329757,7.823369955
52.11517125,-3.303998232,-6.885724068,-1.321599364,7.750885442
52.11972909,-2.580949545,-7.177816868,-1.127668977,7.710641534
52.12515125,-1.759738207,-7.580042362,-0.7661445141,7.819251766
52.13018663,-0.9768342972,-8.001421928,-0.4165911078,8.071586354
52.1351614,-0.4548983276,-8.336610794,-0.1699883193,8.350742964
52.14016594,0.0359130241,-8.681375504,-0.03112462163,8.681505579
52.14517094,0.08140286058,-8.875306129,-0.2849099934,8.880251067
52.14972809,0.1532289088,-8.995016098,-0.3878606856,9.004678207
52.15518048,0.4189853072,-9.121908188,-0.5075707436,9.145621124
52.16018717,0.5291185975,-9.191340446,-0.6607996821,9.230241704
52.16519125,0.2992752194,-9.17697525,-0.8619126081,9.222219567
52.16971771,0.1005564705,-9.126696587,-1.048660398,9.187295076
52.17516909,-0.2466027737,-8.935160637,-1.170764685,9.014909788
52.18017425,-0.5003881454,-8.834604263,-1.335964561,8.949045876
52.18517886,-0.806845963,-8.786720276,-1.544260144,8.957800679
52.19018386,-1.26653266,-8.683769226,-1.707065821,8.940135719
52.19474194,-1.589749932,-8.650250435,-1.759738207,8.969437886
52.20016348,-1.905784607,-8.633491516,-1.733402014,9.009654448
52.20516871,-2.104503393,-8.578424454,-1.67115283,8.989496784
52.21017332,-2.221819162,-8.51617527,-1.455674648,8.920802111
52.21517832,-2.351106167,-8.4012537,-1.244984865,8.812420284
52.22018286,-2.41574955,-8.281543732,-1.067813993,8.692527779
52.22518848,-2.418143749,-8.188169479,-0.8882488012,8.583852547
52.23016263,-2.336740971,-8.188169479,-0.7422025204,8.547358795
52.23516663,-2.188300371,-8.190564156,-0.4644751251,8.490567522
52.24017517,-2.037465572,-8.157045364,-0.05985504389,8.407867605
52.24517702,-1.877054095,-8.169015884,0.3208230138,8.38803195
52.25018286,-1.661576033,-8.224082947,0.7757213712,8.426038148
52.25518686,-1.556231141,-8.293514252,1.024718285,8.500251853
52.26019094,-1.458068848,-8.348581314,1.185129881,8.557412434
52.26516571,-1.355118155,-8.444349289,1.209071875,8.637432195
52.27017025,-1.142034173,-8.564059258,0.8882488012,8.685409544
52.27517609,-1.024718285,-8.652645111,0.4668693244,8.725610692
52.28018109,-0.9528923035,-8.765172005,-0.0718260482,8.817108539
52.28518594,-0.921767652,-8.911218643,-0.6991068721,8.986001543
52.29019055,-0.7254431248,-9.145850182,-1.426944256,9.284880892
52.29516471,-0.5099649429,-9.416395187,-2.068590164,9.654409761
52.29972194,-0.2130839527,-9.691728592,-2.729389906,10.07097697
52.30517525,0.2561795712,-9.916783333,-3.385401249,10.48184913
52.31017894,0.5363011956,-10.21845245,-4.062960148,11.00963372
52.3151854,0.7469909191,-10.39562416,-4.182670593,11.23039316
52.32019155,0.8882488012,-10.59194851,-4.074931145,11.38347148
52.32471679,0.988805294,-10.81939793,-3.921702385,11.5506215
52.32972163,1.063025594,-11.01572227,-3.809175014,11.70410077
52.33517394,1.120486379,-11.25753593,-3.622427225,11.87895551
52.34017855,1.060631394,-11.37724686,-3.402160645,11.92230607
52.34518325,1.055842996,-11.48259163,-2.853888512,11.87894754
52.35018748,1.086967587,-11.55920601,-2.346317768,11.84491237
52.35516194,1.11569798,-11.5927248,-1.956062794,11.80941285
52.36016663,1.209071875,-11.5975132,-1.795651317,11.7978189
52.36517309,1.292868972,-11.60948372,-1.968033791,11.84587605
52.37017671,1.314416766,-11.71243477,-2.293645144,12.00706574
52.37518163,1.244984865,-11.86087513,-2.542642117,12.19407131
52.38018717,1.15400517,-12.09311295,-2.748543501,12.45510337
52.38519248,1.036689281,-12.36126328,-2.952050686,12.75108457
52.39016571,0.8643068075,-12.49533844,-3.055001259,12.89238309
52.39517094,0.6488286853,-12.61983681,-3.033453465,12.99550305
52.40017702,0.3519476354,-12.75630665,-2.875436306,13.081107
52.40518132,0.04309562966,-13.08431244,-2.760514498,13.37241674
52.4101854,-0.1987187415,-13.48893261,-2.719813108,13.76183765
52.41519032,-0.4429273009,-13.9007349,-2.738966703,14.17492695
52.4197174,-0.7685387731,-14.24310589,-2.968810081,14.56950756
52.4251694,-1.065419793,-14.38436413,-3.265691042,14.78884
52.43017486,-1.125274777,-14.31972027,-3.447650433,14.77182878
52.43517925,-1.024718285,-14.15691471,-3.572149038,14.63654776
52.44018502,-0.8092401624,-13.96537876,-3.653551817,14.4580467
52.44518871,-0.6416460276,-13.84327412,-3.742137194,14.35449542
52.44971586,-0.6081272364,-13.77144814,-3.643975019,14.25837145
52.45472102,-0.3878606856,-13.70201588,-3.53384161,14.15569537
52.45972594,-0.2011129409,-13.48653793,-3.318363667,13.89023719
52.46517863,-0.7996633649,-13.09149456,-2.846705914,13.42126767
52.47018348,-1.517923832,-12.78743172,-1.723825216,12.99207743
52.47518848,-2.540247917,-12.58631802,-0.1532289088,12.84101786
52.48016502,-3.627215624,-12.75870132,0.7182605267,13.28371374
52.48516779,-4.486733913,-13.31176186,1.010353088,14.08384174
52.4901724,-5.011064053,-13.8025732,1.771709204,14.79056265
52.49472932,-5.331887245,-14.17367363,3.414131641,15.52347708
52.50015125,-5.327098846,-14.4801321,5.023035049,16.2260004
52.50518694,-5.133168221,-14.78180122,6.033388138,16.77059438
52.51016079,-5.35104084,-14.92305946,5.83466959,16.89303735
52.51516625,-5.822698593,-14.99727917,5.164293289,16.89651226
52.52017086,-6.72291851,-15.05952835,4.115632534,16.99780746
52.52517548,-7.302315235,-15.46414852,2.949656487,17.35408225
52.53018071,-7.4363904,-15.94777775,1.331176162,17.64662991
52.53518563,-7.24485445,-16.39549255,-0.6799532771,17.93773755
52.54019025,-6.691793919,-16.63251877,-2.832340717,18.15056309
52.54471702,-6.186617374,-16.46971321,-3.636792421,17.96529841
52.55016963,-5.169081688,-15.80651951,-4.185064793,17.14876765
52.55472686,-4.201824188,-15.14332581,-4.108449936,16.24361425
52.55973402,-3.445256233,-14.36042213,-3.842693806,15.25967923
52.56515402,-3.368641853,-13.28781986,-3.588908434,14.1701859
52.57018932,-3.045424461,-12.64617348,-2.837129116,13.31351251
52.57516348,-2.358288765,-12.32056236,-1.618480325,12.64821179
52.58016817,-1.752555609,-11.98776817,-0.672770679,12.13386407
52.58517309,-1.316810966,-11.73158836,0.8714894056,11.8373836
52.59017863,-0.6129156351,-11.62624359,2.621650934,11.93391215
52.59473525,0.5698199868,-11.66215611,2.784456491,12.00349023
52.60015732,0.9385270476,-11.61427212,0.9169792533,11.68815643
52.60516232,0.6631938815,-11.5783596,0.4453215301,11.60588422
52.61016694,0.9289502501,-11.47780323,0.5889736414,11.53038618
52.61517179,1.233013868,-11.31978607,0.3878606856,11.39334524
52.6201774,1.41257906,-10.96783829,0.1149216816,11.05902633
52.62473517,1.060631394,-10.57518864,-0.174776718,10.62968017
52.62970902,0.6895300746,-10.23521233,-0.2801215947,10.26223617
52.63516109,0.4620809257,-9.627084732,-0.06224924326,9.638368855
52.64016748,0.007182605099,-8.568847656,0.3926490843,8.577842097
52.64472356,-0.3926490843,-7.383718014,0.7685387731,7.433983915
52.65017671,-0.6512228847,-6.986280441,1.094150186,7.101363973
52.65518109,-0.9241618514,-6.153098583,1.367089152,6.37052824
52.66018602,-0.988805294,-5.394136429,1.216254473,5.617269681
52.66474233,-0.9433154464,-4.872200489,1.022324085,5.066885451
52.67016409,-0.9816226959,-4.357447147,0.7230489254,4.524790438
52.67517063,-0.9433154464,-3.993528366,0.4501099288,4.128039703
52.68017394,-0.8475474119,-3.699041605,0.3926490843,3.815156447
52.68473279,-0.9145850539,-3.485957623,0.3447650373,3.620390766
52.69015425,-1.103726983,-3.359065056,0.2561795712,3.545018939
52.69518963,-1.347935557,-3.282450438,0.1197100878,3.550456541
52.70016356,-1.515529633,-3.177105665,0.2082955539,3.526218586
52.7051684,-1.723825216,-3.074155092,0.3351882398,3.540388971
52.7101734,-2.070984364,-2.918531895,0.5147533417,3.615491067
52.71517771,-2.482787132,-2.784456491,0.7062895298,3.796876979
52.72018502,-2.784456491,-2.669534922,0.8212111592,3.943856288
52.72518817,-3.114856482,-2.619256735,0.9313444495,4.174953799
52.73016263,-3.45722723,-2.614468336,1.082179189,4.467547045
52.73516756,-3.790021181,-2.650381327,1.244984865,4.789443501
52.74017271,-3.993528366,-2.616862535,1.359906554,4.964431909
52.7451774,-4.060565948,-2.590526342,1.477222443,5.037976647
52.75018171,-3.971980572,-2.564189911,1.56101954,4.978803226
52.75518717,-3.720589399,-2.547430515,1.551442742,4.768559771
52.76016171,-3.466804028,-2.671929121,1.355118155,4.581951616
52.76516571,-3.193865061,-2.86107111,1.048660398,4.414316544
52.77017086,-2.930502892,-3.107673883,0.6272808313,4.317286811
52.77517486,-2.633621931,-3.337517262,0.1723825186,4.254962007
52.78018109,-2.45405674,-3.45722723,-0.1963245422,4.244214642
52.78518563,-2.370259762,-3.521870613,-0.6584054828,4.295951784
52.79019117,-2.398990154,-3.555389643,-1.285686255,4.477604093
52.79516417,-2.391807556,-3.620033026,-2.147598982,4.84123578
52.79972409,-2.279279947,-3.730166197,-2.698265314,5.137109366
52.80472725,-2.133233786,-4.070142746,-3.885789394,6.017982018
52.81017948,-2.145204782,-4.453215122,-4.994304657,7.026813466
52.8151844,-1.900996208,-5.118803024,-6.014234543,8.123235077
52.82018909,-1.625662923,-5.908889771,-6.677428722,9.063432716
52.82471609,-1.455674648,-6.7636199,-7.175422668,9.967559044
52.8297214,-1.30005157,-7.61595583,-7.857769966,11.01986688
52.83472571,-1.012747288,-8.444349289,-8.698134422,12.16512369
52.84017894,-0.4501099288,-9.514557838,-9.263166428,13.28667235
52.84518325,-0.1221042871,-10.52012253,-9.421183586,14.12255599
52.85018817,0.2130839527,-11.6669445,-9.550470352,15.0789417
52.85516171,0.6009446383,-13.20402241,-9.670180321,16.37741523
52.86016725,0.5722141862,-14.47294903,-10.44829655,17.85946761
52.86517186,0.586579442,-15.85919189,-12.24155331,20.04279597
52.8701774,0.4979939461,-17.5494976,-14.71955204,22.91065421
52.87518233,0.6703764796,-19.29487228,-16.40267563,25.33356013
52.8801884,1.18991828,-19.51753235,-15.37556362,24.87484535
52.88516102,1.812410712,-19.0315094,-13.00769806,23.12322191
52.89016563,2.303221941,-17.93735886,-10.76672459,21.0469958
52.89472317,2.039859772,-16.39788818,-9.629479408,19.12534022
52.90017494,1.165976286,-13.9103117,-9.88805294,17.10642754
52.90518079,0.7829039693,-11.80580902,-11.11627865,16.23458396
52.91018509,0.7517793179,-9.222464561,-12.78743172,15.78408802
52.91519056,1.063025594,-7.570465565,-13.45062542,15.47130558
52.92016533,1.434126854,-6.461950302,-13.13698483,14.71033283
52.92517025,1.204283476,-5.94719696,-12.05480576,13.49584352
52.93017486,0.5099649429,-6.416460514,-10.24239445,12.09701094
52.93517948,-0.7805097699,-7.381323814,-8.197746277,11.05876036
52.94018417,-2.67432332,-8.616731644,-5.83466959,10.74446084
52.94518963,-4.297592163,-10.20169353,-2.944868088,11.45495951
52.95016325,-5.963956356,-12.51209831,0.5099649429,13.8701638
52.9551684,-6.749254704,-14.34845066,3.136404276,16.16377144
52.96017609,-6.938396454,-16.11297798,5.27682066,18.31977732
52.96473056,-6.349422932,-17.63329506,6.406883717,19.80647432
52.97015217,-4.862623692,-19.1296711,6.813898087,20.88105918
52.97474102,-4.429273129,-19.29726601,7.220912457,21.07473636
52.98016263,-4.953603268,-18.56942749,6.059724331,20.1514784
52.98516756,-4.692635536,-16.89348793,3.275267839,17.83642739
52.9901731,-3.229778051,-14.00368595,-1.754949808,14.47807084
52.99517763,-2.968810081,-11.45386124,-1.934514999,11.98945865
53.00018202,-3.943250179,-8.497021675,0.6560112834,9.390364749
53.00518686,-4.860229492,-6.02381134,0.940921247,7.797016517
53.01016133,-5.753266811,-4.09169054,-4.029441357,8.128862659
53.01471833,-7.450755596,-3.066972494,-8.133103371,11.44846932
53.02017125,-8.319850922,-2.118868589,-10.25915432,13.37758464
53.02517556,-8.374917984,-1.89860189,-7.544129372,11.43056553
53.03018079,-7.297526836,-2.458845139,-0.1197100878,7.701567882
53.03518479,-6.02620554,-3.411737442,4.515464306,8.267074663
53.04019179,-4.695029736,-4.630385876,7.204153061,9.766452729
53.04516502,-3.514688015,-5.920860767,8.846575737,11.21033123
53.05017056,-2.394201756,-7.577648163,11.08994198,13.64330483
53.05517432,-2.003946781,-9.026140213,12.61504841,15.64053887
53.06017979,-2.039859772,-10.35492229,13.95101357,17.49331939
53.0651844,-2.245761156,-11.6669445,14.37957573,18.65296854
53.0701894,-2.276885748,-13.20402241,13.28303146,18.86714979
53.07516379,-2.059013367,-14.16649151,11.20486355,18.17905346
53.08016871,-1.223437071,-14.84644508,8.264783859,17.03585578
53.08517402,0.691924274,-15.27979565,4.177882195,15.85577541
53.09017825,2.968810081,-15.7418766,-3.181894064,16.33232874
53.09518379,4.809951305,-15.89271069,-8.635885239,18.71609998
53.0997404,5.298368454,-15.52400398,-11.0229044,19.7628902
53.10471517,5.039794445,-14.75307083,-11.27908421,19.24241065
53.10971948,4.544194698,-13.78341961,-9.777919769,17.49971647
53.1147251,3.914519787,-12.52885723,-6.72531271,14.74874773
53.12017894,3.19865346,-11.6023016,-4.984727859,13.02659964
53.12518194,1.924938202,-10.45069027,-3.720589399,11.25900083
53.12973886,1.024718285,-9.821015358,-2.966415882,10.31028678
53.1347134,-0.6224924326,-8.856152534,-1.565807939,9.015025737
53.14016625,-1.575384736,-8.130708694,-0.1699883193,8.283668087
53.14517117,-2.463633537,-7.570465565,1.405396342,8.084341529
53.15017579,-3.409343243,-7.139509678,0.8236053586,7.954529878
53.15518048,-4.110844135,-6.710947514,-0.2082955539,7.872689697
53.1601854,-4.407725334,-6.303933144,-0.2849099934,7.697323522
53.16519063,-4.398148537,-6.24168396,-0.3543418646,7.643813666
53.17016471,-4.345476151,-6.375759125,-0.3280056417,7.722762141
53.17516933,-4.077325344,-6.550535679,-0.06224924326,7.716085446
53.18017556,-3.787626982,-6.718130112,0.05746084079,7.712502324
53.18517956,-3.078943491,-6.988674641,0.07422025502,7.63720989
53.1901841,-2.516305923,-7.240066051,-0.3734954596,7.673972295
53.19518902,-1.915361404,-7.426813602,-0.8188169599,7.713405915
53.20016533,-1.331176162,-7.656657219,-1.031900883,7.839722519
53.2051684,-0.7757213712,-7.991845131,-1.120486379,8.107208025
53.21017302,-0.4932055473,-8.197746277,-1.137245774,8.290936237
53.21517802,-0.4213795066,-8.367734909,-1.139639974,8.455490965
53.22018225,-0.3950432837,-8.508993149,-1.079784989,8.586323965
53.2251881,-0.4453215301,-8.73404789,-1.067813993,8.810342248
53.23016286,-0.2896983922,-8.892065048,-1.070208192,8.96092024
53.23516717,-0.2944868207,-9.069235802,-0.9433154464,9.12291645
53.2401721,-0.3519476354,-9.174580574,-0.7996633649,9.216086878
53.24517702,-0.5889736414,-9.119514465,-0.825999558,9.175767505
53.25018171,-0.8595184088,-8.956708908,-1.132457376,9.068840393
53.25473863,-1.086967587,-8.760383606,-1.527500629,8.958743083
53.26016133,-1.357512355,-8.528146744,-1.604115129,8.783240406
53.26471825,-1.508347034,-8.312667847,-1.381454349,8.560605914
53.27017063,-1.632845521,-8.116343498,-0.8236053586,8.319828247
53.2747284,-1.697489023,-7.965508938,-0.3280056417,8.150974747
53.28018256,-1.721431017,-7.905653954,0.1436520964,8.092176784
53.28473917,-1.728613615,-7.84340477,0.4884171486,8.046468463
53.2897124,-1.750161409,-7.886500359,0.7278373241,8.11108501
53.29516471,-1.690306425,-7.929595947,0.7445967197,8.141870299
53.30017025,-1.67115283,-7.99663353,0.5746083856,8.189571075
53.30517433,-1.613691926,-8.293514252,0.3064578176,8.4546021
53.31017956,-1.522712231,-8.564059258,0.007182605099,8.698380027
53.31518417,-1.434126854,-8.860940933,-0.3399766386,8.982682126
53.32018933,-1.271321058,-9.270348549,-0.8116343617,9.392250518
53.32516386,-1.165976286,-9.56004715,-1.331176162,9.722449906
53.33016848,-1.084573388,-9.787496567,-1.917755604,10.03240624
53.33517302,-0.9457096457,-9.883264542,-2.554613113,10.25179657
53.33973094,-0.7685387731,-9.897629738,-3.165134668,10.41977945
53.34470502,-0.5482721925,-9.88805294,-3.79241538,10.60455599
53.34971033,-0.1628057212,-9.844957352,-4.302380562,10.74523939
53.35516263,0.117315881,-9.828198433,-4.443638325,10.78671261
53.36016902,0.5051765442,-9.840168953,-4.321534157,10.75917217
53.3647251,0.7613561153,-9.91438961,-4.101267338,10.75616931
53.37017733,1.244984865,-10.05325317,-3.500322819,10.71774914
53.37518225,1.587355733,-10.19211674,-2.887407303,10.71149209
53.38018756,2.205059767,-10.56082344,-2.070984364,10.98554762
53.38516163,2.765302896,-10.88882923,-1.362300754,11.31677363
53.39016625,3.354276657,-11.23598862,-0.691924274,11.74637694
53.39517087,3.914519787,-11.50174522,-0.2585737705,12.15238531
53.4001761,4.5370121,-11.75792408,-0.349553436,12.60775337
53.40518163,4.766855717,-11.96382618,-0.8834604025,12.90877812
53.41018563,4.805162907,-12.20563984,-1.534683347,13.20691059
53.41474325,4.620809078,-12.42351246,-2.056619167,13.41362072
53.41971771,4.254496574,-12.67490387,-2.446874142,13.59195064
53.42472171,3.555389643,-12.9382658,-2.765302896,13.69986925
53.42972756,2.906560898,-13.12980175,-3.028665066,13.78450588
53.43473186,2.252943754,-13.29021358,-3.294421434,13.8765538
53.44015556,1.256955862,-13.54399872,-3.426102638,14.02704597
53.44518933,0.4477157295,-13.83369732,-3.471592426,14.26967361
53.4501641,-0.3926490843,-14.2095871,-3.600879431,14.66399916
53.45516879,-1.328781962,-14.42506504,-3.727771997,14.95808968
53.46017333,-2.525882721,-14.53280449,-3.945644379,15.26926977
53.46517771,-3.248931646,-14.36760426,-3.909731388,15.24039397
53.4697361,-3.574543238,-14.18803883,-3.914519787,15.14599849
53.47470994,-3.555389643,-14.04199314,-3.986345768,15.02362538
53.48016163,-3.114856482,-14.07072353,-4.364629745,15.05780809
53.48472079,-2.571372509,-14.28141308,-4.46039772,15.1811022
53.4897251,-1.908178806,-14.40351772,-4.043806553,15.08160603
53.49473002,-1.158793569,-14.42027664,-3.263296843,14.83024906
53.49970325,-0.6560112834,-14.17606831,-2.331952572,14.38155994
53.5047094,-0.8427590132,-13.6301899,-1.182735682,13.70734048
53.5097131,-1.285686255,-13.18726254,0.05985504389,13.24992321
53.51471925,-1.867477298,-12.96939087,1.848323703,13.23287087
53.5201721,-2.679111719,-13.28781986,3.624821424,14.03150479
53.52517556,-3.646369219,-13.80496693,3.969586372,14.81994387
53.5301804,-4.276044369,-14.26465416,4.371812344,15.52023379
53.53473856,-4.75488472,-14.67645645,4.730942726,16.13657714
53.53971217,-5.511452198,-14.93024158,5.171475887,16.7341681
53.54516533,-6.754043102,-15.05473995,4.900930882,17.2128271
53.5501694,-7.568071365,-15.10501862,3.907337189,17.34083549
53.55517394,-8.59278965,-15.23430538,2.133233786,17.62018107
53.56017863,-9.129091263,-15.54315758,0.4285621047,18.03091013
53.56518417,-9.35654068,-16.00045013,-1.496376038,18.59565539
53.57018848,-9.375694275,-16.50562668,-3.392583847,19.28338612
53.57516417,-9.21528244,-17.03474426,-4.735731125,19.93818176
53.5801684,-9.004592896,-17.19994545,-5.245696068,20.11064753
53.58517333,-8.755595207,-17.01319695,-5.336675644,19.86427509
53.58973117,-8.415618896,-16.46013641,-4.965574265,19.14198683
53.59470533,-7.771578789,-15.69399261,-4.376600742,18.051412
53.60015925,-6.380547523,-14.75067711,-3.677493811,16.48689851
53.60516225,-5.336675644,-14.00129128,-3.42131424,15.36950407
53.61016725,-4.865017891,-13.24472427,-3.059789658,14.4379165
53.61517186,-3.912125587,-12.5695591,-1.086967587,13.20908933
53.62017702,-1.474828243,-12.70363426,2.260126352,12.98713259
53.62518171,0.653617084,-12.8688345,3.667917013,13.39730315
53.63018694,1.357512355,-12.67250919,3.311181068,13.16811487
53.6351611,2.643198729,-12.50252151,1.108515382,12.82686049
53.64016594,3.289633036,-12.46421432,-0.01675941236,12.89102809
53.64517094,3.150769472,-12.13142014,-0.1795651317,12.53518833
53.65017556,3.093308687,-11.81059742,0.248996973,12.21150153
53.65518017,3.033453465,-11.41076565,0.4453215301,11.81548661
53.66018564,2.547430515,-10.95586681,0.3854664862,11.25473253
53.66474325,2.039859772,-10.47942066,0.4094084799,10.68395529
53.66971733,1.45088625,-9.979032516,0.672770679,10.1063733
53.67516879,0.5410895944,-9.047688484,1.398213744,9.171065725
53.6801771,-0.2011129409,-7.927201748,1.843535304,8.141228186
53.68517925,-0.7781155705,-6.50744009,2.075772762,6.874668932
53.68973671,-1.254561663,-6.019022942,2.236184359,6.542406486
53.69471087,-1.750161409,-5.073313236,2.240972757,5.815800121
53.70016348,-2.020706177,-4.311957359,2.003946781,5.16643324
53.7051681,-2.166752577,-3.761290789,1.924938202,4.748422076
53.70972625,-2.181117773,-3.325546265,1.661576033,4.310147052
53.71517802,-2.159569979,-2.966415882,1.312022567,3.8967639
53.72018256,-2.343923569,-2.758120298,1.182735682,3.807895609
53.7251881,-2.56658411,-2.624045134,1.019929886,3.809622531
53.73016233,-2.662352324,-2.547430515,0.8619126081,3.784232481
53.7351681,-2.592920542,-2.497152328,0.7110779285,3.669419369
53.74017156,-2.612074137,-2.341529369,0.6895300746,3.57507242
53.74517794,-2.662352324,-2.23139596,0.6895300746,3.541567386
53.74973394,-2.736572504,-2.104503393,0.6895300746,3.520399881
53.75515525,-2.875436306,-2.090138197,0.6272808313,3.609749697
53.76016356,-2.942473888,-2.169146776,0.5410895944,3.695419904
53.76516602,-2.992752075,-2.195482969,0.5554547906,3.753030839
53.77017002,-3.074155092,-2.279279947,0.6655880809,3.884398808
53.77517579,-3.169923067,-2.262520552,0.806845963,3.977236717
53.78018071,-3.169923067,-2.26730895,0.9361328483,4.008172506
53.78473833,-3.076549292,-2.26730895,1.122880578,3.98330343
53.79015956,-2.918531895,-2.418143749,1.331176162,4.017123048
53.7951644,-2.516305923,-2.499546528,1.302445769,3.778345316
53.80016964,-2.164358377,-2.499546528,1.331176162,3.564296565
53.80517402,-2.04704237,-2.56897831,1.288080573,3.52834006
53.81018017,-2.138022184,-2.52827692,1.074996591,3.481226898
53.81518479,-2.260126352,-2.470816135,0.7829039693,3.438901297
53.8201891,-2.499546528,-2.334346771,0.4070142806,3.444207938
53.82516348,-2.401384354,-2.303221941,0.2322375625,3.335477838
53.8301691,-2.26970315,-2.506729126,-0.2537853718,3.391113433
53.83472725,-2.207453966,-2.71502471,-0.8619126081,3.603762691
53.84018079,-2.133233786,-2.913743496,-1.640028119,3.966141674
53.84473525,-2.099714994,-3.19625926,-2.521094322,4.580479549
53.8501574,-1.848323703,-3.706224203,-3.749319792,5.586572944
53.85516256,-1.63523972,-4.259284973,-4.927267075,6.715167775
53.86016725,-1.534683347,-5.008669853,-6.047753334,8.001084118
53.86517271,-1.702277422,-5.973533154,-7.163451672,9.481344135
53.87017679,-1.948880196,-7.20894146,-9.153033257,11.81291618
53.87518194,-1.618480325,-8.377311707,-10.723629,13.70383336
53.88018625,-1.194706678,-9.639056206,-12.20324612,15.59672864
53.88516071,-0.9792284966,-10.89840603,-13.44583702,17.33564754
53.89016625,-0.8834604025,-12.82573891,-13.37161636,18.54939905
53.89517117,-0.8044517636,-14.60941887,-13.6301899,19.99660819
53.9001761,-0.9241618514,-17.09460068,-13.74750614,21.95616935
53.90518017,-1.656787634,-20.5733757,-15.11459541,25.58241051
53.90973856,-2.33913517,-22.66830254,-19.02432632,29.68582971
53.91471248,-2.281674147,-25.7879467,-25.20615578,36.13273476
53.91971917,-1.307234168,-26.08482742,-22.46240044,34.44831659
53.92516964,-0.9002198577,-23.62358856,-15.71553993,28.3877179
53.92972748,-0.8475474119,-21.18389702,-11.93509579,24.32945419
53.93473217,-0.282515794,-16.07945824,-8.355764389,18.1231231
53.94015394,0.3878606856,-11.64060879,-7.773972988,14.00317339
53.9447414,0.962469101,-7.158663273,-7.848193169,10.66615876
53.95016379,0.9648633003,-2.60010314,-7.582436562,8.073713008
53.9551684,0.4501099288,-0.2418143749,-6.641515732,6.66114137
53.96017333,-0.3687070608,0.8475474119,-5.358223438,5.437355968
53.96517864,-1.948880196,0.3136404157,-4.601655483,5.007168612
53.97018325,-3.751713991,-1.271321058,-3.737348795,5.446043621
53.97518817,-5.485116005,-3.236960649,-2.372653961,6.79660935
53.98016141,-6.746860504,-5.322310448,-0.2274491638,8.596443933
53.98471979,-8.173804283,-7.386112213,2.480392933,11.29239032
53.99017187,-9.768342972,-10.13704967,5.339069843,15.05609403
53.99517617,-10.6206789,-12.37562847,6.576871872,17.584375
54.00018448,-11.13543224,-14.67406178,6.212953568,19.44033776
54.00518748,-10.71165848,-18.11213493,2.659958124,21.21000793
54.00971402,-9.165003777,-21.23417473,-1.060631394,23.15194181
54.01516725,-6.476315498,-24.53817368,-4.718971729,25.81343301
54.02017125,-2.959233284,-27.54528999,-10.12747288,29.49687728
54.02517517,3.016694069,-28.98660088,-15.61258888,33.06170602
54.03018017,6.730101109,-26.08003998,-12.61983681,29.74429403
54.03518502,5.602431774,-20.66914368,-3.387795448,21.68127995
54.03974387,2.741360903,-14.37478733,6.232107162,15.90561945
54.04516471,-0.2681505978,-7.709329605,10.36928749,12.9239232
54.05016971,-2.398990154,-4.42448473,7.706935406,9.20478529
54.05472725,-4.09169054,-2.207453966,3.873818398,6.051549675
54.06017987,-6.028599739,-0.5530605912,0.3184288144,6.062284037
54.06473617,-6.514622688,0.383072257,-1.604115129,6.72013679
54.07015917,-6.016628742,0.4141969085,0.04070143029,6.03100631
54.07516348,-5.145139217,-0.2250549644,2.391807556,5.678366903
54.08017056,-3.857059002,-1.199495077,4.589684486,6.113991844
54.08517333,-2.810792685,-2.738966703,5.817910194,7.017875259
54.08973087,-2.171540976,-4.12999773,7.316680431,8.677919336
54.0951521,-2.104503393,-5.688623428,8.901641846,10.77165719
54.10018756,-2.97599268,-7.757213593,9.816226959,12.86037351
54.10471487,-3.79241538,-8.827422142,9.739612579,13.68085704
54.10972017,-3.536235809,-10.48660374,9.435548782,14.54315655
54.1151721,-2.885013103,-11.81059742,8.372523308,14.76186501
54.12017579,-1.884236693,-13.5224514,6.517016888,15.12873256
54.12473548,-1.206677675,-14.4944973,5.09725523,15.41196074
54.13015587,0.2346317619,-15.78736591,1.549048543,15.86491494
54.13516102,1.620874524,-16.64209557,-2.296039343,16.87774795
54.14016694,2.877830505,-17.24064636,-6.548141479,18.66547487
54.14517148,3.124433279,-16.97967911,-8.125920296,19.08146133
54.15017556,2.726995707,-16.18480301,-8.125920296,18.31433686
54.15473333,2.140416384,-15.10980701,-6.940790653,16.76491053
54.1601571,1.74776721,-13.56075859,-4.953603268,14.5425943
54.16516017,1.276109457,-12.2511301,-3.780444384,12.88450247
54.17016479,0.4046200812,-11.03966427,-2.52827692,11.33269998
54.17516994,-0.6033388376,-9.96466732,-1.41018486,10.08202529
54.18017364,-1.632845521,-8.825027466,-0.586579442,8.993962959
54.18517956,-2.446874142,-7.87931776,0.2992752194,8.255931631
54.19018387,-3.153163671,-7.158663273,0.9457096457,7.879293606
54.19518994,-3.746925592,-6.588842869,0.6344634295,7.606237282
54.20016325,-4.417302132,-6.093243122,-0.6416460276,7.553269457
54.2051684,-4.721365929,-5.817910194,-1.218648672,7.591078965
54.20972602,-4.721365929,-5.693411827,-1.443703651,7.535948162
54.21517833,-4.522646904,-5.700594425,-1.017535686,7.347549979
54.22018294,-4.163516521,-5.791574001,-1.058237195,7.210899056
54.22518779,-3.809175014,-5.889736176,-1.321599364,7.137606839
54.23016225,-3.076549292,-6.117185116,-1.170764685,6.94663942
54.23516725,-2.147598982,-6.442796707,-0.9193734527,6.853251662
54.24017464,-1.04147768,-7.017405033,-0.7230489254,7.131020187
54.24517833,-0.4668693244,-7.54891777,-0.8786720037,7.614209805
54.25018202,-0.1460463107,-8.106766701,-1.168370485,8.191830409
54.25518656,0.009576806799,-8.58081913,-1.589749932,8.72684671
54.2601611,0.08140286058,-9.057265282,-1.874659896,9.249596236
54.26516656,0.1723825186,-9.289502144,-1.78128612,9.460314268
54.27017125,0.3064578176,-9.425971985,-1.508347034,9.550810177
54.27517617,0.3878606856,-9.528923035,-1.201889277,9.61224989
54.2801811,0.2633621991,-9.58638382,-1.07739079,9.650330839
54.28518625,0.0718260482,-9.514557838,-1.043871999,9.571919274
54.29019094,-0.1292868853,-9.461885452,-1.168370485,9.534625373
54.2951651,-0.4644751251,-9.255983353,-1.161187768,9.340092184
54.30016994,-0.7493851185,-8.951920509,-1.027112484,9.041759725
54.30517525,-0.9504981041,-8.719682693,-0.9600749016,8.823721252
54.31017887,-1.120486379,-8.46589756,-0.8355764151,8.58050693
54.31518479,-1.271321058,-8.250418663,-0.5841852427,8.368209949
54.32019179,-1.438915253,-8.006210327,-0.4716577232,8.148149601
54.32427962,-1.611297727,-7.76679039,-0.3447650373,7.939658447
54.32970393,-1.726219416,-7.556100368,-0.2082955539,7.753571647
54.33470893,-1.788468719,-7.388506413,0.009576806799,7.601890494
54.33971439,-1.67115283,-7.256825447,0.1604115069,7.448489726
54.34472054,-1.460463047,-7.405265808,0.1939303428,7.550398862
54.34972462,-1.30005157,-7.556100368,0.09337386489,7.667692322
54.354699,-1.182735682,-7.88171196,-0.2298433632,7.973272545
54.35970393,-1.091755986,-8.339004517,-0.8020575643,8.448326686
54.36470923,-1.096544385,-8.681375504,-1.180341482,8.829603402
54.36971293,-1.098938584,-9.004592896,-1.640028119,9.218462532
54.37471777,-1.079784989,-9.275136948,-2.207453966,9.595152632
54.3797227,-0.9600749016,-9.52173996,-2.892195702,9.997503271
54.38469816,-0.7924807668,-9.646238327,-3.325546265,10.23411929
54.38970208,-0.5410895944,-9.694122314,-3.588908434,10.35128249
54.39470731,-0.248996973,-9.706093788,-3.646369219,10.37141575
54.39971416,0.1436520964,-9.780313492,-3.500322819,10.38881263
54.40471785,0.5434837937,-9.955090523,-3.167528868,10.46099618
54.40972154,0.8523358107,-10.16338634,-2.700659513,10.55056682
54.414727,1.029506683,-10.3357687,-1.941697598,10.56684381
54.41970062,1.237802267,-10.56321812,-1.055842996,10.68777507
54.424259,1.443703651,-10.71644688,-0.4189853072,10.82137064
54.42971077,1.903390408,-10.76433086,-0.141257897,10.93223069
54.4347157,2.240972757,-10.78108978,-0.4046200812,11.01896425
54.43972031,2.439691544,-10.79784966,-0.9911994934,11.11432087
54.44472585,2.559401512,-10.79066753,-1.640028119,11.21065271
54.44969962,2.647987127,-10.82897472,-2.334346771,11.38980703
54.45470585,2.738966703,-10.94389629,-2.542642117,11.56442102
54.45971016,2.82036972,-11.04924107,-2.398990154,11.65312693
54.46471654,2.827552319,-11.24795914,-2.00873518,11.77058426
54.46927231,2.853888512,-11.50892735,-1.572990537,11.96137064
54.47469377,2.7509377,-11.83214474,-1.194706678,12.20633571
54.47970023,2.509123325,-12.08353615,-1.146822572,12.3944644
54.48470423,2.161964178,-12.32774448,-1.371877551,12.59084672
54.48970947,1.70946002,-12.55758762,-1.838746905,12.80610209
54.49471285,1.072602391,-12.98136139,-2.56658411,13.27605263
54.49927108,0.490811348,-13.47456741,-3.210624456,13.86048239
54.50469285,-0.2418143749,-13.94143677,-3.691859007,14.42400625
54.50969693,-1.010353088,-14.23831749,-3.916913986,14.80178075
54.51470216,-1.958456993,-14.37478733,-3.967192173,15.04023532
54.51970677,-2.497152328,-14.46576691,-4.108449936,15.24380342
54.52471193,-2.729389906,-14.47773743,-4.118026733,15.2974702
54.52926923,-2.612074137,-14.52801609,-4.034229755,15.30232638
54.53469131,-2.173935175,-14.60223579,-3.928884983,15.27702267
54.53972639,-1.584961534,-14.70039845,-3.617638826,15.2217321
54.54470331,-1.168370485,-14.78658962,-3.208230257,15.17567342
54.54970577,-0.6584054828,-14.7698307,-2.839523315,15.05470988
54.55471047,-0.2537853718,-14.52562141,-2.439691544,14.73126537
54.55971747,-0.2513911724,-13.95340729,-1.946485996,14.09076223
54.56472177,-0.7517793179,-13.35964584,-1.307234168,13.44448476
54.56972646,-1.752555609,-12.74912453,-0.4788403511,12.87792357
54.57470062,-3.102885485,-12.35647488,0.2657563984,12.74288021
54.57970431,-4.185064793,-12.33732128,0.9337386489,13.06124541
54.58471016,-4.697423935,-12.89517021,1.515529633,13.8075355
54.58971531,-5.149928093,-13.37640476,2.070984364,14.48236652
54.59471931,-5.870582581,-13.73314095,2.813186884,15.19792488
54.59972462,-6.519411087,-14.03959846,3.473986626,15.86447695
54.604699,-7.390900612,-14.38196945,3.766079187,16.60270489
54.60925508,-7.848193169,-14.5830822,3.45722723,16.91782618
54.61426093,-8.664615631,-14.95178986,2.281674147,17.43093861
54.61971408,-9.234436035,-15.41387081,0.9840168953,17.99529137
54.62427077,-9.385271072,-16.01721001,-0.4118026793,18.56889633
54.62969254,-9.057265282,-16.67561531,-1.855506301,19.06706857
54.63469785,-8.564059258,-16.85278511,-2.525882721,19.07195744
54.63970423,-7.95832634,-16.68279839,-2.698265314,18.67970438
54.64470762,-7.201758862,-16.20156288,-2.683900118,17.93207435
54.64926493,-6.150704384,-15.63413715,-3.004723072,17.06709611
54.654687,-4.876988888,-15.00685596,-3.505111217,16.1640512
54.65972208,-4.285621166,-14.34605694,-3.770867586,15.44005637
54.66472608,-4.173093796,-13.31176186,-4.27125597,14.58976844
54.66970062,-2.873042107,-12.634202,-3.770867586,13.49432746
54.67470524,-1.924938202,-12.05959415,-2.978386879,12.57020233
54.679711,-1.556231141,-11.52089882,-2.166752577,11.82572542
54.684716,-0.390254885,-11.15219116,-0.2178723514,11.16114398
54.68972024,1.252167463,-10.994174,1.759738207,11.2043056
54.69472462,2.173935175,-10.96065521,2.949656487,11.55692131
54.69970024,3.040636063,-10.90798283,2.396595955,11.57468052
54.70425724,3.222595453,-10.72123528,0.05506663769,11.19522396
54.70970985,3.268085241,-10.60152531,-0.5027823448,11.10520194
54.7147147,2.93768549,-10.43871975,0.2801215947,10.84782624
54.71972154,2.310404539,-10.0604353,0.5793967843,10.33856993
54.72472616,1.668758631,-9.720458984,0.6751648784,9.885743566
54.7297,0.9313444495,-9.279925346,0.7469909191,9.356410228
54.73470339,0.4477157295,-8.83699894,0.8212111592,8.886359626
54.73970862,0.03112462163,-8.312667847,0.9241618514,8.363939897
54.74471354,-0.5602431893,-7.668628216,0.9840168953,7.751775306
54.74927039,-1.108515382,-6.99106884,0.9864110947,7.14680745
54.75469254,-1.484405041,-6.253654957,0.9169792533,6.492496407
54.75969693,-1.778891921,-5.710171223,0.9050082564,6.048929806
54.7647037,-1.996764183,-5.19781208,0.8667010069,5.635200818
54.76925993,-2.212242365,-4.771644115,0.7613561153,5.314345395
54.77426454,-2.324769735,-4.429273129,0.6799532771,5.048301816
54.77971724,-2.334346771,-4.149151325,0.5075707436,4.787719669
54.7847227,-2.343923569,-3.931279182,0.316034615,4.587898384
54.78927993,-2.296039343,-3.835511208,0.06464344263,4.470695881
54.79470062,-2.286462545,-3.722983599,-0.215478152,4.37435123
54.79970793,-2.30801034,-3.64158082,-0.4453215301,4.334320461
54.80426362,-2.355894566,-3.60327363,-0.5793967843,4.343906156
54.809716,-2.468421936,-3.557783842,-0.5722141862,4.367878409
54.81472062,-2.729389906,-3.45722723,-0.3854664862,4.421603079
54.81972524,-2.806004286,-3.335123062,-0.02633621916,4.358600634
54.82470062,-2.8969841,-3.222595453,0.2370259613,4.339794884
54.82970431,-3.08133769,-3.040636063,0.4477157295,4.352075252
54.83471047,-3.201047659,-2.889801502,0.605733037,4.354833102
54.83971354,-3.335123062,-2.770091295,0.7900865674,4.406891014
54.84472085,-3.399766445,-2.679111719,0.962469101,4.434230289
54.84972554,-3.404554844,-2.624045134,1.161187768,4.452523282
54.85469839,-3.34230566,-2.621650934,1.271321058,4.433995713
54.859703,-3.201047659,-2.686294317,1.268926859,4.367271304
54.86470885,-2.978386879,-2.801215887,1.161187768,4.250406555
54.86926524,-2.767697096,-2.944868088,0.9696516991,4.15603413
54.87424031,-2.60010314,-3.078943491,0.7469909191,4.098588146
54.8792467,-2.389413357,-3.174711466,0.4668693244,4.000756934
54.88469785,-2.336740971,-3.325546265,0.1963245422,4.069171863
54.88925531,-2.303221941,-3.433285236,-0.1604115069,4.137391772
54.89470708,-2.161964178,-3.591302633,-0.6799532771,4.246631626
54.89971231,-1.972822189,-3.761290789,-1.122880578,4.393198901
54.90471777,-1.795651317,-3.969586372,-1.659181833,4.662066492
54.90972124,-1.606509328,-4.23294878,-2.252943754,5.057122023
54.91472585,-1.510741234,-4.49870491,-2.947262287,5.586326157
54.91970154,-1.405396342,-4.855441093,-3.938461781,6.4079582
54.92470677,-1.333570361,-5.214571476,-4.841075897,7.239211382
54.92971131,-1.302445769,-5.695806026,-5.887341976,8.294538373
54.93471562,-1.295263171,-6.358999729,-6.907271862,9.477604593
54.93972085,-1.393425345,-7.352593422,-8.238448143,11.12988284
54.94472608,-1.731007814,-8.269572258,-9.184157372,12.47922113
54.94969962,-2.011129379,-9.337387085,-9.995792389,13.82560322
54.95470485,-1.927332401,-10.41956615,-10.64222622,15.01795419
54.95971162,-1.881842494,-11.70764637,-10.91755962,16.11841874
54.96471593,-1.508347034,-13.78102493,-11.12106705,17.77272886
54.96971993,-1.391031146,-15.64850235,-12.05719948,19.803703
54.9747237,-1.170764685,-17.70990944,-13.79778481,22.48089073
54.97969808,-0.8164227605,-20.01791954,-15.98369026,25.62931921
54.98470462,-0.6320692301,-22.39296913,-18.31803703,28.93777909
54.98926031,-0.1915361285,-22.89575005,-18.01636696,29.13488518
54.99471316,1.113303781,-22.18227959,-15.78976059,27.2508626
54.9997187,1.8579005,-20.57576942,-13.75229454,24.81813222
55.00472277,1.618480325,-18.13368416,-11.82975101,21.71158651
55.00969777,0.5722141862,-14.35323906,-11.10670185,18.15769056
55.01470154,-0.06943184882,-11.03726959,-10.83615685,15.46765774
55.01970639,-0.2849099934,-7.795520782,-10.48420906,13.06789798
55.02471285,-0.3519476354,-4.989516258,-9.957485199,11.14318855
55.02971631,-0.2992752194,-2.477998734,-9.066842079,9.404130405
55.03472208,-0.2202665508,-1.381454349,-7.862558365,7.986035156
55.03972824,-0.5434837937,-1.173158884,-6.938396454,7.057834069
55.04470185,-1.592144132,-1.814804912,-5.810727596,6.292296481
55.04970647,-3.007117271,-2.942473888,-3.447650433,5.439411767
55.05471139,-3.883395195,-4.695029736,-0.6991068721,6.132928573
55.05971539,-4.958391666,-6.184223175,1.980004787,8.170109127
55.06472124,-5.884947777,-7.819462776,4.177882195,10.64102007
55.06972577,-6.490680695,-9.588777542,5.439626217,12.79308892
55.07469939,-7.161057472,-12.06198788,5.298368454,14.99483257
55.07970547,-7.393294811,-14.23113537,4.850652695,16.75454725
55.0847107,-7.003039837,-16.53435707,4.185064793,18.43752418
55.08971477,-6.095637321,-18.45450592,3.308786631,19.71480794
55.0942717,-6.028599739,-20.49676132,2.099714994,21.46788398
55.09969408,-5.61919117,-22.54380226,-1.56101954,23.28594236
55.10469939,-3.579331636,-23.67386627,-7.558494568,25.10765619
55.10925593,0.0718260482,-23.79357719,-12.83770943,27.03601779
55.1147077,1.704671621,-21.4281044,-10.69250488,24.00831573
55.11971539,-0.5027823448,-15.26303577,0.4596867263,15.27823167
55.12471847,-2.983175278,-10.28788471,6.179434776,12.36629778
55.129723,-4.845864296,-6.888118267,5.5042696,10.06109129
55.1347277,-5.298368454,-4.745307922,1.884236693,7.358057044
55.13970208,-7.345410824,-2.281674147,-2.288856745,8.024958709
55.14470831,-8.219294548,-1.046266198,-3.746925592,9.093455186
55.14971201,-7.694964409,-0.624886632,-2.360682964,8.073152087
55.15471685,-6.543353081,-0.7948749661,0.6584054828,6.624257961
55.15972093,-5.461174011,-1.352723956,3.562572241,6.659294606
55.1647277,-4.378994942,-2.363077164,6.217741966,7.963670356
55.16970147,-3.550601006,-3.490746021,8.152256966,9.55255824
55.17425908,-3.167528868,-4.872200489,10.22802925,11.76367966
55.17926362,-3.177105665,-6.536170483,12.22000504,14.21773709
55.18471624,-3.232172251,-8.808267593,13.247118,16.23325755
55.18971931,-3.284844637,-10.50575733,12.33971596,16.53571079
55.19472585,-2.947262287,-12.08592987,10.42435455,16.23031804
55.19970154,-2.303221941,-13.46020222,8.039729118,15.84673844
55.20470585,-1.204283476,-14.63096619,5.248090267,15.590315
55.20970924,1.18991828,-15.86876869,0.7972691655,15.93327849
55.21426616,3.636792421,-16.51999092,-3.026270866,17.1841402
55.21968893,5.310339451,-17.19994545,-6.325480938,19.08008222
55.22472547,5.997475147,-17.26458931,-8.312667847,20.07825189
55.22969839,5.23611927,-16.35239792,-8.475474358,19.14814686
55.2347037,4.254496574,-15.13614273,-7.115567684,17.25789273
55.23970885,3.433285236,-13.77384281,-5.54018259,15.2381041
55.24426701,2.741360903,-12.43308926,-4.163516521,13.39520951
55.24923931,2.04464817,-11.22401714,-2.980781078,11.79170059
55.25424516,0.7374141216,-10.09395409,-1.778891921,10.2759985
55.25969724,-0.8427590132,-8.755595207,-0.1939303428,8.798198632
55.26425539,-1.968033791,-7.912836552,0.5027823448,8.16938978
55.26925931,-3.002328873,-7.199364662,-0.2011129409,7.802901807
55.27471201,-3.746925592,-6.672640324,-0.6703764796,7.681990947
55.27971777,-4.062960148,-6.397306919,-0.6847416759,7.609339797
55.28472339,-4.019864559,-6.291962147,-0.2466027737,7.470536236
55.28972647,-3.816357613,-6.375759125,0.1053448766,7.431418935
55.29470054,-3.90254879,-6.428431511,-0.2609679997,7.524807177
55.29970608,-3.665522814,-6.438008308,-0.3591302633,7.417073751
55.30471139,-3.143586874,-6.550535679,-0.4596867263,7.28031373
55.30971531,-2.372653961,-6.758831501,-0.691924274,7.196530364
55.31472001,-1.726219416,-7.02937603,-1.180341482,7.333837117
55.31972516,-1.168370485,-7.390900612,-1.503558636,7.632246721
55.32470031,-0.7709329724,-7.733271599,-1.520318031,7.9189137
55.32970462,-0.5291185975,-8.090007782,-1.541865945,8.252608254
55.33470978,-0.3950432837,-8.446743965,-1.482010841,8.584864527
55.33971447,-0.3280056417,-8.827422142,-1.362300754,8.937943428
55.34427262,-0.383072257,-9.18894577,-1.161187768,9.269942058
55.34924608,-0.2561795712,-9.44512558,-0.8427590132,9.48610921
55.3542507,-0.2537853718,-9.555258751,-0.6200982332,9.578721138
55.35925778,-0.3974374831,-9.557653427,-0.5937620401,9.584323082
55.36470947,-0.6416460276,-9.342175484,-0.7805097699,9.396656208
55.36926585,-0.7350199223,-9.220070839,-1.010353088,9.304341671
55.37424054,-0.9121908545,-8.966285706,-1.335964561,9.111046746
55.37969324,-1.122880578,-8.693346024,-1.307234168,8.862504558
55.38425078,-1.223437071,-8.492233276,-1.149216771,8.656530683
55.389703,-1.230619669,-8.315062523,-0.8140285611,8.444958971
55.39470708,-1.367089152,-8.178592682,-0.5147533417,8.308025157
55.39971231,-1.546654344,-8.0229702,-0.2537853718,8.174631337
55.40471808,-1.733402014,-7.862558365,0.0,8.051366752
55.40972216,-1.89860189,-7.754819393,0.316034615,7.990105809
55.41472639,-1.982398987,-7.747636795,0.4525041282,8.010027568
55.41970085,-1.920149803,-7.771578789,0.624886632,8.029626108
55.42425878,-1.723825216,-7.951143742,0.7781155705,8.17298746
55.42971108,-1.470039845,-8.145073891,0.8667010069,8.321923844
55.43471508,-1.213860273,-8.468291283,0.7565677166,8.588236648
55.43972216,-1.070208192,-8.714894295,0.5147533417,8.795436268
55.44472585,-0.9026140571,-9.069235802,0.08379705995,9.114426592
55.44970024,-0.7613561153,-9.3685112,-0.4501099288,9.410168127
55.45470578,-0.6440402865,-9.672574997,-1.156399369,9.762722697
55.45971016,-0.5027823448,-9.864110947,-1.707065821,10.02335017
55.46471531,-0.3136404157,-10.02212811,-2.224213362,10.27076176
55.46971939,-0.07422025502,-10.08677197,-2.650381327,10.42942944
55.47472339,0.2681505978,-10.0317049,-3.071760893,10.49489033
55.47969816,0.5243301988,-9.981427193,-3.277662039,10.51888204
55.48470547,0.8164227605,-9.895236015,-3.246537447,10.44615945
55.48970801,1.036689281,-9.947908401,-2.999934673,10.44199283
55.49471254,1.307234168,-10.02452278,-2.770091295,10.4820477
55.49971816,1.572990537,-10.12029076,-2.516305923,10.54639179
55.50472454,1.82198751,-10.24957752,-2.181117773,10.63629412
55.50969693,1.982398987,-10.39562416,-1.824381709,10.73905378
55.51470247,2.104503393,-10.52491093,-1.465251446,10.83280418
55.51970885,2.286462545,-10.64222622,-1.125274777,10.94308609
55.52426493,2.351106167,-10.7044754,-0.9193734527,10.99812445
55.52926985,2.482787132,-10.78587818,-0.6344634295,11.08611492
55.53424424,2.561795712,-10.99656868,-0.672770679,11.3110539
55.53969631,2.540247917,-11.22641182,-0.895431459,11.54499802
55.54470178,2.473210335,-11.54244614,-1.192312479,11.86450341
55.54970608,2.317587137,-11.83453941,-1.455674648,12.14687293
55.55471078,2.161964178,-12.08592987,-1.647210717,12.38777999
55.55971593,1.987187386,-12.32535076,-1.941697598,12.63461019
55.56472085,1.628057122,-12.58631802,-2.319981337,12.90148381
55.56972585,1.321599364,-12.81137371,-2.470816135,13.11422333
55.57469939,0.9433154464,-13.16571522,-2.552218914,13.44394743
55.57970454,0.4932055473,-13.64694977,-2.698265314,13.91988238
55.58471008,0.02394201607,-14.1856451,-2.904166698,14.47989242
55.58971478,-0.7517793179,-14.55435181,-3.239354849,14.92942559
55.59471962,-1.37666595,-14.60223579,-3.56496644,15.0940215
55.59972516,-1.790862918,-14.55674648,-3.806780815,15.15247961
55.60470024,-1.862688899,-14.4897089,-3.660734415,15.06061919
55.60970301,-1.458068848,-14.55674648,-3.275267839,14.99173814
55.61470801,-0.9840168953,-14.5639286,-2.837129116,14.87029278
55.61971254,-0.5363011956,-14.56153488,-2.525882721,14.78871193
55.6247197,-0.2298433632,-14.5639286,-2.353500366,14.75465379
55.62972301,0.0287304204,-14.42506504,-2.260126352,14.60107866
55.63469693,0.1221042871,-14.17606831,-2.372653961,14.37377156
55.63970185,-0.2130839527,-13.92707157,-2.542642117,14.15887553
55.64470824,-0.7158663273,-13.62300777,-2.511517525,13.87106794
55.64971224,-1.575384736,-13.2327528,-1.927332401,13.46485031
55.65471685,-3.320757866,-12.60786629,-0.8906430602,13.06824281
55.65972147,-4.855441093,-12.29901409,-0.2944868207,13.22602655
55.66472801,-5.659893036,-12.41633034,0.4141969085,13.65178403
55.66925324,-6.083666325,-12.6485672,1.252167463,14.09131546
55.67425878,-6.87854147,-12.89277649,2.504334927,14.82598097
55.67926524,-7.7284832,-13.20402241,3.406949043,15.67427708
55.68471662,-8.398859978,-13.71398735,3.818751812,16.528677
55.68972124,-8.453926086,-14.14733791,3.622427225,16.87418192
55.69472616,-8.271966934,-14.5830822,3.023876667,17.03630105
55.6996997,-8.140285492,-15.1672678,1.963245392,17.32525881
55.70470524,-7.953537941,-15.57428169,0.8667010069,17.50908869
55.70926208,-7.718906403,-15.93820095,-0.3208230138,17.71188
55.71471354,-7.584830761,-16.11058235,-1.132457376,17.84272908
55.7197187,-7.137115479,-16.0267868,-1.611297727,17.61796223
55.72472524,-6.454767704,-15.8304615,-2.293645144,17.24900999
55.72969878,-5.487510204,-15.62456036,-2.78924489,16.79343746
55.73470424,-4.42448473,-15.35641003,-3.110068083,16.28090653
55.73970893,-3.660734415,-15.03798103,-3.11964488,15.78841456
55.74471324,-3.373430252,-14.03481007,-3.670311213,14.89386148
55.74971847,-3.002328873,-13.30457878,-3.462015629,14.07165049
55.75472331,-1.759738207,-13.10346603,-2.726995707,13.49940763
55.75969785,-1.429338455,-12.72278786,-2.485181332,13.04179687
55.7642557,-1.359906554,-12.28943729,-1.59932673,12.46745607
55.76970739,0.1651999205,-12.31816769,1.146822572,12.37254009
55.77471193,1.462857246,-12.43308926,1.89860189,12.66200414
55.77971662,1.934514999,-12.09550667,1.316810966,12.31980604
55.78472216,1.833958507,-11.72679996,0.825999558,11.89804675
55.7897267,1.584961534,-11.46343803,0.7015010715,11.59373186
55.79470062,1.386242747,-11.09951878,0.248996973,11.18852026
55.79970585,1.000776291,-10.68053341,0.5961562395,10.74387032
55.80471101,0.5961562395,-10.24000072,0.6296750307,10.27664866
55.80971624,-0.02154781483,-9.706093788,0.6177040339,9.7257534
55.81471931,-0.5099649429,-9.208099365,0.6823474765,9.247418896
55.81972524,-1.036689281,-8.714894295,0.6943184733,8.80375973
55.82470085,-1.570596337,-8.149862289,0.8116343617,8.339411162
55.82970554,-1.989581585,-7.594407558,1.017535686,7.916365323
55.83470924,-2.264914751,-6.833051682,1.149216771,7.28979652
55.8397157,-2.466027737,-6.155492783,1.161187768,6.731993852
55.84472024,-2.573766708,-5.54257679,1.027112484,6.196724344
55.84972485,-2.612074137,-4.939238071,0.9504981041,5.667667127
55.85469901,-2.590526342,-4.443638325,0.7900865674,5.20393938
55.85970308,-2.583343744,-3.916913986,0.6153098345,4.732281296
55.86470978,-2.559401512,-3.562572241,0.3806780577,4.403109453
55.86971378,-2.616862535,-3.260902643,0.06943184882,4.181659522
55.87471839,-2.578555346,-3.090914488,-0.09097966552,4.0262858
55.87972339,-2.578555346,-3.090914488,-0.09097966552,4.0262858
55.88469847,-2.461239338,-2.959233284,-0.2226607651,3.855429746
55.88970216,-2.477998734,-2.851494312,-0.2585737705,3.786602426
55.89470708,-2.499546528,-2.703053713,-0.1556231081,3.684894947
55.89971162,-2.545036316,-2.576161146,0.04309562966,3.621556756
55.90471693,-2.592920542,-2.588132143,0.1580173075,3.666965284
55.90972216,-2.573766708,-2.624045134,0.2274491638,3.68261063
55.91472578,-2.63841033,-2.686294317,0.2849099934,3.776050838
55.91970247,-2.693476915,-2.746149302,0.390254885,3.866322898
55.92470616,-2.71502471,-2.801215887,0.4118026793,3.922722405
55.92971047,-2.719813108,-2.877830505,0.4979939461,3.990900867
55.93471593,-2.755726099,-2.913743496,0.605733037,4.055963511
55.93972031,-2.746149302,-2.932897091,0.6703764796,4.073404713
55.94472493,-2.63601613,-2.952050686,0.7015010715,4.019364134
55.94969993,-2.233790159,-3.086126089,0.8810662031,3.910277531
55.95470485,-1.917755604,-3.191470861,0.8643068075,3.822342093
55.95970916,-1.733402014,-3.296815634,0.720654726,3.793813266
55.96471439,-1.673547029,-3.359065056,0.4884171486,3.78452494
55.96971939,-1.774103403,-3.361459255,0.2705447972,3.810517773
55.97472332,-1.972822189,-3.292027235,-0.05267243832,3.838260686
55.9792507,-2.085349798,-3.275267839,-0.3543418646,3.898925667
55.98470339,-2.147598982,-3.375824451,-1.027112484,4.13077864
55.98970801,-2.104503393,-3.617638826,-1.738190413,4.531837499
55.99471324,-1.965639591,-3.974374771,-2.78924489,5.238251701
55.9997187,-1.788468719,-4.326322556,-3.768473387,6.009748654
56.00472301,-1.553836942,-4.690241337,-4.898536682,6.957617025
56.00924978,-1.333570361,-5.080495834,-6.227318764,8.146738416
56.01425408,-1.00556469,-5.46596241,-7.642292023,9.449472619
56.01925962,-0.5363011956,-5.98550415,-8.942343712,10.77401457
56.02426362,-0.04070143029,-6.895300865,-10.33337498,12.42278025
56.02971693,0.2106897533,-7.845798969,-11.27668953,13.73916585
56.03472147,0.2585737705,-9.337387085,-12.06677628,15.25977548
56.03972616,0.181959331,-10.78587818,-12.29183197,16.35412518
56.04470062,-0.1628057212,-12.34210968,-11.95185471,17.18141461
56.04970647,-0.5291185975,-13.97734928,-11.38203526,18.03321896
56.05471047,-0.7757213712,-16.23508263,-11.43949604,19.8756565
56.05971624,-1.278503656,-18.35873795,-12.51449203,22.25511944
56.06472085,-2.001552582,-20.54703903,-14.24789429,25.0836504
56.06972555,-2.806004286,-22.20861435,-15.55752277,27.26046086
56.0746997,-3.629609823,-22.60844612,-15.35880375,27.57188343
56.07970555,-4.235342979,-21.50471878,-14.58547688,26.32730893
56.08470985,-4.05338335,-19.59654045,-13.32133865,24.03980819
56.08926762,-3.16034627,-17.16163826,-12.23676491,21.31309531
56.09468824,-1.987187386,-13.50090313,-11.46822643,17.82536161
56.09972339,-1.319205165,-10.25197124,-11.11627865,15.17942251
56.10469839,-0.55784899,-7.084442616,-10.38844109,12.58650988
56.10970362,0.3208230138,-4.417302132,-9.569623947,10.54481806
56.11470862,0.8690952063,-2.030282974,-8.396465302,8.682050737
56.11971293,0.7541735172,-1.175553083,-7.522581577,7.651139545
56.12471816,-0.05506663769,-1.242590666,-6.610390663,6.72639046
56.1297227,-1.675941229,-2.04704237,-6.196194172,6.737357322
56.13469778,-3.057395458,-3.646369219,-5.829881191,7.52536977
56.13970239,-4.213795185,-5.257667065,-4.98233366,8.379903432
56.14470732,-4.865017891,-7.026981831,-4.01507616,9.442865524
56.1497117,-5.080495834,-9.447520256,-1.831564307,10.88217371
56.15471632,-4.939238071,-11.52808094,0.5985504389,12.55591436
56.15972455,-5.092466831,-13.517663,2.695871115,14.69449395
56.16469601,-5.106832027,-15.25824738,3.354276657,16.4360889
56.16970155,-4.881777287,-16.9988327,2.37744236,17.84500756
56.17470547,-4.642356873,-17.9708786,1.175553083,18.59800742
56.17970985,-4.335899353,-18.76814651,-0.08379705995,19.26266775
56.18471532,-3.462015629,-19.36430359,-1.134851575,19.70405273
56.1897197,-1.778891921,-19.07939339,-3.620033026,19.50108581
56.19472547,0.04070143029,-17.76018906,-4.845864296,18.40946422
56.19969908,0.04788403213,-15.31810284,-2.458845139,15.5142672
56.20470432,-1.649604917,-11.97340298,1.89860189,12.23471554
56.20970862,-3.739742994,-8.166622162,4.077325344,9.864277833
56.21471478,-4.551377296,-6.232107162,2.123656988,8.004006121
56.21971901,-5.489904404,-4.838681698,-0.921767652,7.375740406
56.2247237,-6.50983429,-3.823540211,-2.683900118,8.012535308
56.22969808,-6.603208065,-3.191470861,-1.889025092,7.5733915
56.23470339,-5.954379559,-3.162740469,0.2106897533,6.745513574
56.23926239,-5.224148273,-3.438073635,2.296039343,6.662122197
56.24426608,-4.326322556,-4.046200752,4.012681961,7.154748347
56.24924032,-3.378218651,-4.927267075,5.71974802,8.270782278
56.25469224,-2.825158119,-6.105214119,8.106766701,10.53445889
56.25925039,-2.97599268,-7.06768322,9.595960617,12.28377542
56.26470239,-3.442862034,-8.142680168,10.60391903,13.80578278
56.26925962,-3.921702385,-9.255983353,10.54406452,14.56812528
56.27426485,-3.974374771,-10.52969933,9.018958092,14.42261515
56.27971685,-3.402160645,-11.54723454,7.113173485,13.98250906
56.28472147,-2.33913517,-12.5743475,4.841075897,13.67559081
56.28972739,-0.2633621991,-13.96537876,1.000776291,14.00366798
56.29470124,1.721431017,-14.87517548,-2.748543501,15.22460711
56.29970609,3.327940464,-15.52879238,-5.717353821,16.87917993
56.30426401,4.278438568,-15.93580627,-7.369352818,18.07103536
56.30926801,4.802768707,-16.03875732,-7.556100368,18.36853224
56.31469008,4.740519524,-15.60061836,-6.105214119,17.4104985
56.31972678,4.182670593,-14.87038708,-4.503493309,16.09051264
56.32470062,3.464409828,-13.8911581,-2.497152328,14.53279666
56.32970432,2.882618904,-12.65096188,-1.15400517,13.02643681
56.33470985,2.118868589,-11.69328117,-0.5147533417,11.89484761
56.33971439,1.309628367,-10.86249352,-0.2561795712,10.94415459
56.34427162,0.4620809257,-10.03888798,-0.1292868853,10.05034854
56.34924578,-0.5626373887,-9.10036087,0.1699883193,9.119321512
56.35425047,-1.357512355,-8.054094315,0.490811348,8.182430617
56.35970309,-1.666364431,-7.410054207,0.6272808313,7.620968115
56.36426147,-2.161964178,-6.727706909,-0.07661445439,7.066965341
56.36971378,-2.772485495,-6.172252178,-0.7422025204,6.80692569
56.37471816,-3.181894064,-5.863399982,-0.9504981041,6.73849804
56.37972308,-3.232172251,-5.68383503,-0.9121908545,6.601894445
56.38469809,-3.090914488,-5.705382824,-0.6703764796,6.52338487
56.38970147,-2.925714493,-5.822698593,-0.7326257229,6.557466329
56.39470732,-2.717418909,-5.930437565,-0.9672574997,6.594698045
56.39971416,-2.157175779,-6.191405773,-0.8427590132,6.610382405
56.40426947,-1.790862918,-6.581660271,-0.9457096457,6.886204226
56.40969139,-1.44849205,-7.213729858,-1.213860273,7.457176708
56.41472647,-1.185129881,-7.726089001,-1.357512355,7.933462288
56.41970116,-0.9768342972,-8.219294548,-1.386242747,8.392417832
56.42470547,-0.6943184733,-8.736441612,-1.491587639,8.890012591
56.42971139,-0.6368576288,-8.920795441,-1.403002143,9.052877661
56.43471478,-0.6344634295,-8.973467827,-1.168370485,9.071425372
56.43972062,-0.7445967197,-9.018958092,-1.106121182,9.116991467
56.44472616,-0.9241618514,-8.968679428,-1.216254473,9.09783275
56.44969962,-1.036689281,-8.961497307,-1.367089152,9.124258403
56.45470401,-1.18752408,-8.954314232,-1.465251446,9.150787868
56.45970893,-1.26413846,-8.944737434,-1.503558636,9.157896177
56.46471439,-1.37427175,-8.947132111,-1.458068848,9.168738224
56.4692717,-1.474828243,-8.853757858,-1.323993564,9.072877466
56.47424578,-1.508347034,-8.717288017,-1.106121182,8.915701051
56.47970032,-1.508347034,-8.616731644,-0.9433154464,8.798466857
56.48470339,-1.601720929,-8.449137688,-0.6440402865,8.62370138
56.48926155,-1.632845521,-8.300697327,-0.490811348,8.473998843
56.49471355,-1.711854219,-8.171410561,-0.2394201756,8.352228292
56.49971901,-1.683123827,-8.133103371,0.2322375625,8.30868284
56.50472247,-1.529894829,-8.039729118,0.6655880809,8.211018815
56.50969839,-1.400607944,-8.030152321,0.9576807022,8.207447912
56.51425508,-1.290474772,-8.056488991,1.142034173,8.23872454
56.51970678,-1.086967587,-8.157045364,1.058237195,8.296912292
56.52426485,-1.00317049,-8.252813339,0.9002198577,8.362157308
56.52971632,-0.8427590132,-8.535328865,0.517147541,8.592410789
56.53427439,-0.7445967197,-8.827422142,0.1436520964,8.859934643
56.53969593,-0.5602431893,-9.200917244,-0.4333505034,9.228138665
56.54470093,-0.3687070608,-9.476250648,-1.051054597,9.541487673
56.54925778,-0.2035071403,-9.749189377,-1.740584612,9.905440094
56.55471139,0.0359130241,-9.911994934,-2.284068346,10.17181899
56.55971724,0.2442085743,-9.969455719,-2.920926094,10.39141446
56.56427447,0.3639186621,-9.962273598,-3.270479441,10.49168089
56.56969532,0.423773706,-9.900024414,-3.766079187,10.600633
56.57469993,0.4620809257,-9.909601212,-4.000710964,10.69670057
56.57970516,0.4955997467,-9.995792389,-4.039018154,10.79236546
56.58470916,0.5698199868,-10.10353088,-3.986345768,10.87644168
56.58971447,0.6320692301,-10.33816338,-3.859453201,11.05316753
56.59427224,0.6320692301,-10.56082344,-3.459621429,11.1310145
56.59969378,0.6392518282,-10.81460953,-2.82036972,11.19459278
56.6046987,0.9337386489,-11.09712505,-2.248155355,11.36099709
56.60970301,1.323993564,-11.21922874,-1.721431017,11.42748342
56.61426093,1.625662923,-11.25514221,-1.316810966,11.44792546
56.61971347,1.788468719,-11.17373943,-1.142034173,11.37344782
56.62427162,1.865083098,-11.17613316,-1.323993564,11.40778007
56.62969262,1.908178806,-11.40358257,-1.738190413,11.6920549
56.63469816,1.81959331,-11.71482849,-2.288856745,12.07422841
56.63970278,1.584961534,-12.17690945,-3.028665066,12.64761
56.64470678,1.41257906,-12.53364563,-3.430891037,13.07129166
56.6497117,1.22822547,-12.8640461,-3.552995205,13.40208919
56.65471786,1.079784989,-13.17289734,-3.512293816,13.67579496
56.65972186,0.9026140571,-13.62779617,-3.440467834,14.08433029
56.66472609,0.605733037,-14.01565647,-3.394978046,14.43369027
56.66970124,0.3064578176,-14.38675785,-3.327940464,14.76983093
56.67470616,-0.06464344263,-14.70279217,-3.442862034,15.10064817
56.67926308,-0.2873041928,-14.92305946,-3.560178041,15.34454676
56.68471539,-0.6009446383,-15.02600956,-3.881000996,15.53075228
56.68972086,-0.7541735172,-14.90629959,-3.919308186,15.43138107
56.69472493,-0.7948749661,-14.66448498,-3.713406801,15.1482123
56.69970001,-0.5698199868,-14.44900703,-3.390189648,14.85233601
56.70470547,-0.248996973,-14.11142445,-2.856282711,14.3997448
56.70970886,0.03351882473,-13.76665974,-2.183511972,13.93878647
56.71471447,0.3591302633,-13.44104862,-1.750161409,13.55927091
56.71927324,0.5937620401,-13.29739666,-1.790862918,13.43058082
56.72424609,0.7469909191,-13.05318737,-2.04464817,13.23345314
56.72969909,0.5099649429,-12.8353157,-2.214636564,13.03495334
56.73470393,0.1221042871,-12.76109505,-1.132457376,12.81182719
56.73970832,-0.5937620401,-13.04839897,0.8044517636,13.08665013
56.74471286,-1.391031146,-13.60864258,2.26730895,13.86617504
56.74971786,-2.195482969,-14.28380775,2.947262287,14.74902249
56.75427539,-2.834734917,-14.96615505,3.617638826,15.6559519
56.75969686,-3.529053211,-15.5407629,4.912901878,16.67651441
56.76470278,-4.230554581,-15.66047287,5.307945251,17.06816585
56.76970762,-4.953603268,-15.52400398,5.19781208,17.10409704
56.77471101,-6.212953568,-15.19360352,4.649539471,17.06061538
56.77971686,-7.388506413,-15.10262394,4.01747036,17.2863919
56.78472116,-8.487444878,-15.24627686,3.141192675,17.72999633
56.78972709,-9.131484985,-15.69638634,1.685518026,18.2373664
56.79425262,-9.15063858,-16.42422295,-0.2370259613,18.80280477
56.79970801,-8.887276649,-17.32444382,-2.851494312,19.67869558
56.8047117,-8.501810074,-17.92059898,-4.175487995,20.26976424
56.8097157,-7.864952564,-18.16002083,-4.57531929,20.31200093
56.81472055,-7.230489254,-17.78891945,-4.778826714,19.7879462
56.81927755,-6.746860504,-17.09460068,-4.359841347,18.88792513
56.82425193,-6.189011574,-16.19916916,-3.7181952,17.73532975
56.82925693,-5.779603004,-15.20796967,-2.999934673,16.54345068
56.83470924,-5.226542473,-13.86242771,-1.905784607,14.93705671
56.83926701,-4.625597477,-12.87841129,-1.173158884,13.7341156
56.84424124,-4.484339714,-12.09071827,-0.6224924326,12.9105487
56.8492467,-3.215412855,-11.67412758,1.051054597,12.15437577
56.85425078,-0.691924274,-12.18409252,3.828328609,12.79011219
56.8597037,2.624045134,-12.77306652,3.509899616,13.50393411
56.86470855,4.27125597,-13.01488018,1.750161409,13.80919254
56.86971293,4.532223701,-12.67490387,0.5985504389,13.47414199
56.87471778,4.963180065,-12.56716442,0.4548983276,13.51938277
56.87972486,5.664681435,-12.50970364,0.356736064,13.73712348
56.88425039,5.71974802,-12.30140877,0.1364694983,13.56682715
56.88970278,4.149151325,-11.583148,0.009576806799,12.30385574
56.89470701,2.461239338,-10.59434223,0.3591302633,10.88240603
56.89926455,1.304839969,-9.579200745,1.082179189,9.728042251
56.90426955,0.3543418646,-8.43956089,1.702277422,8.616814643
56.90924362,-0.5482721925,-7.050923824,1.934514999,7.332017284
56.91469624,-1.386242747,-6.107608318,1.996764183,6.573554254
56.91970055,-1.900996208,-5.13556242,2.214636564,5.906979183
56.92470586,-2.202665567,-4.381389141,2.48996973,5.499841422
56.92971078,-2.296039343,-3.574543238,2.592920542,4.977187254
56.93471447,-2.442085743,-3.05021286,2.346317768,4.557717448
56.93972063,-2.695871115,-2.626439333,2.090138197,4.30518087
56.94427839,-2.889801502,-2.370259762,1.826775908,4.160071427
56.94970032,-3.038241863,-2.135627985,1.594538331,4.041580508
56.95470486,-3.088520288,-2.023100376,1.422155857,3.956566692
56.95971139,-3.110068083,-1.97042799,1.201889277,3.872937874
56.96471539,-3.086126089,-1.996764183,1.072602391,3.8290622
56.9692717,-3.069366693,-1.944091797,0.9864110947,3.764772458
56.97469355,-3.201047659,-1.719036818,1.053448796,3.783060674
56.97969878,-3.299209833,-1.678335428,1.094150186,3.859891185
56.98425624,-3.315969467,-1.67115283,1.182735682,3.897084677
56.98970739,-3.167528868,-1.714248419,1.252167463,3.813110295
56.99471347,-3.126827478,-1.762132406,1.33835876,3.830582836
56.99971847,-3.100491285,-1.812410712,1.443703651,3.870679402
57.00427624,-3.102885485,-1.917755604,1.541865945,3.960181243
57.00969686,-3.078943491,-2.025494576,1.580173135,4.00992125
57.0142547,-3.074155092,-2.147598982,1.568202138,4.064710182
57.0192597,-2.985569477,-2.274491549,1.584961534,4.074191941
57.0247117,-2.810792685,-2.382230759,1.56101954,4.001544815
57.02971747,-2.612074137,-2.475604534,1.405396342,3.863507213
57.03427409,-2.480392933,-2.585737944,1.209071875,3.781566423
57.03969839,-2.466027737,-2.719813108,0.8906430602,3.777819636
57.04470124,-2.590526342,-2.786850691,0.383072257,3.824147991
57.04925901,-2.657563925,-2.837129116,0.0359130241,3.887574743
57.05471101,-2.758120298,-3.05021286,-0.8499416113,4.199217405
57.05971501,-2.741360903,-3.356670856,-1.594538331,4.617883858
57.06472032,-2.731784105,-3.823540211,-2.760514498,5.450004076
57.06972432,-2.662352324,-4.223371983,-3.881000996,6.32354011
57.07469932,-2.561795712,-4.67827034,-4.917690277,7.254838958
57.07970455,-2.430114746,-5.257667065,-6.181828976,8.471335794
57.08470924,-2.240972757,-6.141127586,-8.037335396,10.36022042
57.08971439,-2.018311977,-7.137115479,-9.933543205,12.39706744
57.09472001,-1.647210717,-8.379706383,-12.15536213,14.85549093
57.09972309,-1.182735682,-9.727641106,-13.57033539,16.73857424
57.1046987,-0.9241618514,-11.26711273,-12.78982544,17.06990156
57.1097027,-0.9433154464,-12.14099693,-11.07797146,16.46253632
57.11470824,-1.036689281,-12.8688345,-9.919178009,16.28102326
57.11926678,-1.754949808,-13.9055233,-9.674968719,17.03080875
57.12468893,-2.367865562,-15.80173111,-10.08677197,18.89562018
57.12972301,-2.863465309,-17.13530159,-11.69806957,20.94427907
57.13469778,-3.371036053,-17.97327232,-14.7889843,23.51842807
57.13970124,-3.79241538,-18.09058762,-18.96925926,26.48555402
57.14470678,-3.655946016,-17.86074448,-20.31240654,27.29406518
57.14926493,-2.19308877,-17.55189323,-17.73624611,25.04901237
57.15471655,-0.2274491638,-16.56787491,-13.48653793,21.36429071
57.15972155,1.67115283,-14.64772606,-9.799467087,17.70249095
57.16472639,2.904166698,-11.22401714,-7.481880188,13.79823453
57.16970055,4.560954094,-8.4012537,-6.995857239,11.84590159
57.17470578,6.019022942,-6.169857979,-7.369352818,11.34033269
57.17971039,6.426037312,-4.635174274,-8.097189903,11.32886934
57.18471532,5.58088398,-4.048594952,-7.800309181,10.41067771
57.18927286,4.211400986,-4.86741209,-7.216124058,9.669542137
57.19424701,2.26970315,-6.260837555,-6.720524311,9.461241266
57.19970309,-0.2466027737,-8.346187592,-5.928043365,10.24018351
57.20425816,-1.369483352,-9.739612579,-5.190629482,11.12106885
57.20970986,-3.258508444,-12.20803452,-3.744531393,13.17860005
57.21471386,-4.781220913,-14.28620148,-2.458845139,15.26438815
57.21971939,-5.437232018,-17.10896492,-0.7948749661,17.96975233
57.22472401,-5.655104637,-19.50077248,0.2873041928,20.3062276
57.22969909,-5.595249176,-21.79920578,1.642422318,22.56567608
57.2347037,-4.936843872,-23.60682869,2.607285738,24.25804459
57.2397077,-3.11964488,-24.69379616,2.573766708,25.02279017
57.24471293,-0.7469909191,-23.91328621,1.661576033,23.98257884
57.24927047,0.7924807668,-20.99954224,0.1771709323,21.01523708
57.25424463,-0.2585737705,-16.43619537,0.1532289088,16.43894333
57.25969686,-3.280056238,-10.16338634,4.209006786,11.47906482
57.26425355,-6.337451935,-6.4691329,7.055712223,11.48024619
57.26925909,-7.618350029,-2.147598982,6.014234543,9.94094843
57.27426432,-8.113949776,-0.6847416759,1.010353088,8.20523403
57.27971809,-11.11627865,0.6392518282,-8.228871346,13.84538253
57.28472247,-12.13620853,1.106121182,-15.50006199,19.7170734
57.28972732,-11.39879417,0.8762778044,-13.53442192,17.71668559
57.29470032,-9.344569206,-0.06943184882,-4.395754337,10.32707367
57.29970586,-6.892906666,-1.735796213,4.57771349,8.454620724
57.30426332,-4.786009312,-3.416525841,7.381323814,9.43729173
57.30971601,-2.446874142,-5.262455463,8.506598473,10.29771082
57.31471993,-1.678335428,-7.137115479,10.53448772,12.8347442
57.31972578,-1.731007814,-9.289502144,14.02523327,16.91148741
57.32469909,-2.537853718,-10.65419769,16.20635223,19.56012481
57.32970393,-3.131615877,-11.94467258,16.9988327,21.01053389
57.33470955,-2.992752075,-13.08670616,16.09621811,20.95964409
57.33971501,-2.736572504,-14.34366226,13.47696114,19.87103313
57.3447194,-2.444479942,-15.03079796,10.67574501,18.5976316
57.34927632,-1.371877551,-15.61258888,7.079654217,17.19757202
57.35469786,1.256955862,-16.03157425,-0.9648633003,16.10969497
57.35970463,4.443638325,-16.63491249,-10.13226128,19.97821197
57.36426055,6.081272125,-16.64209557,-14.38675785,22.82367229
57.36926547,5.657498837,-16.06988144,-14.43703651,22.3310637
57.37468801,4.374206543,-14.71476364,-11.09712505,18.94212597
57.3797234,3.670311213,-13.26866627,-7.580042362,15.71577969
57.38469747,2.614468336,-12.02607536,-4.833893299,13.22227128
57.38970155,1.556231141,-11.00135708,-3.507505417,11.65136504
57.39470701,0.4620809257,-9.878476143,-1.956062794,10.08087255
57.39971109,-0.6512228847,-9.105149269,-0.720654726,9.156810454
57.40471724,-1.616086125,-8.310274124,0.6440402865,8.490416849
57.40972155,-2.463633537,-7.644686222,1.659181833,8.20143902
57.41472678,-4.311957359,-6.524199486,1.388636947,7.942699023
57.41970155,-4.934449673,-5.973533154,0.7757213712,7.786760273
57.42470609,-5.070919037,-5.707777023,0.2082955539,7.637822037
57.42971009,-5.231330872,-5.702988625,-0.07422025502,7.739277136
57.4347157,-4.843470097,-5.923254967,-0.03112462163,7.651478336
57.4397224,-4.776432514,-6.038176537,-0.457292527,7.712522279
57.4442794,-4.400542736,-6.258443356,-0.7254431248,7.684995598
57.44925201,-3.608062029,-6.538564682,-0.8188169599,7.512749225
57.45470455,-2.355894566,-6.993463039,-0.7685387731,7.419529388
57.4597107,-1.395819545,-7.343016624,-0.7158663273,7.508706277
57.46471378,-0.6703764796,-7.709329605,-0.7038952708,7.770369112
57.4697194,-0.1628057212,-8.046912193,-0.787692368,8.08701186
57.47472424,0.2035071403,-8.355764389,-0.940921247,8.411037182
57.4792517,0.3471592367,-8.59278965,-1.185129881,8.681076335
57.48470332,0.4094084799,-8.781931877,-1.419761658,8.905372871
57.48926024,0.4285621047,-8.939949036,-1.59932673,9.091985494
57.49471263,0.3088520169,-9.093177795,-1.707065821,9.257178064
57.49927009,0.1508347094,-9.117119789,-1.731007814,9.281218261
57.50469263,-0.04788403213,-9.126696587,-1.606509328,9.267133089
57.50969716,-0.2585737705,-9.136273384,-1.455674648,9.25512509
57.51470278,-0.6296750307,-9.011775017,-1.30005157,9.126812898
57.51970916,-0.9289502501,-8.916007042,-1.271321058,9.053970807
57.5247114,-1.15161097,-8.762778282,-1.103726983,8.906778559
57.52971632,-1.367089152,-8.633491516,-0.7685387731,8.77477979
57.53472124,-1.470039845,-8.461109161,-0.3950432837,8.596943909
57.53972647,-1.611297727,-8.305485725,-0.1508347094,8.461685684
57.54470055,-1.759738207,-8.018181801,-0.09337386489,8.209545458
57.54970578,-1.889025092,-7.668628216,-0.174776718,7.899798821
57.55471078,-1.980004787,-7.503427982,-0.07661445439,7.760652049
57.55971478,-1.984793186,-7.402871609,0.2130839527,7.667288753
57.56427316,-1.927332401,-7.455543995,0.517147541,7.717978234
57.56924709,-1.805228114,-7.685387611,0.7110779285,7.926516454
57.57425316,-1.735796213,-7.967903137,0.7493851185,8.189142016
57.57970432,-1.606509328,-8.271966934,0.4261679053,8.437293895
57.58470978,-1.503558636,-8.602366447,-0.2585737705,8.736604458
57.58971417,-1.343147159,-8.951920509,-1.37666595,9.156207415
57.59471963,-1.252167463,-9.11233139,-2.276885748,9.475585229
57.59972524,-1.137245774,-9.165003777,-3.138798475,9.754110828
57.6046987,-1.010353088,-9.212887764,-3.849876404,10.03591862
57.60970309,-0.7948749661,-9.246406555,-4.513070107,10.31967355
57.61470855,-0.5817909837,-9.313444138,-4.726154327,10.46017482
57.61971324,-0.4165911078,-9.500192642,-4.50109911,10.52079377
57.62471809,-0.3184288144,-9.749189377,-3.890577793,10.50165158
57.62972301,-0.1460463107,-9.900024414,-2.971204281,10.33730467
57.63469786,0.05746084079,-10.04846478,-2.370259762,10.32439235
57.63970178,0.3926490843,-10.24000072,-1.936909199,10.42896953
57.64470763,0.8355764151,-10.38365269,-1.570596337,10.53495154
57.64926486,1.41257906,-10.50815105,-1.345541358,10.68770788
57.6542704,2.303221941,-10.60631371,-1.221042871,10.92198093
57.65969132,3.009511471,-10.60391903,-1.209071875,11.08882829
57.6647274,3.634398222,-10.59194851,-1.26413846,11.26926216
57.66970032,4.374206543,-10.76672459,-1.45088625,11.71158026
57.67470578,4.848258495,-11.08275986,-1.642422318,12.2078142
57.67971347,5.176264286,-11.60948372,-1.9321208,12.85717368
57.68471624,5.324704647,-12.19606304,-2.226607561,13.49274674
57.68927355,5.286397457,-12.73954678,-2.425326347,14.00443708
57.69469501,5.073313236,-13.41471195,-2.523488522,14.56231432
57.69969963,4.709394932,-13.79299641,-2.463633537,14.78156422
57.70425747,4.302380562,-14.14254951,-2.384624958,14.97359748
57.70970924,3.478775024,-14.45379543,-2.212242365,15.03023933
57.7147147,2.535459518,-14.63814926,-2.252943754,15.02596833
57.71971932,1.206677675,-14.73631191,-2.497152328,14.99502349
57.72472424,-0.6129156351,-14.74588871,-3.394978046,15.14406733
57.72969816,-2.054224968,-14.57590008,-4.369418144,15.35475556
57.73470432,-3.028665066,-14.53280449,-5.090072632,15.69343996
57.73970886,-3.526659012,-14.53759289,-5.130774021,15.81466954
57.74471293,-3.213018656,-14.80334949,-4.106055737,15.69465957
57.74927047,-2.71502471,-14.95897198,-3.27287364,15.55165276
57.75469293,-1.735796213,-15.27021885,-2.236184359,15.53039255
57.75969878,-1.015141487,-15.54315758,-1.812410712,15.6813613
57.76425447,-0.3399766386,-15.77060699,-1.903390408,15.88869171
57.76970763,0.2561795712,-15.75863552,-2.080561161,15.89745125
57.77471201,0.1843535304,-15.53836918,-1.862688899,15.65070327
57.77971778,-0.3447650373,-15.1672678,-1.22822547,15.2208217
57.78472124,-1.345541358,-14.64533138,0.004788403399,14.70701315
57.7897267,-2.671929121,-14.23352909,0.9026140571,14.51024699
57.79425324,-4.278438568,-13.97734928,1.56101954,14.70061603
57.79970609,-5.46596241,-14.04199314,1.972822189,15.19691889
57.80471101,-6.313509941,-14.29577827,2.612074137,15.84463996
57.80971563,-7.273584843,-14.38915253,3.189076662,16.43541776
57.81472032,-8.667010307,-14.41069984,3.483563423,17.17325105
57.81927786,-9.87608242,-14.52801609,3.38061285,17.88934875
57.82470001,-10.92234802,-14.7650423,2.363077164,18.51724316
57.82970424,-11.53286934,-14.96615505,0.9911994934,18.92023649
57.83470955,-12.10747814,-15.32049656,-0.6129156351,19.5367425
57.8397154,-11.877635,-15.84722137,-1.721431017,19.87903326
57.84427224,-11.17852783,-16.30212021,-2.240972757,19.89322917
57.84969347,-10.46745014,-16.57505798,-2.722207308,19.79167684
57.85425193,-10.13704967,-16.42661858,-2.925714493,19.52314983
57.85970332,-9.842563629,-15.92144108,-3.047818661,18.96463929
57.86470801,-9.241618156,-15.00925064,-3.107673883,17.89812135
57.86971378,-8.731653214,-14.18803883,-2.614468336,16.86350077
57.87471778,-8.015787125,-13.49850941,-2.178723574,15.84958788
57.8797227,-6.727706909,-12.90953541,-1.941697598,14.68633155
57.88469724,-5.887341976,-12.16972733,-1.838746905,13.64346176
57.8897027,-5.430049419,-11.50653362,-2.04704237,12.88705301
57.89425963,-5.240907669,-10.83376312,-1.862688899,12.17814216
57.89926432,-4.290409565,-10.43393135,-0.7278373241,11.30505572
57.90471663,-1.060631394,-10.81221485,3.179499865,11.3198122
57.90927409,1.194706678,-11.12346077,3.919308186,11.85409972
57.91469717,2.152387381,-11.04205799,3.41892004,11.75792628
57.91970278,3.658340216,-11.18810463,0.3447650373,11.7760775
57.9247074,3.964797974,-11.15219116,-0.6105214357,11.85173941
57.92971101,4.355052948,-11.03248119,0.1005564705,11.86137593
57.9347157,4.79319191,-10.96783829,0.1340752989,11.97021894
57.93972063,4.414907932,-10.60631371,-0.06703764945,11.48868123
57.94472547,3.469198227,-10.01015759,-0.6153098345,10.61212502
57.94970116,2.626439333,-9.349357605,-0.8978256583,9.75267974
57.95470432,1.81959331,-8.564059258,-0.5027823448,8.769653406
57.95926332,0.7733271718,-7.599195957,0.1436520964,7.639793848
57.96471417,0.08858546615,-6.339846134,0.6871358752,6.377589835
57.9697194,-0.5099649429,-5.406107426,1.067813993,5.534102318
57.97472432,-0.8379706144,-4.469974518,1.436521053,4.769324866
57.9796984,-1.101332784,-3.521870613,1.388636947,3.942691858
57.98470332,-1.549048543,-2.944868088,1.185129881,3.532185199
57.98926124,-1.865083098,-2.559401512,1.046266198,3.335227732
57.99426524,-1.702277422,-2.360682964,0.9983820915,3.076904171
57.99968947,-1.352723956,-2.272097349,0.8595184088,2.780478441
58.00472309,-1.163581967,-2.312798738,0.672770679,2.674991848
58.00924947,-1.182735682,-2.367865562,0.3543418646,2.670432394
58.01425478,-1.297657371,-2.41574955,0.1939303428,2.749067027
58.01970763,-1.623268723,-2.466027737,0.141257897,2.955714455
58.02471224,-1.881842494,-2.545036316,0.1316810995,3.167945854
58.02926894,-2.051830769,-2.624045134,0.1795651317,3.33584562
58.03469101,-2.245761156,-2.803610086,0.1628057212,3.595855724
58.0397264,-2.391807556,-3.138798475,0.2633621991,3.955016928
58.04470086,-2.619256735,-3.335123062,0.4070142806,4.260189234
58.04970578,-2.868253708,-3.428496838,0.4692635238,4.494627699
58.0547104,-2.920926094,-3.471592426,0.4716577232,4.561384026
58.0597154,-2.777273893,-3.406949043,0.7709329724,4.46261019
58.06472086,-3.074155092,-3.416525841,0.825999558,4.669620287
58.06972609,-3.117250681,-3.399766445,0.7565677166,4.674190668
58.07469932,-3.01190567,-3.270479441,0.6153098345,4.488453824
58.07970555,-2.456450939,-3.327940464,0.8355764151,4.21989655
58.08470978,-2.056619167,-3.445256233,0.7709329724,4.085805987
58.08971378,-1.745373011,-3.49553442,0.605733037,3.953732457
58.09471963,-1.37427175,-3.545812607,0.3711012602,3.820880269
58.09972401,-1.101332784,-3.687070608,0.1388636976,3.850546285
58.1046984,-1.00556469,-3.787626982,-0.09816227108,3.920065603
58.1097034,-1.070208192,-3.801992416,-0.3878606856,3.968743859
58.11470855,-1.177947283,-3.869029999,-0.8810662031,4.139230676
58.11971317,-1.233013868,-3.957615376,-1.477222443,4.400594142
58.12471778,-1.335964561,-4.096478939,-2.092532396,4.790055619
58.12972278,-1.321599364,-4.218583584,-3.040636063,5.365495317
58.13469686,-1.230619669,-4.374206543,-4.211400986,6.195482702
58.13970247,-1.369483352,-4.441244125,-5.27682066,7.031711762
58.1447074,-1.194706678,-4.639962673,-6.129156113,7.779661452
58.14971201,-0.9145850539,-4.951209068,-7.201758862,8.787278746
58.15426986,-0.9672574997,-5.169081688,-8.497021675,9.992715843
58.15969286,-1.079784989,-5.623979568,-10.44111347,11.90848153
58.16469563,-0.940921247,-6.327875137,-11.99495029,13.59434328
58.16925317,-0.5793967843,-7.410054207,-13.09149456,15.05429619
58.17470555,-0.2681505978,-9.21528244,-13.82412052,16.61624637
58.17971109,-0.2394201756,-10.96065521,-13.86003399,17.67183711
58.18471532,-0.3327940404,-13.06276417,-13.40513515,18.72015513
58.18971963,-0.7182605267,-15.39950562,-13.20881081,20.30106781
58.19472547,-0.9552865028,-18.42817116,-14.50167942,23.46931551
58.19969878,-0.9864110947,-21.07615662,-15.94777775,26.44823245
58.20425786,-1.182735682,-23.40092659,-16.10100555,28.42964314
58.2097104,-1.82198751,-24.37297249,-14.82250309,28.58440176
58.21471447,-2.86107111,-23.18305588,-13.12980175,26.79610982
58.21971847,-3.732560396,-21.13840675,-12.2846489,24.73210152
58.22472455,-3.773261786,-18.45450592,-11.67891598,22.16310835
58.22925078,-3.497928619,-15.09065342,-11.20725822,19.11977934
58.23425601,-3.390189648,-11.45625496,-10.95347309,16.20856984
58.23971047,-3.217807055,-6.880935669,-10.55364132,13.00311128
58.24426547,-2.856282711,-3.933673382,-10.09874249,11.20788727
58.24968771,-2.659958124,-2.118868589,-9.473855972,10.06573039
58.25472209,-2.710236311,-1.900996208,-8.082824707,8.734484684
58.25972801,-3.354276657,-3.23456645,-7.314286232,8.672506852
58.26425532,-4.27125597,-5.284003258,-5.832275391,8.954314838
58.26970647,-5.94719696,-7.393294811,-3.114856482,9.986605567
58.27426547,-6.928819656,-9.375694275,-1.182735682,11.71797972
58.27926894,-8.774748802,-11.82256794,2.224213362,14.89014622
58.28469194,-9.979032516,-13.86721611,3.969586372,17.53962339
58.28972671,-10.15380955,-16.40028191,4.65193367,19.84211636
58.29470147,-9.378087997,-18.5311203,3.586514235,21.0763858
58.2997064,-7.740454197,-20.4656353,1.446097851,21.92824796
58.30471132,-5.71974802,-21.71062088,-0.4453215301,22.45584306
58.30971594,-3.040636063,-21.58612251,-4.800374508,22.32150865
58.31472094,0.1101332754,-20.08016968,-7.393294811,21.3982745
58.31972763,2.497152328,-17.61893082,-6.002263546,18.78003356
58.32469932,2.743755102,-14.21198082,-1.910573006,14.59996165
58.32970494,0.8164227605,-9.088389397,4.903325081,10.35895578
58.3347104,-1.434126854,-5.535394192,8.322244644,10.0973791
58.33971409,-3.294421434,-3.349488258,8.226476669,9.473500017
58.34471909,-4.841075897,-2.260126352,5.549759388,7.703506749
58.34972332,-6.744466305,-1.381454349,0.05746084079,6.884732646
58.35469901,-7.472303391,-1.074996591,-3.047818661,8.141261218
58.35925655,-7.096413612,-1.283292055,-2.609679937,7.669182097
58.36470917,-6.339846134,-2.080561161,0.06224924326,6.672799916
58.36971294,-5.111620426,-3.667917013,3.38061285,7.142186069
58.37427047,-3.617638826,-5.307945251,5.408501625,8.397230692
58.37969232,-2.501940727,-7.115567684,7.47469759,10.61895075
58.38469724,-1.912967205,-8.844181061,9.550470352,13.15638499
58.38970155,-1.915361404,-10.75714779,11.47540855,15.84518347
58.39470709,-1.941697598,-12.02607536,11.93988419,17.05747674
58.39971347,-2.291250944,-13.04361057,10.87925243,17.13895391
58.40471694,-2.449268341,-13.61343098,9.572018623,16.82105701
58.40972155,-0.9002198577,-14.45379543,7.362170219,16.24574247
58.41472701,0.2777273953,-15.08347034,5.31273365,15.99416609
58.41970117,1.379060149,-15.5311861,2.513911724,15.79364748
58.42470578,2.396595955,-15.81130791,-1.575384736,16.06931756
58.42971071,2.863465309,-15.51921558,-6.074089527,16.90976196
58.43426824,2.355894566,-14.74349403,-7.809885979,16.84978263
58.4396904,1.716642618,-13.69722748,-7.580042362,15.74858548
58.44427847,1.110909581,-12.47379112,-6.591237068,14.15181936
58.44970001,0.8236053586,-11.15458584,-5.073313236,12.28175957
58.45425717,0.4333505034,-10.3405571,-4.084507942,11.1264603
58.4592624,-0.07900865376,-9.682151794,-3.256114244,10.21531134
58.46426701,-0.605733037,-9.069235802,-2.48996973,9.424324899
58.46968894,-1.240196466,-8.520963669,-1.582567334,8.754965933
58.47427663,-1.692700624,-8.24802494,-1.132457376,8.495740729
58.47970124,-2.363077164,-7.929595947,-0.7445967197,8.30765008
58.48425624,-2.655169725,-7.599195957,0.02154781483,8.049731037
58.48970824,-3.509899616,-6.95276165,-0.4261679053,7.800122368
58.49471355,-3.943250179,-6.634333134,-0.5985504389,7.740921181
58.49971809,-4.185064793,-6.485892296,-0.517147541,7.736214046
58.50472247,-4.034229755,-6.385335922,-0.1460463107,7.554393032
58.50969747,-3.505111217,-6.342240334,0.3208230138,7.25346431
58.51470147,-2.877830505,-6.347028732,0.4429273009,6.983041367
58.51970709,-2.588132143,-6.222530365,-0.09576806426,6.739991369
58.52471255,-2.19308877,-6.272808552,-0.4309563041,6.65909069
58.52971724,-1.704671621,-6.449979305,-0.6105214357,6.69931898
58.5342744,-1.201889277,-6.651092529,-0.8810662031,6.815999363
58.53969632,-0.9241618514,-6.900089264,-1.213860273,7.066736428
58.54470148,-0.7015010715,-7.297526836,-1.647210717,7.513940699
58.54970555,-0.517147541,-7.594407558,-1.934514999,7.853968171
58.5547117,-0.3399766386,-7.905653954,-2.061407566,8.177062413
58.55971694,-0.1556231081,-8.255207062,-2.097320795,8.518885884
58.56472032,0.0143652102,-8.753201485,-2.006340981,8.980208612
58.56927778,0.06464344263,-9.114726067,-1.917755604,9.314515371
58.5746997,0.0359130241,-9.366117477,-1.8579005,9.548677428
58.57970486,-0.06464344263,-9.579200745,-1.63523972,9.717987169
58.58471048,-0.2920926213,-9.703699112,-1.312022567,9.796351248
58.58971471,-0.490811348,-9.710882187,-1.259350061,9.804493419
58.5942714,-0.6991068721,-9.595960617,-1.235408068,9.700383687
58.59969324,-0.7996633649,-9.39484787,-1.175553083,9.501818407
58.60469848,-1.000776291,-9.17697525,-1.04147768,9.289946377
58.60970248,-1.201889277,-8.851364136,-0.9744400978,8.985583921
58.61470855,-1.364694953,-8.51617527,-1.019929886,8.684923173
58.61971286,-1.472434044,-8.219294548,-1.209071875,8.437222273
58.62471778,-1.601720929,-7.788338184,-1.26653266,8.051572926
58.62972248,-1.67115283,-7.457938194,-0.9911994934,7.706884606
58.63469809,-1.594538331,-7.240066051,-0.5674257874,7.435259306
58.6397034,-1.395819545,-7.230489254,-0.2011129409,7.366731532
58.64470701,-1.106121182,-7.378929615,0.0023942017,7.461374677
58.64971101,-0.8164227605,-7.635109425,-0.09337386489,7.679203131
58.65426894,-0.6033388376,-7.95832634,-0.3806780577,7.990237272
58.6596914,-0.4477157295,-8.429984093,-0.8523358107,8.484783881
58.6647264,-0.1963245422,-8.935160637,-1.288080573,9.029661704
58.66970124,0.007182605099,-9.248801231,-1.865083098,9.434983348
58.67425848,0.2896983922,-9.500192642,-2.537853718,9.837595585
58.67971109,0.7015010715,-9.809044838,-3.430891037,10.41539619
58.68471509,1.122880578,-9.988609314,-4.022258759,10.8264372
58.68971994,1.479616642,-10.09634876,-4.355052948,11.09468386
58.69427755,1.776497602,-10.23521233,-4.333505154,11.25587766
58.69970001,2.092532396,-10.43632507,-3.933673382,11.34765875
58.70470432,2.300827742,-10.63743782,-3.428496838,11.41067405
58.70970986,2.298433542,-10.86249352,-2.863465309,11.46629826
58.71471478,2.140416384,-10.99656868,-2.41574955,11.46044288
58.71972148,1.953668594,-11.18331623,-1.810016513,11.4960664
58.72472455,2.023100376,-11.27429581,-1.41018486,11.54085363
58.72969878,2.04704237,-11.37485218,-1.446097851,11.64769692
58.73470401,2.130839586,-11.36048698,-1.733402014,11.68784943
58.73926117,2.219424963,-11.24077702,-2.078166962,11.64472812
58.74471378,2.427720547,-11.11627865,-2.30561614,11.60953676
58.74971871,2.576161146,-11.16176796,-2.207453966,11.66595574
58.75472217,2.56897831,-11.41315937,-1.972822189,11.86388991
58.75969724,2.274491549,-11.81538582,-1.484405041,12.12353546
58.7647024,1.991975784,-12.15775585,-1.185129881,12.37673332
58.7697064,1.594538331,-12.50730991,-1.18991828,12.66456708
58.77471163,1.139639974,-12.8496809,-1.383848548,12.97413255
58.77971663,0.4070142806,-13.14416695,-1.939303398,13.29269284
58.7847224,-0.1939303428,-13.40034676,-2.583343744,13.64846391
58.78972678,-0.7900865674,-13.72835255,-3.203441858,14.11927548
58.79470055,-1.352723956,-14.15212631,-3.82593441,14.72244257
58.79925901,-2.018311977,-14.50646782,-4.350264549,15.27861229
58.8047114,-2.7533319,-14.75067711,-4.833893299,15.76482909
58.80971532,-3.090914488,-14.89432907,-5.324704647,16.11667678
58.81472148,-2.956839085,-14.91108799,-5.358223438,16.11812647
58.81972517,-2.442085743,-14.96615505,-4.857835293,15.92319514
58.8246994,-1.63763392,-14.99249077,-4.115632534,15.63313965
58.82970555,-0.9528923035,-14.96854877,-3.145981073,15.3252293
58.8347104,-0.107739076,-15.04755783,-2.281674147,15.21994222
58.83971417,0.6224924326,-14.92305946,-1.731007814,15.03600973
58.8447194,1.235408068,-14.76264763,-1.63523972,14.90422782
58.84972371,1.381454349,-14.47773743,-1.965639591,14.67572949
58.85469878,0.8667010069,-13.9007349,-1.977610588,14.06742852
58.85970455,0.2322375625,-13.41950035,-1.127668977,13.46879955
58.86426094,-0.5075707436,-13.19444561,0.3758896589,13.20955397
58.86971263,-1.268926859,-13.5320282,1.714248419,13.69907333
58.87471778,-2.78924489,-14.03241634,2.482787132,14.52077227
58.87972432,-3.713406801,-14.37478733,2.762908697,15.10157493
58.88469694,-4.5370121,-14.54956341,3.349488258,15.60427332
58.88970155,-5.583278179,-14.62138939,4.307168961,16.2329827
58.8947074,-6.730101109,-14.47294903,4.984727859,16.72148398
58.8997114,-7.584830761,-14.36521053,4.814739704,16.94315938
58.90471724,-8.255207062,-14.31972027,4.022258759,17.01121388
58.90972217,-9.107542992,-14.40591145,2.801215887,17.27207093
58.91472617,-9.442731857,-15.02840424,0.758961916,17.76496952
58.91970024,-9.045293808,-15.8256731,-0.8044517636,18.24599715
58.92470578,-8.485051155,-16.59421158,-2.039859772,18.74899941
58.92971101,-7.740454197,-17.23346329,-2.671929121,19.07999196
58.93471509,-7.156269073,-17.52316284,-3.038241863,19.17040262
58.93972025,-6.986280441,-17.23346329,-3.430891037,18.90955802
58.94427848,-6.730101109,-16.68040276,-4.043806553,18.43590162
58.94970032,-6.397306919,-16.01002693,-4.388571739,17.79061719
58.95470517,-5.832275391,-14.96376038,-4.230554581,16.60804482
58.95971078,-5.269638062,-14.19282722,-3.727771997,15.5917194
58.96471501,-4.659116745,-13.37161636,-3.052607059,14.48536858
58.96971932,-3.574543238,-12.64138508,-1.733402014,13.25091161
58.97472363,-1.889025092,-12.26310158,0.9600749016,12.44483105
58.97969809,0.2106897533,-12.67490387,3.914519787,13.26729224
58.98470301,3.143586874,-13.18726254,3.804386616,14.08046125
58.98970832,4.647145271,-13.33809757,1.359906554,14.18979041
58.99471286,5.073313236,-13.14656162,0.538695395,14.10180068
58.99971755,5.379771233,-12.98136139,0.8283938169,14.07636027
59.00472394,5.777208805,-12.78264332,0.5602431893,14.03873157
59.00969694,5.085284233,-12.31098557,0.3998316824,13.32592761
59.01470155,3.907337189,-11.34612179,0.1149216816,12.00062376
59.01970701,2.8969841,-10.36210537,-0.0359130241,10.75950902
59.02426432,2.171540976,-9.459490776,0.5051765442,9.718680944
59.02971748,0.9983820915,-8.279149055,1.613691926,8.493825847
59.03472209,0.07661445439,-6.301538944,2.276885748,6.700706795
59.03972825,-0.6799532771,-5.774814606,2.422932148,6.299319041
59.04470148,-1.256955862,-4.757278919,2.461239338,5.501757886
59.04970578,-1.563413739,-3.790021181,2.616862535,4.863794054
59.05471194,-1.699883223,-3.167528868,2.365471363,4.303289076
59.05971532,-1.872265697,-2.628833532,2.085349798,3.842502877
59.06472055,-1.944091797,-2.161964178,2.054224968,3.559975034
59.06972494,-2.090138197,-1.824381709,2.013523579,3.428020348
59.07469932,-2.157175779,-1.750161409,1.800439715,3.310295375
59.07970455,-2.331952572,-1.697489023,1.630451322,3.313282857
59.08470925,-2.49236393,-1.539471745,1.438915253,3.263790483
59.08971294,-2.612074137,-1.314416766,1.22583127,3.17069157
59.09427132,-2.647987127,-1.33835876,1.122880578,3.172365173
59.09969378,-2.612074137,-1.470039845,0.873883605,3.12211803
59.1046984,-2.473210335,-1.685518026,0.8307880163,3.106114793
59.10925571,-2.475604534,-1.807622313,0.9504981041,3.209293206
59.11470824,-2.52827692,-1.920149803,1.170764685,3.38376261
59.11926801,-2.71263051,-2.023100376,1.273715258,3.615750264
59.12468824,-2.983175278,-2.152387381,1.259350061,3.888196079
59.12972278,-3.174711466,-2.260126352,1.333570361,4.118904457
59.13469725,-3.210624456,-2.236184359,1.577778935,4.218769519
59.13970217,-3.287238836,-2.298433542,1.735796213,4.370551957
59.1447064,-3.27287364,-2.394201756,1.831564307,4.449554104
59.14971232,-3.165134668,-2.545036316,1.865083098,4.469208239
59.15471632,-2.990357876,-2.664746523,1.738190413,4.36628219
59.15972178,-2.877830505,-2.813186884,1.522712231,4.302857353
59.16472671,-2.839523315,-2.892195702,1.240196466,4.23860542
59.16970117,-2.853888512,-3.007117271,0.8427590132,4.230564581
59.1747064,-2.942473888,-3.047818661,0.4620809257,4.261557222
59.1797104,-3.045424461,-3.093308687,0.0143652102,4.340895661
59.18426832,-3.088520288,-3.208230257,-0.4548983276,4.476452998
59.18924186,-3.007117271,-3.404554844,-0.9169792533,4.634069369
59.19469502,-2.798821688,-3.797203779,-1.697489023,5.013345027
59.19970178,-2.657563925,-4.197035789,-2.466027737,5.546084045
59.20425748,-2.652775526,-4.623203278,-3.402160645,6.323442384
59.20970948,-2.597708941,-5.264849663,-4.718971729,7.53229234
59.21471409,-2.542642117,-5.884947777,-5.870582581,8.692604851
59.21971932,-2.442085743,-6.665457726,-7.180211067,10.09690747
59.22472432,-2.011129379,-7.953537941,-9.251194954,12.36478933
59.22969932,-1.649604917,-9.162610054,-10.72602367,14.20289419
59.23470302,-1.549048543,-10.35731697,-11.10670185,15.26539853
59.23970886,-1.556231141,-11.41555405,-10.94629002,15.89207333
59.24471286,-1.292868972,-12.36126328,-10.54406452,16.29876181
59.24971786,-1.283292055,-13.29979038,-10.54406452,17.02082722
59.25472271,-1.81959331,-14.64772606,-10.98220348,18.39770616
59.25969786,-2.188300371,-16.31648445,-12.33492756,20.57101751
59.2642554,-1.924938202,-18.20790482,-15.47612,23.9738081
59.26970617,-0.7422025204,-20.98996544,-21.38979721,29.97754057
59.27426402,1.556231141,-22.70660973,-22.40493965,31.93733397
59.27927078,4.374206543,-22.81913567,-20.06340981,30.69832322
59.28469163,5.951985359,-21.08333969,-14.95178986,26.52337388
59.28969594,5.339069843,-18.42817116,-11.29584408,22.26430445
59.29470155,4.321534157,-15.26064205,-9.081207275,18.27651988
59.29970517,3.691859007,-11.97819138,-8.394071579,15.08533491
59.30471071,3.217807055,-8.176198959,-8.985439301,12.56752287
59.30971563,2.920926094,-6.124367714,-9.713275909,11.84851966
59.31472025,2.236184359,-4.8291049,-10.43632507,11.71484766
59.31972555,1.790862918,-4.177882195,-10.30464458,11.26266352
59.32469909,1.26653266,-4.01747036,-9.294290543,10.20431329
59.32970494,0.3256114423,-4.426878929,-7.982268333,9.133448834
59.33470978,-1.766920805,-4.90811348,-6.493074894,8.328962038
59.33971417,-2.545036316,-6.007051945,-3.845088005,7.572752781
59.34471902,-3.56496644,-7.637503624,-0.5363011956,8.445594491
59.34972371,-4.855441093,-9.004592896,1.465251446,10.33464867
59.3546984,-5.813121796,-10.55842972,3.136404276,12.4543107
59.35925778,-5.686229229,-12.47139645,4.5394063,14.43866828
59.36426086,-5.240907669,-14.61899567,5.518634796,16.48142826
59.36926617,-4.522646904,-17.21909904,5.7963624,18.72296782
59.37468802,-4.560954094,-19.36190987,5.487510204,20.63488852
59.37927632,-4.611232281,-21.10009956,4.405331135,22.04279037
59.38425009,-4.357447147,-22.53422546,2.470816135,23.0842716
59.3892544,-2.564189911,-23.60682869,-3.337517262,23.97908364
59.39470732,-0.6368576288,-23.05855751,-8.437167168,24.56193095
59.39926525,-0.5889736414,-20.2693119,-7.47469759,21.61164036
59.40468732,-3.524264812,-14.04438686,1.946485996,14.61006682
59.40972155,-5.734113216,-9.141061783,6.449979305,12.57144773
59.4147264,-7.122750282,-6.114790916,3.409343243,9.987385087
59.41925286,-8.935160637,-3.916913986,-3.552995205,10.38282648
59.42470609,-11.71243477,-1.142034173,-11.0037508,16.11111113
59.42926332,-12.04522896,0.004788403399,-11.17373943,16.42985138
59.43426863,-10.69729328,0.1795651317,-5.049371243,11.8304893
59.43924402,-8.458714485,-0.3687070608,1.831564307,8.662587572
59.44424802,-6.105214119,-1.323993564,5.83466959,8.54809731
59.44925386,-3.569754839,-2.796427488,7.24485445,8.546992004
