Time (s),Acceleration x (m/s^2),Acceleration y (m/s^2),Acceleration z (m/s^2),Absolute acceleration (m/s^2)
20.00165355,3.561118364,-12.078969,2.445464849,12.82822492
20.00397204,3.375674486,-11.88215923,2.327618122,12.56975308
20.00629053,3.181855917,-11.68953705,2.109273195,12.29709384
20.00860902,3.072384357,-11.6398859,1.869990945,12.18291244
20.01092751,3.026322365,-11.63629627,1.65463686,12.13671459
20.013246,2.907877684,-11.61057377,1.444068432,12.05597402
20.01556449,2.823530674,-11.62732315,1.299900889,12.03564337
20.01788298,2.669193745,-11.70329571,1.127617717,12.05666817
20.02020147,2.55792737,-11.93719387,0.932602644,12.24374688
20.02251996,2.342573404,-12.23510075,0.7752745152,12.48144186
20.02483845,2.120040894,-12.23151112,0.6209374666,12.42940067
20.02715694,1.991426587,-12.15793228,0.3708875179,12.32552858
20.02947542,1.780858278,-12.26919842,0.08913264424,12.3980898
20.03179392,1.563709617,-12.4618206,-0.1459621787,12.56039273
20.03411241,1.316650629,-12.6311121,-0.2949153781,12.70297354
20.03641793,1.109671474,-12.70349503,-0.4199403822,12.75878155
20.03874938,0.8823533654,-12.73280716,-0.4743770957,12.77215562
20.04106782,0.6604190469,-12.67537975,-0.4576273263,12.70081997
20.04337339,0.4450650215,-12.6562376,-0.3834498227,12.66986452
20.0457048,0.2273181528,-12.57966709,-0.2380858511,12.58397324
20.04802329,0.142971158,-12.28893852,-0.1310070455,12.2904684
20.05034178,0.07238288224,-12.00239849,-0.03768695518,12.00267592
20.05266027,0.0197407864,-11.86361504,0.1848455518,11.8650714
20.05497876,0.02632104978,-11.84387398,0.432502687,11.85179742
20.05729725,0.07956135273,-11.90967655,0.5814558864,11.9241275
20.05961574,0.166301176,-11.98385429,0.7112665176,12.00609511
20.06193423,0.3032902777,-12.14895916,0.775872767,12.17748628
20.06425272,0.484546572,-12.35055447,0.8931210637,12.39228172
20.06657121,0.7345965505,-12.63769245,0.9786644578,12.69679829
20.0688897,0.9678967595,-12.98764324,1.021137118,13.06362975
20.07120819,1.213161111,-13.4285202,1.00737834,13.52078865
20.07352668,1.435095429,-13.89871025,0.9846464992,14.00725434
20.07584516,1.60378933,-14.3126688,0.9032905698,14.43054269
20.07815069,1.720439434,-14.72782326,0.7926225066,14.84913938
20.08048209,1.793420553,-15.10588932,0.6149554253,15.22440211
20.08280058,1.836491346,-15.40319729,0.4504488707,15.51883022
20.08510616,1.872981906,-15.6424799,0.2763710022,15.75663731
20.08743756,1.929213285,-15.75195122,0.1298106313,15.87018216
20.08975605,1.982453585,-15.76032639,0.06340979785,15.88464764
20.09206162,2.053041935,-15.7058897,0.01136590727,15.83951015
20.09439303,2.143969059,-15.54557037,0.02033899166,15.69273001
20.09671152,2.294716835,-15.30688667,0.08195417374,15.47815304
20.09903001,2.438286304,-14.97607899,0.1668993831,15.17418984
20.1013485,2.51844573,-14.60459328,0.2410768867,14.82210618
20.10366699,2.568096876,-14.17149258,0.3481557071,14.40651019
20.10598548,2.594418049,-13.75693512,0.4737788737,14.00745285
20.10830397,2.613560438,-13.42971706,0.6478567123,13.69699664
20.11062246,2.531606436,-13.10010624,0.8356932998,13.36862738
20.11292803,2.42273283,-12.81416321,0.985244751,13.07834547
20.11525944,2.306680918,-12.59103298,1.064207911,12.84474316
20.11757793,2.19780755,-12.4109726,1.009172916,12.64440702
20.11988345,2.137987137,-12.26381397,0.8691928387,12.47908724
20.12221485,2.11046958,-12.12084293,0.8057830334,12.32956615
20.12453334,2.120639086,-12.12084293,0.7866404653,12.33007489
20.12685183,2.191227436,-12.25843048,0.7166503668,12.4733389
20.12917032,2.223530531,-12.52642632,0.537786901,12.73360354
20.13148881,2.251646042,-12.79502106,0.3116651475,12.99536875
20.1338073,2.271985054,-12.95892906,0.08853443712,13.15688401
20.13612579,2.272583246,-12.95892906,-0.03050848842,13.15672481
20.13844428,2.190629244,-12.90808201,-0.04127619043,13.09271329
20.14076277,2.073979139,-12.90509033,0.2105683982,13.0723787
20.14308126,1.897508383,-12.84108257,0.604187727,12.99457512
20.14539975,1.689931035,-12.59522057,1.2352947,12.76798344
20.14770532,1.39561379,-12.3176527,2.017149448,12.55950627
20.15003673,1.069591761,-12.16511059,2.94377017,12.56183605
20.15235522,0.7202396393,-12.01854992,3.817150354,12.63071352
20.15466079,0.3547359705,-11.97727394,4.576871395,12.82687337
20.15699214,0.05024927482,-12.03111267,5.294718266,13.14474186
20.15931063,-0.1202393398,-12.24526978,5.867799282,13.5791074
20.16161621,-0.2823530734,-12.53181076,6.249454498,14.00648727
20.16394761,-0.4007977843,-12.93380451,6.270391941,14.37921253
20.1662661,-0.4869394004,-13.6031971,5.964708805,14.86142094
20.16857168,-0.5222335458,-14.31087399,5.559723377,15.36178265
20.17090308,-0.5210371017,-14.91685677,5.005784988,15.74299777
20.17322157,-0.5030909777,-15.40319729,4.331607342,16.008573
20.17552714,-0.5527420044,-15.8183527,3.533600807,16.21764904
20.17785855,-0.6011967063,-16.06122398,2.571087837,16.27681928
20.18017704,-0.6059823632,-16.24606895,1.417747378,16.31906795
20.18248261,-0.485144794,-16.50509262,0.199800685,16.51342993
20.18481402,-0.3296113312,-16.71984863,-1.17068851,16.76402379
20.18713251,-0.1304088384,-16.93400574,-2.737389088,17.1543247
20.18943808,0.05024927482,-16.98604965,-4.380660057,17.54190954
20.19176949,0.228514567,-17.00339699,-5.767899036,17.95651379
20.19408792,0.4139583111,-16.98664856,-6.963712215,18.3633025
20.1963935,0.5024927258,-16.97707748,-7.88793993,18.72680579
20.19872491,0.5551348329,-16.99562073,-8.512466431,19.01634516
20.20104339,0.5838487148,-17.08714676,-8.792427063,19.22545805
20.20334897,0.5742774606,-17.23131371,-8.920442581,19.41191032
20.20568037,0.4959124923,-17.36710739,-8.791230202,19.47172506
20.20799886,0.3882354796,-17.41316795,-8.329415321,19.30669067
20.21030444,0.2739782035,-17.42872238,-7.681559086,19.04840618
20.21263584,0.1513460279,-17.57408524,-6.793821812,18.84217058
20.21495433,0.002991028363,-17.66680717,-5.788836002,18.59103835
20.21727282,-0.08793623,-17.78226089,-4.762913704,18.40928793
20.21959131,-0.380458802,-17.71526337,-3.549752474,18.07141521
20.2219098,-0.7178468108,-17.43709755,-2.252244234,17.59659851
20.22421537,-0.8937192559,-17.24686813,-1.110269666,17.30566073
20.22654678,-1.079761267,-17.21097565,-0.02931207791,17.24483767
20.22886527,-1.173679471,-17.32702637,0.7477570772,17.38282218
20.23117079,-1.20717907,-17.53340721,1.484148264,17.63746994
20.2335022,-1.174277663,-17.72782516,2.210968018,17.90371729
20.23582069,-1.109671474,-17.93600082,3.157329559,18.2455536
20.23812626,-1.036092162,-18.15793419,4.251447678,18.67776401
20.24045766,-1.069591761,-18.41157341,5.088337421,19.13168157
20.24277616,-1.115055323,-18.75853348,5.319244862,19.52998445
20.24508173,-1.363908887,-18.73041725,5.326423168,19.52074695
20.24741313,-1.649253011,-18.50668907,5.055436134,19.25551896
20.24973162,-2.066202402,-18.18664932,4.275974274,18.79647206
20.2520372,-2.444866419,-17.8953228,2.987439156,18.30695886
20.2543686,-2.770290375,-17.66561127,1.680957913,17.96034381
20.25668709,-3.0448668,-17.54955864,0.3996013701,17.81622585
20.25899266,-3.217748165,-17.26242065,-0.9493523836,17.58540133
20.26132407,-3.552145243,-16.89930916,-2.691327333,17.47706007
20.26364256,-3.876372576,-16.48355675,-4.724628448,17.57998923
20.26594808,-4.083950043,-15.97268963,-6.752545357,17.8157888
20.26827949,-4.276572227,-15.53420448,-8.55134964,18.24078287
20.27059798,-4.334000111,-15.23988724,-9.479166985,18.46326966
20.27290355,-4.24367094,-15.07478237,-10.00439167,18.58347813
20.27523496,-4.07736969,-14.86481285,-10.02353382,18.38637634
20.27755345,-3.964907169,-14.47298813,-9.853643417,17.95221888
20.27985902,-3.752544165,-14.1499567,-9.367900848,17.37988575
20.28219042,-3.634697676,-13.78505135,-8.534600258,16.61559717
20.28450892,-3.484548092,-13.16530991,-7.268796921,15.43706154
20.28681449,-3.369692564,-12.49711418,-5.903691769,14.22625275
20.28914589,-3.277568817,-11.83968639,-4.663012981,13.14017965
20.29146438,-3.154936552,-11.16730309,-3.678964853,12.1736217
20.29376996,-3.095714331,-10.42433167,-2.782254457,11.22457472
20.29610136,-3.06999135,-9.692128181,-1.800000787,10.32483406
20.29841985,-2.987439156,-9.194420815,-1.20179522,9.741995616
20.30072537,-2.968296528,-8.713463783,-0.9619147182,9.255296608
20.30305678,-2.902493954,-8.178069115,-0.7932206988,8.714039515
20.30537527,-2.713460922,-7.702496052,-0.3613162339,8.174464204
20.30768084,-2.379063845,-7.425527096,-0.03529413417,7.79741259
20.31001225,-2.071586132,-7.302894592,-0.1393819153,7.592309652
20.31233074,-1.822732687,-7.182655334,-0.7148557901,7.444723696
20.31463631,-1.555334687,-7.090531826,-1.070788145,7.337662763
20.31696772,-1.396211982,-7.244270325,-0.7154539824,7.412201754
20.31928621,-1.146162033,-7.295716286,-0.1692921966,7.387139052
20.32159178,-0.575473845,-7.377670288,0.2949153781,7.405954638
20.32392319,0.0143569354,-7.680362701,0.3355933726,7.687704486
20.32624168,0.4971089065,-7.943572998,-0.1597209126,7.960714793
20.32854725,0.733400166,-7.926225185,-1.67437768,8.134276987
20.33087866,0.8099704385,-7.73599577,-3.602394581,8.571985148
20.33319714,1.013360381,-7.438687325,-3.726821184,8.381537121
20.33550266,1.117448211,-7.234101295,-3.722633839,8.212119991
20.33783412,1.24666059,-7.134799004,-3.479164124,8.035179055
20.34015256,1.349551916,-7.060023308,-3.488137245,7.989513184
20.34245813,1.478166223,-6.955935478,-3.248854876,7.818252475
20.34478954,1.551147223,-6.810571671,-3.263211966,7.709636601
20.34710803,1.649253011,-6.750152588,-3.229712248,7.662612913
20.3494136,1.813161373,-6.741179466,-2.913859844,7.564498262
20.35174501,1.980060697,-6.808776855,-2.57766819,7.544829748
20.3540635,2.129014015,-6.867401123,-2.55254364,7.629507055
20.35636907,2.33300209,-6.987640381,-2.616551638,7.817695269
20.35870048,2.596810818,-7.005586624,-2.776272535,7.970530695
20.36101897,2.691925526,-6.831508636,-3.286541939,8.044708273
20.36333746,2.703889608,-6.505486488,-3.485146284,7.859937537
20.36565595,2.836691141,-6.227919102,-3.132204771,7.526254028
20.36797444,2.91804719,-5.950950146,-2.833101988,7.208000688
20.37029292,3.034099102,-5.708078384,-2.576471806,6.95888807
20.37261136,2.979064226,-5.455037594,-2.507678032,6.702291244
20.37492985,3.037688255,-5.280959606,-2.63689065,6.638469447
20.37724834,3.139383316,-5.082355499,-2.861217737,6.623641896
20.37956683,3.243471146,-4.988437176,-3.056830883,6.689456299
20.38188532,3.211766243,-4.729413986,-2.944368362,6.43056017
20.38419089,3.137588739,-4.471587181,-2.827718258,6.151060523
20.3865223,3.065205812,-4.281357765,-2.791825771,5.95984917
20.38884079,3.029911757,-4.032504559,-2.708076954,5.724957559
20.39114636,2.771486759,-3.649054527,-2.71286273,5.325069201
20.39347777,2.427518606,-3.254238844,-2.771486759,4.915694854
20.39579626,2.172084808,-2.94377017,-2.847458839,4.635920305
20.39810183,1.874776483,-2.666800737,-2.899502754,4.362766239
20.40043324,1.490130305,-2.388036966,-2.900699139,4.041938195
20.40275173,1.107278705,-2.16131711,-2.83370018,3.731918339
20.40505725,0.7962117195,-2.01475668,-2.599203587,3.383645499
20.40738866,0.5623133183,-1.914258122,-2.330609322,3.067950495
20.40970714,0.237487644,-1.782054663,-2.152343988,2.804407932
20.41201272,-0.03708875179,-1.653440475,-2.170290232,2.728626151
20.41434412,-0.3020938635,-1.511665702,-2.312064886,2.778855508
20.41666261,-0.5168496966,-1.459023595,-2.510071039,2.948955761
20.41896819,-0.6370890141,-1.683948994,-2.828914642,3.353255833
20.42129959,-0.7734799385,-1.884347796,-3.057429075,3.673814147
20.42361808,-1.008574724,-1.639681697,-3.071187973,3.62463441
20.42592366,-1.20179522,-1.188036442,-3.052045345,3.48865635
20.42825506,-1.325623751,-0.8261220455,-3.050848961,3.427453186
20.43057355,-1.470389485,-0.5509474277,-3.107080221,3.481312369
20.43287912,-1.564307809,-0.5437689424,-3.364906788,3.750378817
20.43521053,-1.819143414,-0.6035895348,-3.501297712,3.991577227
20.43752902,-2.021337032,-0.5934200287,-3.297309637,3.912825267
20.43983454,-2.114656925,-0.561715126,-3.0981071,3.792830789
20.44216595,-2.18105793,-0.6155536175,-2.91266346,3.690464521
20.44448444,-2.18105793,-0.6777670383,-2.745165825,3.571038681
20.44680292,-2.185245275,-0.7495517135,-2.596810818,3.47570872
20.44912142,-2.176870346,-0.8835497499,-2.543570518,3.462538902
20.4514399,-2.144567251,-1.046261668,-2.484348059,3.444679586
20.45375839,-2.14696002,-1.189831018,-2.340778828,3.391810829
20.45607688,-2.163709879,-1.338784218,-2.148156643,3.329949036
20.45839537,-2.232503414,-1.512862086,-1.895115495,3.296101625
20.46071386,-2.286940336,-1.691725612,-1.665404558,3.296301562
20.46303235,-2.307279348,-1.912463546,-1.368096352,3.294350077
20.46535084,-2.35274291,-2.071586132,-1.133599758,3.333454172
20.46765636,-2.369492531,-2.239681959,-0.8554341197,3.370821512
20.46998777,-2.310270309,-2.443670034,-0.4815555513,3.397170571
20.47230626,-2.246262312,-2.624328136,-0.1178465188,3.456397018
20.47461183,-2.197209358,-2.804986238,0.27577281,3.573755364
20.47694324,-2.115255117,-2.961117983,0.7064808607,3.706971692
20.47926173,-1.982453585,-3.245265722,1.10608232,3.960465872
20.4815673,-1.901097536,-3.419941664,1.646860242,4.245270484
20.48389871,-1.843669891,-3.58504653,2.2259233,4.605042
20.4862172,-1.757528186,-3.817150354,2.905484915,5.108951433
20.48852277,-1.723430514,-4.046263218,3.58504653,5.674065332
20.49085418,-1.706082582,-4.241278172,4.421338081,6.359826156
20.49317267,-1.680359721,-4.444668293,5.458028316,7.236626157
20.49547824,-1.537388563,-4.5930233,6.628716946,8.20970858
20.49780964,-1.454237938,-4.819743156,7.761718273,9.251432463
20.50012813,-1.451845169,-5.105685234,8.985647202,10.43636583
20.50243366,-1.556531072,-5.374279499,10.38903809,11.79990599
20.50476506,-1.634297848,-5.623133183,12.02572823,13.37567552
20.50708355,-1.712662816,-6.034698486,13.63609791,15.00979566
20.50938912,-1.892124534,-6.598806858,14.69312763,16.21765664
20.51172053,-2.172084808,-7.017550468,15.27518177,16.94978304
20.51403902,-2.458625317,-7.412964344,15.4235363,17.28821422
20.51634459,-2.723032236,-7.929215908,14.94796276,17.1385227
20.518676,-2.949752092,-8.483752251,14.10568905,16.72260605
20.52099449,-3.22492671,-8.991030693,13.20479202,16.29740217
20.52330006,-3.611367464,-9.631111145,12.29551888,16.03059766
20.52563147,-4.253242016,-10.20000458,11.45922756,15.91992642
20.52794996,-4.788038254,-10.59242725,11.01834965,16.01651817
20.53025548,-5.361717224,-10.72283649,10.38006496,15.8578997
20.53258688,-5.703292847,-10.79402256,9.79501915,15.65186482
20.53490537,-5.818148136,-10.87059307,8.878568649,15.1937363
20.53721095,-6.01376152,-11.08833981,7.776673794,14.81867951
20.53954235,-6.03888607,-11.45085239,6.677769661,14.56649488
20.54186084,-5.900700569,-12.07418346,5.781657696,14.62982362
20.54416642,-5.85882616,-12.80818176,5.319842815,15.05576606
20.54649782,-5.749354839,-13.67558002,5.188836098,15.71625242
20.54881631,-5.611767292,-14.45025635,5.405386448,16.41706561
20.55112188,-5.477170944,-15.09452343,5.550152302,16.98965066
20.55345329,-5.316852093,-15.58086491,5.583651543,17.38417188
20.55577178,-5.37188673,-15.8368969,5.527420521,17.61297385
20.5580773,-5.379065514,-15.86142349,5.346164227,17.5812563
20.56040871,-5.584847927,-15.40559006,5.16969347,17.18279552
20.5627272,-6.116652966,-14.64467239,5.288137913,16.72854673
20.56503277,-6.634100914,-13.81615829,5.344369411,16.23144508
20.56736418,-7.174878597,-12.98883915,5.204389095,15.72496395
20.56968267,-7.466204643,-12.23689461,5.201398373,15.24927364
20.57198824,-7.651050568,-11.55852985,5.199603558,14.80452851
20.57431964,-7.819744587,-10.89571762,5.088337421,14.34420599
20.57663813,-7.88494873,-10.24367332,5.121238708,13.90440022
20.57894371,-7.801798344,-9.584450722,5.126622677,13.3795371
20.58127511,-7.677371502,-8.841479301,5.031507969,12.74479744
20.5835936,-7.616354465,-8.066802979,5.026721954,12.17990555
20.58589912,-7.481758118,-7.382455826,4.984847546,11.63297312
20.58823058,-7.29631424,-6.744170666,4.810171604,11.03892161
20.59054902,-7.05523777,-6.075376511,4.697709084,10.42856895
20.59285459,-6.749554634,-5.502295494,4.600799561,9.848812114
20.595186,-6.385845661,-4.960321426,4.399204254,9.205259993
20.59750449,-5.857629776,-4.511667252,4.381856441,8.594628198
20.59981006,-5.194219589,-4.231706619,4.529015064,8.086979381
20.60214147,-4.614558697,-3.963710785,4.579862595,7.6144794
20.60445996,-4.125226021,-3.69212532,4.534399033,7.156120017
20.60676553,-3.611965895,-3.406781197,4.512863636,6.709574796
20.60909694,-3.154936552,-3.203989506,4.506283283,6.365984796
20.61141542,-2.720041037,-3.035295486,4.442275047,6.02871873
20.61372095,-2.52143693,-3.055036306,4.166502476,5.748968073
20.61605235,-2.389233351,-2.946761131,3.957130432,5.481853558
20.61837084,-2.469393015,-2.761317253,3.874577999,5.360515787
20.62067642,-2.714657307,-2.474178553,3.73160696,5.236011298
20.62300782,-3.1405797,-2.307279348,3.354737282,5.142085285
20.62532631,-3.708875179,-2.264208317,2.752942562,5.144034132
20.62763188,-4.311866283,-2.207378864,2.136192322,5.294150539
20.62996329,-5.001597404,-2.301297188,1.587637782,5.729968505
20.63228178,-5.660222054,-2.341975212,1.143171072,6.231356328
20.63458735,-6.418148518,-2.576471806,0.6275177598,6.944394567
20.63691876,-6.888338089,-2.97726965,0.5312066078,7.522999179
20.63923725,-7.353144169,-3.318845034,0.6532405615,8.09383622
20.64154277,-7.615756035,-3.713660717,0.8015955687,8.510791465
20.64387418,-7.868198872,-4.35912466,0.5324030519,9.010769906
20.64619266,-7.859824181,-5.295316696,0.6873382926,9.50208656
20.64849824,-7.893921852,-6.543771744,1.268794179,10.331737
20.65082964,-8.013563156,-8.293522835,1.714457393,11.65929156
20.65314813,-8.297112465,-10.07019424,2.931207657,13.37321449
20.65545371,-8.689535141,-11.65603733,4.766502857,15.30002538
20.65778511,-9.34038353,-13.43031502,6.710670948,17.6818899
20.6601036,-10.18026352,-15.07478237,8.532207489,20.09192359
20.66240918,-11.11107159,-16.70728683,10.32502937,22.56536232
20.66474058,-12.03948689,-18.34457397,11.88814068,24.95597178
20.66705907,-12.63589859,-19.76770592,13.634902,27.13556122
20.66936459,-12.74237919,-21.05923271,15.1028986,28.87831463
20.671696,-12.35892868,-22.13899422,15.96790409,29.96418102
20.67401449,-11.18824005,-23.53939247,14.91027641,30.02658915
20.67632006,-8.821739197,-25.28435898,12.71187019,29.64310266
20.67865147,-5.677569866,-27.07837677,10.12881851,29.46296408
20.68096996,-3.052045345,-28.4129734,8.225327492,29.73664491
20.68327553,-1.006780148,-29.01058197,7.302894592,29.93258662
20.68560694,0.708275497,-28.50928497,7.090531826,29.38633399
20.68792542,2.209771633,-26.95754051,6.433701992,27.80260064
20.690231,3.421138287,-24.81416893,4.816751957,25.50780795
20.6925624,4.389633179,-22.39981079,2.255833626,22.93707018
20.69488084,5.068596363,-19.62294006,-1.073779106,20.29540459
20.69718642,5.467599869,-16.73480415,-4.936393261,18.28431833
20.69951782,5.493322372,-14.12363529,-8.384450912,17.31914206
20.70183631,5.23130846,-11.54058361,-10.91486073,16.72381066
20.70414188,4.695914268,-9.422935486,-12.33739376,16.21895831
20.70647329,3.980460405,-7.664210796,-12.72862053,15.38187156
20.70879178,3.113062143,-6.011966705,-12.24227905,13.98957812
20.71109735,2.231905222,-4.566103935,-11.13021469,12.23570125
20.71342876,1.387837172,-3.406183004,-9.591031075,10.27210065
20.71574725,0.4648058116,-2.37786746,-7.861020565,8.225931098
20.71805282,-0.4378865361,-1.449452281,-5.953342915,6.142877859
20.72038418,-1.232303619,-0.6819544435,-3.867399693,4.115873474
20.72270266,-1.865205288,-0.3032902777,-1.680957913,2.529149119
20.72500824,-2.434697151,-0.1447657645,0.4642075896,2.4827799
20.72733964,-2.900100946,-0.2243271172,2.244467735,3.674036414
20.72965813,-3.192623615,-0.4588237405,3.81296277,4.994201624
20.73196371,-3.199203968,-0.7597211599,5.107480049,6.074408179
20.73429511,-3.023331404,-1.133001566,5.799005508,6.637220067
20.7366136,-2.678765059,-1.648654819,5.490929604,6.328044948
20.73891918,-2.097907305,-1.969292998,4.310669899,5.182779655
20.74125058,-1.235892892,-2.619542599,2.395813704,3.758903825
20.74356907,-0.2650051117,-3.442075491,0.01136590727,3.45228049
20.74587459,0.6789634228,-4.164109707,-2.446661234,4.877186912
20.748206,1.633101463,-4.899902344,-4.879563808,7.105364616
20.75052449,2.617748022,-5.778666496,-7.044469833,9.479986625
20.75283006,3.640679598,-6.632306099,-8.741579056,11.5610223
20.75516147,4.093521118,-7.47398138,-10.08574772,13.20377294
20.75747996,4.450051785,-8.33180809,-11.34138107,14.75970567
20.75978553,4.698307037,-9.154341698,-12.30090332,16.03709087
20.76211694,4.905884743,-10.02891827,-12.8129673,16.99467675
20.76443543,5.237888813,-11.19841003,-12.90150166,17.86864884
20.766741,5.429314613,-12.2111721,-12.65922832,18.4077767
20.76907235,5.534598827,-13.0773735,-12.24108219,18.74816191
20.77139084,5.58843708,-13.87179089,-11.62433243,18.94154998
20.77369642,5.544169903,-14.79362583,-10.83589745,19.15739697
20.77602782,5.439484119,-15.6496582,-9.800403595,19.24961558
20.77834631,5.300700188,-16.42852211,-8.398209572,19.19697073
20.78065188,5.091926575,-17.19781494,-6.653243542,19.1300341
20.78298329,4.858626366,-17.96890259,-4.756333351,19.21224655
20.78530178,4.599603176,-18.72623062,-3.273979664,19.5588089
20.78760735,4.247858524,-19.24607086,-2.280958176,19.84082448
20.78993876,3.862015724,-19.33998871,-1.47756803,19.77709625
20.7922572,3.375076294,-18.97628021,-0.8069794178,19.29097111
20.79456277,3.032304525,-18.44028854,-0.2135594189,18.68916049
20.79689418,2.76311183,-17.76850319,0.237487644,17.98362847
20.79921267,2.526222467,-16.99083519,0.4588237405,17.18373649
20.80151824,2.278565407,-16.26640892,0.4749752879,16.43208815
20.80384964,2.059622049,-15.580266,0.5826523304,15.72660851
20.80616813,1.859223247,-15.03231049,0.5623133183,15.15728425
20.80847371,1.621137381,-14.2941246,0.4977070987,14.39436685
20.81080511,1.441675663,-13.65404415,0.5347958803,13.74035505
20.8131236,1.250848055,-13.13061428,0.6723831892,13.2071856
20.81542912,1.070788145,-12.62094307,0.6382854581,12.68235781
20.81776053,0.917647481,-12.20219898,0.5048855543,12.24706685
20.82007902,0.760917604,-11.78405285,0.2667997181,11.81160782
20.82238459,0.5575276613,-11.42812061,0.08135596663,11.44200143
20.824716,0.3403790295,-11.10748291,-0.08554340899,11.11302624
20.82703449,0.1920240223,-10.81854916,-0.3367897868,10.82549336
20.82934006,0.005982056726,-10.54457092,-0.6263213158,10.5631572
20.83167147,-0.1465603858,-10.30349445,-0.8536394835,10.33983454
20.83398996,-0.366101861,-10.06899738,-1.004985452,10.12564737
20.83629553,-0.6305087805,-9.945767403,-1.175474167,10.03481789
20.83862694,-0.9523434043,-9.819545746,-1.341775298,9.956445026
20.84094542,-1.262812138,-9.740582466,-1.521237016,9.939205367
20.84325095,-1.625324726,-9.720243454,-1.643869162,9.991352215
20.84558235,-1.880758643,-9.774680138,-1.698305845,10.09781499
20.84790084,-2.240280151,-9.865009308,-1.748555183,10.26619253
20.85020642,-2.624926329,-9.907482147,-1.832303882,10.41180956
20.85253782,-3.020938635,-9.940383911,-1.749751568,10.53560312
20.85485631,-3.470789194,-9.969695091,-1.420140266,10.65166636
20.85716188,-3.782454491,-10.06720352,-0.9637092948,10.79742026
20.85949329,-3.978067636,-10.23410225,-0.4205385745,10.98811738
20.86181178,-3.990629911,-10.45902824,0.1250249892,11.19517888
20.8641173,-4.018745422,-10.46381378,0.6825526357,11.22976365
20.86644871,-3.96789813,-10.49551868,1.00737834,11.26565307
20.8687672,-3.677170277,-10.50269699,1.138983607,11.18595141
20.87107277,-3.391826153,-10.47697353,1.089332461,11.06607899
20.87340418,-3.035295486,-10.40638542,0.9912267923,10.88523802
20.87572266,-2.674577475,-10.29272652,0.860219717,10.66928122
20.87804116,-2.286342144,-10.11087227,0.6711867452,10.38785782
20.88035964,-1.87956214,-9.909874916,0.4301098585,10.09571043
20.88267813,-1.557727575,-9.595218658,0.3020938635,9.72553325
20.88498366,-1.156929731,-9.355338097,0.1657029688,9.428058908
20.88731506,-0.5264210105,-9.139386177,-0.1357926875,9.155541405
20.88963355,0.002392822644,-8.777471542,-0.6203392744,8.799365501
20.89193912,0.313459754,-8.194221497,-0.8554341197,8.244712881
20.89427053,0.5150550604,-7.685148239,-0.9002995491,7.754825881
20.89658902,0.7740781307,-7.183851719,-0.8303094506,7.272986749
20.89889459,1.111466169,-6.83509779,-0.6580262184,6.956070539
20.901226,1.400997639,-6.443871498,-0.5724828243,6.619215275
20.90354449,1.572682738,-6.069993019,-0.5784648657,6.297044374
20.90585001,1.627119422,-5.780461311,-0.6185446382,6.03687403
20.90818142,1.648654819,-5.51605463,-0.6059823632,5.788966749
20.9104999,1.70249331,-5.356931686,-0.7112665176,5.665783319
20.91280548,1.695314884,-5.338387489,-1.049850941,5.698654275
20.91513688,1.681556106,-5.459224701,-1.278365493,5.853629951
20.91745537,1.580459356,-5.572285652,-1.45483613,5.971998604
20.91977386,1.450648785,-5.657230854,-1.617548108,6.06012415
20.92209235,1.314856052,-5.737390518,-1.680359721,6.121282969
20.92441084,1.227517962,-5.68175745,-1.662413478,6.045890062
20.92672933,1.192822099,-5.66740036,-1.505683661,5.98409013
20.92904777,1.185045362,-5.816353798,-1.256830096,6.067448055
20.93136626,1.174277663,-6.008377552,-1.087537885,6.217898961
20.93368475,1.144367456,-6.01316309,-0.8973084688,6.186507068
20.93600324,1.123430252,-6.162116528,-0.7962117195,6.314089699
20.93832173,1.080359459,-6.375077724,-0.6233302951,6.495947445
20.94064022,1.028315544,-6.658627033,-0.3595215976,6.747147739
20.94295871,0.926620543,-6.909873486,0.02811566554,6.971783682
20.9452772,0.8117650747,-7.137789726,0.2907279432,7.189682013
20.94759569,0.6556333899,-7.275377274,0.524028182,7.323631282
20.94991418,0.5126622319,-7.509873867,0.6867401004,7.558613631
20.95223261,0.3493520916,-7.882555962,0.8309076428,7.933923549
20.9545511,0.1345962733,-8.136793137,1.069591761,8.207895299
20.95686959,-0.06400800496,-8.275577545,1.322034478,8.380755091
20.95918808,-0.2632105052,-8.366504669,1.511665702,8.506045694
20.96149366,-0.4600201547,-8.385048866,1.638485312,8.556009417
20.96382506,-0.6334998012,-8.335995674,1.765304923,8.54438104
20.96614355,-0.77108711,-8.20498848,1.839482427,8.443939062
20.96846204,-0.879960537,-8.063214302,1.828116536,8.314551431
20.97078048,-0.9002995491,-7.996813297,1.822732687,8.251176682
20.97309897,-0.87517488,-7.861618996,1.764706731,8.104639051
20.97541746,-0.8410771489,-7.664210796,1.654038668,7.885644033
20.97773595,-0.6400800347,-7.626523972,1.464407444,7.792179381
20.98005444,-0.5503492355,-7.505088329,1.173679471,7.616216818
20.98237292,-0.3541377485,-7.298707485,1.068993568,7.385072224
20.98469142,-0.1447657645,-7.274180889,0.9840483069,7.341867324
20.9870099,0.04307080805,-7.270591736,0.7573283911,7.310055101
20.98932839,0.1878365725,-7.272386074,0.5341976285,7.29439846
20.99164683,0.3762713671,-7.307082176,0.3409772217,7.324704468
20.99396532,0.6406782866,-7.526623726,0.2015953064,7.556531879
20.99628381,0.8781659007,-7.627122402,0.09930214286,7.678152929
20.9986023,1.104885817,-7.823931694,-0.1501496136,7.902988342
21.00092079,1.326820135,-8.035098076,-0.4235295951,8.154914474
21.00322636,1.512263894,-8.07936573,-0.7884350419,8.257404102
21.00555777,1.718046665,-8.209176064,-1.091127157,8.4577074
21.00787626,1.855633974,-8.428119659,-1.412961721,8.744886464
21.01018178,1.979462504,-8.545368195,-1.596610904,8.915758844
21.01251324,2.091925144,-8.639286041,-1.666600943,9.043836178
21.01483168,2.127817631,-8.787042618,-1.517647743,9.167495869
21.01715016,2.017149448,-8.865407944,-1.112064362,9.159750927
21.01946866,1.859821439,-8.801400185,-0.694516778,9.022523735
21.02178714,1.583450437,-8.830712318,-0.07178468257,8.971841972
21.02410563,1.295713425,-8.941978455,0.5036891699,9.049395269
21.02642412,0.9439685345,-9.179466248,1.146760225,9.298856715
21.02874261,0.5509474277,-9.461220741,1.636092424,9.617434138
21.03104819,0.128614217,-9.850054741,2.045265198,10.06097559
21.03337954,-0.2871387303,-10.25803089,2.316850424,10.52033471
21.03569803,-0.7351947427,-10.64267731,2.330011129,10.91952579
21.0380036,-1.213161111,-10.942976,2.227717876,11.23313004
21.04033501,-1.596610904,-11.17328548,1.963310957,11.45626749
21.0426535,-1.895713687,-11.31505966,1.661217093,11.59240906
21.04495907,-2.005783558,-11.39462185,1.394417405,11.65353915
21.04729048,-2.015953064,-11.29472065,1.092921734,11.52515767
21.04960897,-1.976471543,-11.07817078,0.8715856671,11.28680509
21.05192746,-1.821536183,-10.76291656,0.747158885,10.94150874
21.05424589,-1.558325768,-10.42014408,0.670588553,10.55734204
21.05656438,-1.228116274,-10.05284595,0.546759963,10.14233345
21.05888287,-0.7800601721,-9.615557671,0.366101861,9.654091038
21.06120136,-0.2769692242,-9.272188187,0.2063809484,9.278619446
21.06351985,0.2883351147,-8.961718559,0.04187439755,8.966453599
21.06582542,0.8733802438,-8.693722725,-0.02632104978,8.73752257
21.06815683,1.475773335,-8.563912392,-0.04546362907,8.69025715
21.07047532,2.055434704,-8.483154297,0.04486542568,8.728730237
21.07278084,2.550748825,-8.495118141,0.1585244983,8.871216479
21.07511225,2.9491539,-8.639286041,0.2775674164,9.133006936
21.07743074,3.233899832,-8.958727837,0.4067798555,9.533225185
21.07973631,3.403790236,-9.333803177,0.5922235847,9.952708098
21.08206772,3.447459221,-9.760323524,0.7292127013,10.37692833
21.08438621,3.416950703,-10.25503922,0.8183453679,10.84025233
21.08669178,3.274577856,-10.68156052,0.9248259664,11.21043702
21.08902319,3.16032052,-11.07278633,0.9601200819,11.55491469
21.09134168,3.040679455,-11.40658569,0.9469595551,11.84283163
21.0936472,2.948555708,-11.73559856,0.9104689956,12.13454607
21.0959786,2.849253654,-11.94018459,0.8536394835,12.30507842
21.09829709,2.791227579,-12.06640625,0.8021938205,12.41098812
21.10060266,2.723630428,-12.20698452,0.7310073376,12.52848776
21.10293407,2.63389945,-12.23330593,0.7256234884,12.53466113
21.10525256,2.553740025,-12.25902843,0.7298108935,12.54344411
21.10757105,2.464607239,-12.32842064,0.7387840152,12.59404804
21.10988954,2.388635159,-12.33500099,0.7621139884,12.58724136
21.11220798,2.260020971,-12.34756279,0.7704889178,12.57631324
21.11452647,2.133201361,-12.43729401,0.7842476368,12.64325411
21.11684496,2.061416626,-12.21296692,0.7441678643,12.40805324
21.11916345,2.049452543,-12.08435249,0.561715126,12.26977403
21.12148194,2.057827473,-12.2039938,0.5294120312,12.38759039
21.12380043,2.038086653,-12.34875965,0.4827519655,12.52512322
21.12611892,2.048256159,-12.53539944,0.4552344978,12.70979271
21.1284374,2.005185366,-12.89193058,0.4097708762,13.0533733
21.13075584,1.953141451,-13.11924839,0.4827519655,13.27262179
21.13307433,1.99800694,-12.96012592,0.3625126183,13.11824344
21.13539282,1.995614052,-13.01815128,0.2488535494,13.1725725
21.13771131,1.908874273,-13.12104321,0.1010967568,13.25955491
21.1400298,1.794616938,-13.3208437,0.02991028316,13.44122098
21.14234829,1.615155339,-13.56969738,0.02512463741,13.66550566
21.14466678,1.420140266,-13.37288761,-0.05862415582,13.44821022
21.14698527,1.238285661,-13.11326599,-0.2009970993,13.1731354
21.14930376,0.9583254457,-12.97089291,-0.2715853751,13.00908179
21.1516222,0.656829834,-12.77587795,-0.2327020019,12.79486745
21.15394069,0.3655036688,-12.60479164,-0.1411765367,12.61088007
21.15625918,0.1752742529,-12.48455238,-0.009571290575,12.48578635
21.15857767,0.02273181453,-12.35773277,0.2315055877,12.35992196
21.16089616,-0.1268195957,-12.19322586,0.4432703853,12.20193955
21.16321464,-0.2685943544,-12.09512043,0.5940182209,12.11267678
21.16553313,-0.2847459018,-12.07597733,0.7842476368,12.10476571
21.16785162,-0.2530409992,-12.07537937,0.965503931,12.11655952
21.17017006,-0.1842473447,-12.1980114,1.101296663,12.24901153
21.17248855,-0.0143569354,-12.34277725,1.232901812,12.4042091
21.17480704,0.195015043,-12.52941799,1.293320656,12.59750072
21.17712553,0.4534398913,-12.75853062,1.330409408,12.83571971
21.17944402,0.760917604,-13.19342613,1.341177106,13.28323171
21.18176251,1.058824062,-13.80598831,1.247856975,13.9026461
21.18406808,1.318445325,-14.44846153,1.235892892,14.56103602
21.18639949,1.517049551,-15.07777405,1.118046403,15.19508925
21.18871793,1.63788712,-15.64188194,0.9607182741,15.75671681
21.1910235,1.731207132,-16.09592056,0.8883354068,16.21310817
21.1933549,1.792224169,-16.42612839,0.9391828775,16.55028174
21.19567339,1.844866276,-16.61217117,0.9601200819,16.74185155
21.19797897,1.905285001,-16.72104454,0.9469595551,16.85586467
21.20031037,2.038086653,-16.70848274,0.9720842242,16.8603719
21.20262886,2.155933142,-16.47039604,0.9906286001,16.64041281
21.2049473,2.331805706,-16.11027718,1.085145116,16.3142848
21.20726579,2.497508526,-15.70828247,1.112662554,15.94445687
21.20958428,2.638087034,-15.26321697,1.110269666,15.52926252
21.21190277,2.732005358,-14.84746456,1.136590719,15.13944833
21.21422126,2.778067112,-14.40957832,1.16769743,14.72131521
21.21653975,2.800200701,-14.00040531,1.240678549,14.33149525
21.21884532,2.785245657,-13.65464211,1.36211431,14.00222124
21.22117673,2.737389088,-13.3340044,1.493121386,13.69373521
21.22349522,2.676970243,-13.07139206,1.643270969,13.44350399
21.22580074,2.632104874,-12.82672596,1.731805444,13.20802881
21.22813214,2.574677229,-12.62154102,1.70548439,12.99388078
21.23045063,2.488535643,-12.57607746,1.537986755,12.91185259
21.23276912,2.463410854,-12.67298698,1.428515077,12.98898177
21.23508761,2.429911375,-12.85603809,1.424925923,13.16102574
21.2374061,2.395813704,-13.1838541,1.436291814,13.47653021
21.23972459,2.336591244,-13.46860027,1.433300734,13.74471546
21.24204308,2.300100803,-13.7096777,1.372882009,13.96891303
21.24436152,2.230708838,-13.79282761,1.377667665,14.03980497
21.24668001,2.113460541,-13.72343636,1.537986755,13.97014045
21.2489985,2.004587173,-13.51406384,1.931007862,13.79772019
21.25131699,1.856232166,-13.28614807,2.477169752,13.64198294
21.25362256,1.665404558,-13.13061428,3.089133978,13.59151767
21.25595397,1.493121386,-12.9320097,3.744767427,13.54583218
21.25827246,1.281954765,-12.7190485,4.457230568,13.53826086
21.26057803,1.095314622,-12.54437256,5.160121918,13.60837445
21.26290938,0.94277215,-12.37926769,5.82532692,13.71384416
21.26522787,0.8416753411,-12.33260822,6.391827583,13.91607354
21.26753345,0.7316055298,-12.41575813,6.692126751,14.12341521
21.26986485,0.694516778,-12.66162109,6.684350014,14.33455745
21.27218334,0.6580262184,-12.99003601,6.390032768,14.49160284
21.27448892,0.6245267391,-13.38544941,5.849255085,14.62101483
21.27682032,0.604187727,-13.82393456,5.060221672,14.73336529
21.27913881,0.6000002623,-14.25883007,3.994817495,14.82001357
21.28144433,0.5880361795,-14.50588894,2.736790895,14.77351092
21.28377574,0.5533402562,-14.59143257,1.330409408,14.66240359
21.28609423,0.5383850932,-14.67577934,-0.1004985496,14.68599529
21.2883998,0.5796613097,-15.09990692,-1.546959877,15.19000596
21.29073121,0.6640082598,-15.51865101,-3.002992392,15.82047406
21.2930497,0.8494520187,-15.80937958,-4.320241451,16.41104925
21.29535527,1.007976532,-16.04806328,-5.471786976,16.98519368
21.29768668,1.164108157,-16.27179146,-6.436692715,17.53731331
21.30000511,1.327418327,-16.44287872,-7.221538544,18.00780162
21.30231069,1.447059512,-16.51705742,-7.601399422,18.23974891
21.30464209,1.52542448,-16.53021622,-7.814958572,18.34798478
21.30696058,1.557129383,-16.61157227,-7.948358536,18.48094663
21.30926616,1.555932879,-16.75992775,-7.894520283,18.59138391
21.31159756,1.548754454,-16.93759537,-7.625925541,18.63962225
21.31391605,1.523629785,-17.02373695,-7.182057381,18.53944486
21.31622162,1.44347024,-17.03869247,-6.653243542,18.34846852
21.31855298,1.306481123,-17.0554409,-6.115456581,18.16573055
21.32087147,1.152144074,-17.03869247,-5.396413326,17.90993451
21.32318996,0.9595218897,-16.98425484,-4.731208801,17.657008
21.32550845,0.6861419082,-16.81197166,-3.966701746,17.28721796
21.32782694,0.3314059377,-16.6026001,-3.145963669,16.90127946
21.33013251,-0.0239282269,-16.43151283,-2.219941139,16.58081196
21.33246392,-0.2566302419,-16.38724518,-1.225723386,16.43502545
21.33478241,-0.4444667995,-16.43330765,-0.3062812984,16.44217015
21.33708793,-0.5437689424,-16.60140419,0.7579265833,16.62759028
21.33941933,-0.6329016089,-16.98066521,1.790429592,17.08652081
21.34173782,-0.7208378315,-17.31745529,2.578864574,17.52325334
21.34404339,-0.7016952634,-17.5184536,3.200400352,17.8222096
21.3463748,-0.650847733,-17.65005875,3.869792461,18.08102514
21.34869329,-0.6460621357,-17.63928986,4.428516388,18.19817849
21.35099886,-0.590429008,-17.59861183,5.100899696,18.33245544
21.35333027,-0.5437689424,-17.4813633,5.467599869,18.32452989
21.35564871,-0.4863412082,-17.44188309,5.305486202,18.23743395
21.35795428,-0.5359922647,-17.58425522,4.223331928,18.09225945
21.36028569,-0.7902296782,-17.71346855,2.423929453,17.89600137
21.36260418,-1.164706469,-17.60579109,0.5401797295,17.65254133
21.36490975,-1.630708575,-17.20140457,-0.9834501147,17.30649311
21.36724116,-2.21216464,-16.51167297,-2.081157446,16.78869361
21.36955964,-2.723630428,-15.79562092,-3.202194929,16.34545366
21.37186517,-3.259622574,-15.32064533,-4.527220249,16.30469368
21.37419657,-3.875176191,-15.04427433,-5.989833355,16.65008361
21.37651506,-4.354937077,-14.95693588,-7.110870838,17.12424866
21.37882063,-4.716851711,-14.69372559,-8.065607071,17.41287682
21.38115204,-4.967499733,-14.44128323,-8.61296463,17.53310795
21.38347053,-5.084748268,-14.31446362,-8.686544418,17.49898818
21.3857761,-5.017150879,-14.2307148,-8.486145973,17.31183757
21.38810751,-4.764110088,-14.18106365,-7.978867054,16.95469347
21.39042595,-4.411168575,-14.10389519,-7.103094101,16.39610361
21.39273152,-4.116253376,-13.8735857,-5.914459229,15.63332178
21.39506292,-3.787838221,-13.53201008,-4.573880672,14.7778009
21.39738142,-3.53718996,-13.09651661,-3.21954298,13.94259363
21.39968699,-3.343371391,-12.58564854,-2.277369022,13.2197992
21.40201839,-3.122035265,-12.05145168,-1.926222205,12.59741735
21.40433688,-2.845664263,-11.53101254,-1.81794703,12.01528138
21.40664241,-2.609971285,-10.97827053,-1.948355794,11.45122108
21.40897381,-2.37248373,-10.24247742,-1.889731646,10.68213969
21.4112923,-2.156531334,-9.613164902,-1.73060894,10.00292828
21.41359787,-1.884347796,-9.139984131,-1.531406522,9.457022918
21.41592928,-1.717448473,-8.871390343,-1.173679471,9.112009623
21.41824777,-1.593619823,-8.714659691,-1.077966571,8.924512849
21.42055334,-1.563709617,-8.617751122,-0.9834501147,8.813512142
21.42288475,-1.517049551,-8.535198212,-1.040877819,8.731235565
21.42520324,-1.213759303,-8.595617294,-1.219143152,8.766079987
21.42750876,-0.822532773,-8.784649849,-1.834098577,9.011689671
21.42984016,-0.5204389095,-8.970691681,-2.617748022,9.359314644
21.43215866,-0.1549352705,-8.983254433,-3.558725595,9.66371528
21.43446423,0.1884347796,-8.846264839,-4.043272018,9.728307041
21.43679563,0.4307080805,-8.70688343,-4.375874519,9.754158412
21.43911412,0.5162515044,-8.509475708,-4.948955536,9.857477027
21.44141964,0.7010970116,-8.137989998,-4.248456478,9.206943069
21.44375105,0.8027920127,-7.870592117,-3.448655605,8.630406756
21.44606954,0.822532773,-7.652844906,-3.010769129,8.264824624
21.44837511,0.8458628058,-7.465606689,-2.997608662,8.089278387
21.45070652,0.7800601721,-7.419544697,-3.260818958,8.141933288
21.45302501,0.7734799385,-7.304689407,-3.409772158,8.098351976
21.45533058,0.9320043921,-6.969096184,-3.473181963,7.842188901
21.45766199,1.031904817,-6.909275532,-3.606581926,7.861955807
21.45998042,1.068395257,-6.94756031,-3.896711588,8.037065627
21.46229892,1.156929731,-6.898507595,-4.368097782,8.246706717
21.46461741,1.241276741,-6.675376892,-4.345366001,8.061242478
21.46693589,1.377667665,-6.383452415,-3.888336897,7.600368199
21.46924147,1.365703583,-6.162116528,-3.708875179,7.320695423
21.47157287,1.240678549,-5.853442192,-3.988835335,7.191166532
21.47389136,1.229910851,-5.349154949,-3.663411379,6.598994037
21.47619694,1.289731383,-4.966303349,-2.835494757,5.862389147
21.47852834,1.338186026,-4.748556614,-2.446063042,5.506610224
21.48084678,1.317847013,-4.677370071,-2.532204628,5.479650702
21.48315235,1.324427366,-4.615156651,-2.94317174,5.631699446
21.48548376,1.259222865,-4.382454872,-3.34576416,5.655589337
21.48780225,1.050449133,-3.902693748,-3.804588079,5.550617293
21.49010782,0.9332008362,-3.410968781,-3.851846218,5.228985667
21.49243923,0.8446664214,-2.928814888,-3.879961967,4.934118248
21.49475772,0.8404789567,-2.625524759,-3.772883177,4.672732884
21.49706324,0.9008977413,-2.446063042,-3.544966698,4.400185227
21.49939464,1.024128079,-2.289333105,-3.363112211,4.195284035
21.50171313,1.037886858,-2.11585331,-3.273381472,4.033493599
21.50401871,0.9786644578,-1.881955028,-3.18544507,3.827087554
21.50635011,0.8739784956,-1.595414519,-2.973680258,3.485966175
21.5086686,0.8518448472,-1.18743825,-2.729014158,3.095669155
21.51097418,0.8315058947,-0.7800601721,-2.679363251,2.911852221
21.51330553,0.7316055298,-0.6478567123,-2.571686029,2.751096873
21.51562402,0.6317051649,-0.5629115105,-2.358724833,2.505893777
21.51792959,0.5886343718,-0.4576273263,-2.063809633,2.194361729
21.520261,0.5599204898,-0.366101861,-1.721037745,1.846486515
21.52257949,0.4157529473,-0.2015953064,-1.552343726,1.619648797
21.52488506,0.2763710022,-0.01734796353,-1.402194023,1.429276027
21.52721647,0.128614217,0.128614217,-1.252044439,1.265187145
21.52953496,0.02871387079,0.2703889608,-1.129412293,1.161682747
21.53184048,-0.08434699476,0.3876372576,-1.135992527,1.203268914
21.53417188,-0.204586342,0.470787853,-1.257428288,1.358168868
21.53649037,-0.2769692242,0.5270192027,-1.334596872,1.461372643
21.53880886,-0.4151547253,0.537786901,-1.488335729,1.636065842
21.54112735,-0.5186443329,0.4965106845,-1.508076429,1.67027223
21.54344584,-0.6442674994,0.4025924206,-1.551745534,1.727737095
21.54576433,-0.70348984,0.2763710022,-1.527219057,1.70401788
21.54808282,-0.7070791125,0.08434699476,-1.597807288,1.749303695
21.55040131,-0.9062815905,-0.1651047617,-1.583450437,1.831917353
21.55271975,-0.9672985673,-0.2811566591,-1.301695466,1.645942487
21.55503824,-1.031904817,-0.2536391914,-1.063609719,1.503471325
21.55735673,-1.057029366,-0.2584248483,-0.8632107973,1.388966293
21.55967522,-1.084546804,-0.3499503136,-0.6963114142,1.335498625
21.56199371,-1.05822587,-0.4887340367,-0.5371887088,1.283461982
21.5643122,-1.006780148,-0.6604190469,-0.4594219327,1.288731196
21.56663063,-0.9367900491,-0.8171489239,-0.3577269912,1.293551916
21.56894912,-0.8739784956,-1.045663476,-0.2931207716,1.393976435
21.57126761,-0.8303094506,-1.308874011,-0.1483550072,1.557104418
21.5735861,-0.8434699774,-1.462014675,0.2303091735,1.703517193
21.57590459,-0.7357929349,-1.708475351,0.6622136831,1.974539499
21.57822308,-0.6334998012,-1.95015049,1.194616675,2.373081948
21.58052866,-0.5730810165,-2.2259233,1.745564103,2.886199998
21.58286006,-0.4031906128,-2.537588358,2.4173491,3.527817174
21.5851785,-0.2644068897,-2.922832966,3.022135019,4.212619568
21.58748407,-0.2261217386,-3.276372433,3.568894863,4.850026588
21.58981548,-0.2913261652,-3.665804386,4.057629108,5.476070371
21.59213397,-0.35174492,-3.939782381,4.802993298,6.22208601
21.59443954,-0.4241278172,-4.319643021,5.47298336,6.985180534
21.59677095,-0.6251249313,-4.697110653,6.194419384,7.799003858
21.59908944,-0.8249256015,-5.007579803,7.139584541,8.759567635
21.60139496,-1.109073281,-5.349154949,8.031509399,9.71332309
21.60372636,-1.540379524,-5.722435474,8.927620888,10.7154772
21.60604485,-2.056631088,-5.972485542,9.859027863,11.70900275
21.60835042,-2.661417007,-6.269195557,10.68156052,12.66813674
21.61068183,-3.337389469,-6.524031162,11.4454689,13.59043448
21.61300032,-3.980460405,-6.811169624,12.23809147,14.56045945
21.61530589,-4.605585575,-7.011568546,12.96850014,15.44524224
21.61763725,-5.13021183,-7.388438225,13.5726881,16.28268882
21.61995574,-5.587839127,-7.85922575,13.85384464,16.87958491
21.62226131,-6.066403389,-8.331210136,13.74317646,17.17804446
21.62459272,-6.380461693,-8.776873589,13.38066387,17.22747709
21.62691121,-6.675975323,-9.312865257,12.69512081,17.10158467
21.62921678,-6.873383045,-9.83868885,11.61476135,16.70167279
21.63154819,-6.988836765,-10.31785107,10.9058876,16.56020152
21.63386668,-7.054639339,-10.65703392,10.11206818,16.29706204
21.6361722,-7.005586624,-10.9746809,9.184251785,15.93337207
21.6385036,-6.864409924,-11.34317589,8.181658745,15.57970804
21.64082209,-6.542575359,-11.73978615,7.438089371,15.36076315
21.64312766,-6.309873104,-12.29731369,6.981658459,15.48489514
21.64545907,-6.099305153,-12.83510113,6.811169624,15.75859689
21.64777756,-5.82532692,-13.47278786,6.870990276,16.20681813
21.65008313,-5.538786411,-13.92622757,7.158128738,16.60893664
21.65241449,-5.096114159,-14.20858097,7.540382385,16.87339679
21.65473298,-4.622334957,-14.17268848,7.855038643,16.85030301
21.65703855,-4.205984116,-13.92203999,8.066802979,16.63089926
21.65936996,-3.879961967,-13.48176098,8.218747139,16.25914477
21.66168845,-3.631108284,-12.96730423,8.279166222,15.80760955
21.66399402,-3.376272678,-12.34636688,8.343772888,15.27908827
21.66632542,-3.178864956,-11.69252777,8.411968231,14.75064736
21.66864386,-2.955136061,-10.98185921,8.504091263,14.20047989
21.67094944,-2.708076954,-10.42313576,8.578866959,13.76852926
21.67328084,-2.505285263,-9.962516785,8.605786324,13.40103553
21.67559933,-2.329412937,-9.583852768,8.609375954,13.09189646
21.67790491,-2.189432621,-9.277571678,8.622536659,12.85360221
21.68023631,-2.051845312,-9.039485931,8.555537224,12.61426146
21.6825548,-1.998605132,-8.807980537,8.296514511,12.2640571
21.68486032,-1.8628124,-8.661419868,8.09671402,12.00195993
21.68719173,-1.741974831,-8.490931511,7.962715626,11.77009917
21.68951022,-1.730010748,-8.341380119,7.713263988,11.49199725
21.69181579,-1.683948994,-8.220541954,7.517650604,11.26623561
21.6941472,-1.629512191,-8.066205025,7.374081135,11.04970796
21.69646569,-1.611566067,-7.787441254,7.18145895,10.71516398
21.69877126,-1.676172256,-7.434499741,6.93978405,10.30737321
21.70110261,-1.766501307,-6.946962357,6.558128834,9.715444748
21.7034211,-1.788036704,-6.372086525,6.172286034,9.049733522
21.70572668,-1.80658114,-5.739185333,5.833701611,8.380576244
21.70805808,-1.81794703,-5.057828903,5.638088226,7.789390443
21.71037657,-1.952543259,-4.335794449,5.798407555,7.498871172
21.71268214,-2.416750908,-3.658625841,6.175875187,7.574144329
21.71501355,-3.00837636,-3.100499868,6.753143787,8.016756125
21.71733204,-3.684348583,-2.783450842,7.417151928,8.737057044
21.71963756,-4.42672205,-2.71286273,8.097311974,9.618833271
21.72196897,-5.264808178,-2.947957516,8.673383713,10.5658054
21.72428746,-5.988636971,-3.497110367,9.210572243,11.52944902
21.72659303,-6.621538639,-4.250849247,9.644271851,12.44694632
21.72892444,-7.124629498,-5.069792747,9.616754532,12.99788874
21.73124292,-7.366304398,-5.925825119,9.139386177,13.14938111
21.73354845,-7.286743164,-6.872186661,8.207381248,12.94931204
21.73587985,-6.91106987,-7.975277901,6.64427042,12.47053623
21.73819834,-6.279963017,-9.164510727,4.908277512,12.14567332
21.74050392,-5.550750256,-10.33160973,3.387040377,12.20758086
21.74283532,-4.791627407,-11.31446171,2.341975212,12.50846053
21.74515381,-4.207778454,-12.12802124,1.780260086,12.96007811
21.74745938,-3.699902058,-12.72144127,1.617548108,13.34693991
21.74979074,-3.063411236,-13.29153156,2.027917147,13.78991471
21.75210923,-2.554338217,-13.74317646,3.118446112,14.32215937
21.7544148,-3.063411236,-14.48614788,5.337789059,15.73928082
21.75674621,-3.802793503,-15.37867069,7.674978733,17.60312612
21.7590647,-4.759922504,-16.24188232,9.79083252,19.55290273
21.76137027,-5.592624664,-17.14696693,11.27378368,21.26955863
21.76370168,-6.180660725,-18.00060654,11.85165024,22.42061587
21.76602016,-6.467799664,-18.69093513,11.22951698,22.74391216
21.76832569,-6.394818306,-19.17189407,9.56411171,22.35905759
21.77065709,-5.94078064,-19.35793495,7.079763889,21.4510041
21.77297558,-5.212764263,-19.46621132,4.048057556,20.55463608
21.77528116,-4.459623337,-19.39681816,0.8530412912,19.92115646
21.77761256,-3.857230186,-19.12403679,-2.086541414,19.62041444
21.77993105,-3.451048374,-18.47976875,-4.214957237,19.26596617
21.78223662,-3.282354355,-17.33420563,-5.228317261,18.40064771
21.78456798,-3.375674486,-15.80937958,-5.102096081,16.9517859
21.78688647,-3.787838221,-14.12303734,-4.435695171,15.28016013
21.78919204,-4.387838364,-12.55035496,-3.680161238,13.79522098
21.79152345,-5.111667156,-11.03390312,-2.790629387,12.47652883
21.79384194,-5.855835438,-9.699904442,-1.747956991,11.4644803
21.79614751,-6.544369698,-8.523234367,-0.5748756528,10.76126298
21.79847892,-7.161718369,-7.305885792,0.4504488707,10.2405606
21.80079735,-7.613961697,-6.147759438,1.349551916,9.878696736
21.80310292,-7.781459332,-4.978865623,1.820937991,9.415732972
21.80543433,-7.588837147,-3.980460405,1.896311998,8.776702882
21.80775282,-7.054639339,-3.166302681,1.723430514,7.922349501
21.81005839,-6.389434814,-2.435295343,1.404586911,6.980573404
21.8123898,-5.749952793,-1.825723648,1.172483087,6.145725388
21.81470829,-5.022534847,-1.32801652,1.026520967,5.295585847
21.81701381,-4.277170658,-0.8590233326,1.106680512,4.500761234
21.81934522,-3.503092289,-0.5718846321,1.273579836,3.771036093
21.82166371,-2.790031195,-0.5114658475,1.35074842,3.141718109
21.82396928,-2.11046958,-0.6646065116,0.9714859724,2.416519947
21.82630069,-1.360319614,-0.941575706,-0.01196411345,1.65444172
21.82861918,-0.6173482537,-1.383051515,-1.529013634,2.152169382
21.8309247,0.1746760458,-1.9585253,-3.215355396,3.768931333
21.8332561,1.099501967,-2.722434044,-4.867001057,5.684034745
21.83557459,2.195414782,-3.650250912,-6.467201233,7.743956971
21.83788016,3.396611691,-4.65762949,-7.908876896,9.786767454
21.84021157,3.9170506,-5.474180222,-9.5252285,11.6636149
21.84253006,4.261018753,-6.544369698,-10.83111191,13.35282894
21.84483563,4.700700283,-7.587640762,-11.74516964,14.75187735
21.84716699,5.274977684,-8.785248756,-12.24108219,15.96402451
21.84948548,5.673980713,-9.689137459,-12.72742367,16.97235267
21.85179105,5.917450428,-10.42313576,-12.73938751,17.49142569
21.85412246,6.078966141,-11.11107159,-12.77109241,17.98639882
21.85644095,6.144170284,-11.7086792,-12.42293739,18.14313563
21.85874652,6.095117569,-12.3481617,-11.98385429,18.25487111
21.86107792,5.901896954,-12.95713425,-11.47119141,18.28409002
21.86339636,5.659623623,-13.51884937,-10.92024422,18.27682581
21.86570194,5.45085001,-14.14218044,-10.21196842,18.2755939
21.86803334,5.192425251,-14.86242008,-9.55035305,18.41363772
21.87035183,4.950749874,-15.66401482,-8.921639442,18.69403474
21.8726574,4.82034111,-16.59721565,-8.057829857,19.06913417
21.87498881,4.683351994,-17.43470383,-7.251449108,19.45472173
21.8773073,4.532604218,-18.08016777,-6.541976929,19.75435217
21.87961282,4.441078663,-18.50788498,-5.604588985,19.8412803
21.88194423,4.33340168,-18.89791489,-4.563112736,19.91812127
21.88426272,4.302893162,-19.12762642,-3.574278831,19.92878449
21.88656829,4.367499352,-19.18146515,-2.566900492,19.83916919
21.8888997,4.465006828,-19.13480377,-1.774278045,19.7287877
21.89121819,4.46321249,-18.99482346,-1.351346612,19.55887833
21.89352371,4.465006828,-18.61496353,-1.062413216,19.17242486
21.89585511,4.486542225,-18.22971916,-0.8410771489,18.79252864
21.8981736,4.36211586,-17.73739624,-0.5832505226,18.2752144
21.90047918,4.274777889,-17.1433773,-0.5024927258,17.6754522
21.90281058,4.081557274,-16.53380585,-0.394217521,17.03470731
21.90512907,3.892524242,-15.9320116,-0.2667997181,16.40280222
21.90743464,3.703491211,-15.34576988,-0.01495514158,15.78634613
21.909766,3.457030535,-14.8707943,0.06999006122,15.26749756
21.91208449,3.173480988,-14.27258873,0.1489532143,14.62189993
21.91439006,2.979064226,-13.66182041,0.4336991012,13.98957667
21.91672147,2.717648268,-13.23530006,0.6717849374,13.52812163
21.91903996,2.453241348,-12.81835079,0.7567301393,13.07291668
21.92134553,2.143370867,-12.48933792,0.9182456732,12.7051476
21.92367694,1.853839397,-12.20339584,1.013958573,12.38497891
21.92599537,1.546361685,-11.8654089,0.6891329288,11.98557746
21.92830095,1.230509043,-11.51785183,0.3074777126,11.58747625
21.93063235,0.8440681696,-11.02313614,-0.04307080805,11.05548898
21.93295084,0.3732803464,-10.46800041,-0.304486692,10.47907835
21.93525642,-0.1483550072,-9.966704369,-0.5270192027,9.981731033
21.93758782,-0.7220342159,-9.504889488,-0.6783652306,9.556382003
21.93990631,-1.375274777,-9.107681274,-0.8063812256,9.246160803
21.94221183,-2.078764677,-8.816953659,-0.8721838593,9.100584547
21.94454324,-2.833101988,-8.595019341,-0.9756734371,9.102349312
21.94686173,-3.597010612,-8.526823044,-1.097109199,9.319272781
21.9491673,-4.365705013,-8.501698494,-1.066002488,9.616372437
21.95149871,-5.024927616,-8.550153732,-0.8476574421,9.953569688
21.9538172,-5.395814896,-8.726025581,-0.4061816335,10.2675861
21.95612272,-5.517251015,-9.010771751,0.2105683982,10.5678004
21.95845412,-5.36052084,-9.366106033,0.8482556343,10.8249094
21.96077261,-5.270191669,-9.516854286,1.423131227,10.97135991
21.96307819,-5.182853699,-9.456435204,1.623530149,10.90513592
21.96540959,-4.86281395,-9.415757179,1.497308731,10.70258736
21.96772808,-4.360919476,-9.241081238,1.319641709,10.30323519
21.97004657,-3.927220106,-8.981459618,1.159322619,9.870851208
21.97236501,-3.449253798,-8.749954224,0.8560323119,9.444143264
21.9746835,-2.952144861,-8.513663292,0.5724828243,9.029139412
21.97700199,-2.350948334,-8.24506855,0.2662015259,8.577818879
21.97932048,-1.887937069,-7.956135273,-0.1280160099,8.17806719
21.98163897,-1.708475351,-7.602595806,-0.4869394004,7.807397838
21.98394454,-1.536790371,-7.258029461,-1.031306505,7.490280997
21.98627595,-1.305284739,-6.873981476,-1.380658627,7.131732456
21.98859438,-1.100698471,-6.41336298,-1.596610904,6.700143895
21.99089996,-0.865005374,-5.927619934,-1.693520188,6.225184576
21.99323136,-0.6035895348,-5.465805054,-1.866401672,5.80713358
21.99554985,-0.2769692242,-5.179862976,-1.836491346,5.502762294
21.99785542,0.009571290575,-4.985445976,-1.921436548,5.34290947
22.00018683,0.1609173268,-4.852644444,-2.183450699,5.32367443
22.00250527,0.3086741269,-4.954937458,-2.45383954,5.537870838
22.00481084,0.3720839322,-5.118247509,-2.747558594,5.820994953
22.00714225,0.4336991012,-5.255835056,-2.817548752,5.979170345
22.00946074,0.5497509837,-5.373083115,-2.615355253,6.001027529
22.01177923,0.6544370055,-5.537590027,-2.106880426,5.960883846
22.01409772,0.8273184299,-5.738586903,-1.532004714,5.996905358
22.01641616,0.9499505758,-5.961119175,-1.205384374,6.155509679
22.01873464,0.9828519225,-6.055635929,-0.8554341197,6.194230537
22.02105313,1.050449133,-6.346961975,-0.5575276613,6.457414869
22.02337162,1.073779106,-6.537789822,-0.4600201547,6.641333892
22.02569011,0.9888339639,-6.588038921,-0.4414757788,6.676447431
22.0280086,0.8853443861,-6.614359856,-0.5042873621,6.692376015
22.03032704,0.7782655358,-6.693921566,-0.5808576941,6.763998731
22.03264553,0.7639086246,-6.853044033,-0.665802896,6.927558185
22.03496402,0.6861419082,-7.166503906,-0.6975077987,7.232985973
22.03728251,0.6089733839,-7.519444942,-0.614357233,7.56903796
22.039601,0.4941178858,-7.766504288,-0.3894318938,7.791944464
22.04191949,0.4199403822,-8.094321251,-0.1734796464,8.107063687
22.04423798,0.2362912297,-8.256434441,0.07956135273,8.260198135
22.04655642,0.08793623,-8.177471161,0.5066801906,8.193625094
22.0488749,-0.1471585929,-8.211568832,0.8051848412,8.252262779
22.05119339,-0.3708875179,-8.297710419,1.022931695,8.368748114
22.05349897,-0.6113662124,-8.303094864,1.245464206,8.418214422
22.05583037,-0.9098708034,-8.266604424,1.462014675,8.44405711
22.05814886,-1.308874011,-8.174480438,1.634297848,8.438377277
22.06045438,-1.524227977,-8.198408127,1.761117458,8.52283412
22.06278579,-1.793420553,-8.13320446,1.782054663,8.517105781
22.06510428,-1.987837434,-7.98903656,1.731805444,8.41280886
22.06740985,-2.173879385,-7.964509964,1.677368641,8.424531803
22.06974126,-2.249253273,-7.918448448,1.457229018,8.359693925
22.07205975,-2.223530531,-7.702496052,1.093519926,8.09124955
22.07437819,-2.102692842,-7.552346706,0.3780659735,7.84870638
22.07669668,-1.860419631,-7.461419106,-0.3936193287,7.699926782
22.07901516,-1.600798368,-7.240681171,-1.413560033,7.549051014
22.08132074,-1.284945726,-7.312466145,-2.440679073,7.815379772
22.08365214,-0.9421738982,-7.402196884,-3.31465745,8.164996288
22.08597063,-0.6442674994,-7.314858913,-3.928416491,8.327946785
22.08827621,-0.3792623878,-7.328019142,-4.173680782,8.44176023
22.09060756,-0.1280160099,-7.292725086,-4.042674065,8.339271004
22.09292605,0.0580259487,-7.210771084,-3.722633839,8.115207288
22.09523162,0.1896311939,-7.06301403,-3.407379389,7.844256592
22.09756303,0.2410768867,-7.013363361,-2.863610506,7.579290787
22.09988152,0.2362912297,-7.204190731,-2.213361025,7.54023638
22.10220001,0.128614217,-7.445865631,-1.645065546,7.626512785
22.10451845,0.04307080805,-7.984848976,-1.078564763,8.057479148
22.10683694,-0.2338984162,-8.12961483,-0.5413761139,8.150977478
22.10914251,-0.4007977843,-8.060821533,-0.204586342,8.073372172
22.11147392,-0.5407779217,-8.303094864,0.1776670814,8.322583173
22.1137924,-0.6604190469,-8.781061172,0.5712863803,8.824372882
22.11609798,-0.72323066,-9.190233231,0.8356932998,9.256448169
22.11842938,-0.7076773047,-9.636494637,0.9152546525,9.705695602
22.12074782,-0.6831508875,-10.01037312,0.8614161611,10.07056616
22.12305339,-0.5682953596,-10.3728857,0.7932206988,10.41868113
22.1253848,-0.3714857101,-10.73838997,0.7357929349,10.76997734
22.12770329,-0.123828575,-11.09731293,0.7166503668,11.12111845
22.13000886,0.17587246,-11.43111229,0.7076773047,11.45434706
22.13234027,0.5162515044,-11.69192982,0.6741777658,11.72272384
22.13465871,0.8883354068,-11.8283205,0.5928218365,11.87643648
22.13696428,1.290927768,-11.88634682,0.5252245665,11.96777323
22.13929569,1.737787485,-11.82293701,0.4905286431,11.96003191
22.14161418,2.123630047,-11.6021986,0.4827519655,11.80482386
22.14391975,2.47358036,-11.301301,0.4881358147,11.57913126
22.14625116,2.781058073,-10.86161995,0.5258227587,11.224329
22.14856959,3.094517946,-10.42672443,0.5497509837,10.89012626
22.15087517,3.384647608,-10.02592659,0.5108676553,10.59415071
22.15320657,3.626322746,-9.564710617,0.3714857101,10.23581494
22.15552506,3.870988846,-9.189037323,0.1704886109,9.972563759
22.15783063,4.074378967,-8.891729355,-0.04905286431,9.780890607
22.16016204,4.301098824,-8.714061737,-0.2488535494,9.720918225
22.16248053,4.573880672,-8.708079338,-0.4372883439,9.845925617
22.16478605,4.79521656,-8.746364594,-0.5784648657,9.991377136
22.16711746,5.026124001,-8.971888542,-0.6843472719,10.30655314
22.16943595,5.170291424,-9.376275063,-0.7040880919,10.73043277
22.17174152,5.240880013,-9.711270332,-0.5862415433,11.05075897
22.17407292,5.194219589,-9.822537422,-0.4666004181,11.12114538
22.17639136,5.05124855,-9.8638134,-0.3008974493,11.08604826
22.17870985,4.797011375,-10.22931671,-0.109471634,11.29877084
22.18102834,4.494318962,-10.78863907,0.2404786795,11.68980179
22.18334683,4.036093712,-11.45623684,0.6227321029,12.16236861
22.18565241,3.588635683,-11.40838051,0.9661021233,11.99845012
22.18798381,3.223132133,-11.7332058,1.223330617,12.22919608
22.19030225,2.800798893,-12.27159119,1.476371527,12.67344064
22.19260782,2.443071842,-12.89851093,1.735394597,13.24204587
22.19493923,2.108076811,-13.45364571,1.907677889,13.75077473
22.19725772,1.794018745,-13.87418365,1.92741859,14.12184187
22.19956329,1.619940877,-14.19542027,2.07098794,14.43686794
22.2018947,1.534995675,-14.98385525,2.219941139,15.22498829
22.20421319,1.40997076,-14.81396484,2.355733871,15.06622229
22.20651871,1.453639746,-14.44367599,2.286342144,14.69558455
22.20885011,1.508674622,-14.29831123,2.08534503,14.52812676
22.2111686,1.509272933,-14.08295727,1.850250125,14.28394258
22.21348709,1.582852125,-13.90828133,1.649253011,14.09488367
22.21580558,1.709671736,-13.7856493,1.430309772,13.96470158
22.21812407,1.858026743,-13.71027565,1.20179522,13.8877008
22.22044251,1.972882271,-13.65524101,1.006181955,13.83366451
22.222761,2.067996979,-13.58166122,0.7728816867,13.75992294
22.22507949,2.196012974,-13.52602863,0.6783652306,13.71991629
22.22739798,2.301297188,-13.5284214,0.6317051649,13.73729252
22.22971647,2.405385017,-13.51167107,0.6466603279,13.73933411
22.23203496,2.357528448,-13.48893929,0.6460621357,13.70864033
22.23435339,2.315055847,-13.35972691,0.7357929349,13.57877674
22.23667188,2.254039049,-13.246068,0.8392825127,13.46266707
22.23899037,2.133799553,-13.051651,0.9607182741,13.25977654
22.24130886,1.96151638,-12.89671612,1.130010486,13.09388242
22.24362735,1.776072621,-12.65085316,1.355534077,12.8466335
22.24594584,1.534995675,-12.42114258,1.566102386,12.61323398
22.24826428,1.323230863,-12.23809147,1.825125456,12.44399074
22.25058277,1.065404296,-12.09990597,2.055434704,12.31940025
22.25290126,0.8213363886,-11.99462128,2.386840582,12.25734641
22.25521975,0.7076773047,-11.94377422,2.681157827,12.26145004
22.25753824,0.7196413875,-11.95274734,3.043670416,12.35516015
22.25985673,0.799800992,-11.98385429,3.268595695,12.44733559
22.26216225,0.9571290612,-12.00897884,3.356531858,12.5059176
22.26449366,1.146162033,-12.07657623,3.196212769,12.54484583
22.26681214,1.371685624,-12.23031521,2.946761131,12.65486202
22.26913063,1.632503271,-12.4743824,2.669791937,12.86091257
22.27144912,1.947757602,-12.75972652,2.421536446,13.13271561
22.27376761,2.302493572,-13.10309696,2.107478619,13.46974732
22.27608605,2.642872572,-13.45603848,1.831705689,13.83491571
22.27840454,2.886342287,-13.74317646,1.521237016,14.12515604
22.28072303,3.149552822,-14.05005646,1.268195987,14.4544834
22.2830286,3.459423304,-14.36949825,1.134796143,14.82355733
22.28536001,3.705285788,-14.62313747,0.9906286001,15.11775901
22.2876785,3.933202267,-14.74277878,0.9314061999,15.28682844
22.28998402,4.096512318,-14.76311779,0.8853443861,15.34649454
22.29231542,4.224528313,-14.72184086,0.8817551732,15.34134055
22.29463392,4.343571186,-14.54596901,0.9385846853,15.20962742
22.29695241,4.298107624,-14.2881422,0.9984052777,14.95398107
22.29927089,4.171886444,-14.04586887,1.095912814,14.69326696
22.30158938,4.012165546,-13.82812214,1.159920812,14.44506319
22.30390782,3.780061483,-13.68455315,1.166501045,14.24487923
22.30622631,3.506681681,-13.62413406,1.168295622,14.11661291
22.3085448,3.211766243,-13.66899967,1.208973646,14.09321155
22.31086329,2.965903759,-13.78026581,1.317248821,14.15724038
22.31318178,2.703291416,-13.98784256,1.335195065,14.30909745
22.31550027,2.476571321,-14.21994686,1.249053478,14.48794081
22.31781871,2.28215456,-14.38804245,1.095912814,14.6090732
22.3201372,2.015354872,-14.52862072,0.917647481,14.6964129
22.32245569,1.760519266,-14.62134266,0.8255237937,14.75007047
22.32476126,1.470389485,-14.64706516,0.8327022791,14.74421772
22.32709267,1.173679471,-14.63510132,0.9349954724,14.71182962
22.32941116,0.8763712645,-14.64646721,1.147358418,14.71745425
22.33171668,0.575473845,-14.57109356,1.502094388,14.65961204
22.33404808,0.2518445849,-14.35214996,1.92203474,14.48246705
22.33636657,-0.1052841991,-13.97049522,2.436491728,14.18175989
22.33867214,-0.537786901,-13.61516094,2.787638426,13.90801029
22.34100355,-1.064207911,-13.25264835,3.042474031,13.63898365
22.34332204,-1.560718536,-12.94217968,3.269193888,13.43962373
22.34562756,-1.97527504,-12.82612801,3.442075491,13.42606252
22.34795897,-2.312663078,-13.03669643,3.411566973,13.67269738
22.35027746,-2.583052158,-13.22572899,3.238685369,13.85933435
22.35258303,-2.779861689,-13.34058475,3.142374277,13.98475415
22.35491444,-2.906681299,-13.55533981,2.994617462,14.18322133
22.35723292,-2.997608662,-13.82632732,2.709871531,14.40473494
22.35953845,-3.037090063,-14.02014637,2.306082726,14.52950233
22.36186985,-3.084946632,-14.23430347,1.829312921,14.67919197
22.36418834,-3.155534744,-14.4191494,1.13419795,14.80390739
22.36649392,-3.202793121,-14.53699589,0.2518445849,14.88776541
22.36882532,-3.229114056,-14.69312763,-0.7585247755,15.06288608
22.37114381,-3.146561861,-15.01974773,-1.690529227,15.43863863
22.37344933,-2.956332445,-15.49711609,-2.467598438,15.96839224
22.37578074,-2.684148788,-16.05344772,-3.128615618,16.57425939
22.37809923,-2.320439816,-16.60858154,-3.775275946,17.18959366
22.3804048,-1.95015049,-17.08116531,-4.464408875,17.76232648
22.38273621,-1.622931957,-17.50230217,-5.212165833,18.33388017
22.3850547,-1.318445325,-17.94317818,-6.022136211,18.97266628
22.38736022,-1.089332461,-18.2847538,-6.737590313,19.51701796
22.38969162,-0.9469595551,-18.50788498,-7.183851719,19.87577079
22.39201011,-0.8757730722,-18.59342766,-7.449455261,20.04936194
22.39431569,-0.8919246197,-18.497715,-7.560122967,20.00291101
22.39664709,-0.9972088337,-18.27937126,-7.610372543,19.82542835
22.39896558,-1.133001566,-17.91685867,-7.318448067,19.38703689
22.4012711,-1.259821177,-17.58784485,-6.80698204,18.90117563
22.40360251,-1.431506157,-17.23490334,-6.114260197,18.34326254
22.405921,-1.624726534,-16.89691734,-5.240880013,17.76548269
22.40823949,-1.785643935,-16.6402874,-4.371088982,17.29722833
22.41055798,-1.968096614,-16.47937012,-3.525225878,16.96673985
22.41287647,-2.096112728,-16.42313766,-2.644068956,16.76616354
22.41518199,-2.214557409,-16.51107407,-1.800000787,16.75588954
22.41751339,-2.394617319,-16.74916077,-1.141376376,16.9579279
22.41983188,-2.558525562,-17.03510284,-0.6113662124,17.23701107
22.42213746,-2.632703066,-17.2426796,-0.1531406492,17.44318139
22.42446886,-2.697309256,-17.35813332,0.4725824594,17.57280864
22.42678735,-2.715255499,-17.42034721,1.121635556,17.66632887
22.42909287,-2.708076954,-17.38445473,1.936989903,17.70042024
22.43142428,-2.696112871,-17.21935081,2.88993144,17.66710986
22.43374277,-2.683550596,-17.03988838,3.719044685,17.64626117
22.43604834,-2.602194548,-16.85923004,4.381258488,17.61250919
22.43837975,-2.48733902,-16.61097527,4.743172646,17.4530525
22.44069824,-2.485544443,-16.31845284,4.721637249,17.16868348
22.44300376,-2.53818655,-16.06002808,4.481158733,16.86557667
22.44533517,-2.532204628,-15.75255013,4.517050743,16.58187695
22.44765366,-2.448455811,-15.43430424,4.386044025,16.23114492
22.44995923,-2.374876499,-15.34218025,3.809373617,15.98542651
22.45229063,-2.504088879,-15.19382572,2.786442041,15.6488677
22.45460912,-2.723630428,-14.99881077,1.452443361,15.3131342
22.45691464,-3.00538516,-14.76311779,0.1603191197,15.06677434
22.45924605,-3.309871912,-14.59502125,-1.15094769,15.00981605
22.46156454,-3.642474174,-14.38445377,-2.548356056,15.0557048
22.46387011,-3.921238184,-14.13440323,-3.788436413,15.14957801
22.46620152,-4.119244099,-13.78445339,-4.636692047,15.1154967
22.46852001,-4.29392004,-13.43988705,-5.389832973,15.10359602
22.47082553,-4.375874519,-13.17428303,-6.122036934,15.1719922
22.47315694,-4.343571186,-12.99661636,-6.614359856,15.21605743
22.47547543,-4.248456478,-12.77827072,-6.686742783,15.03483003
22.477781,-3.944568157,-12.64546967,-6.332006931,14.68202414
22.4801124,-3.525225878,-12.44746304,-5.680561066,14.12923662
22.48243089,-3.081357241,-12.16152096,-4.892126083,13.46589218
22.48473642,-2.641077995,-11.78943729,-3.832105398,12.67482373
22.48706782,-2.139781713,-11.45803165,-2.599203587,11.94240405
22.48938631,-1.68275249,-11.17208862,-1.667199135,11.42045415
22.49169188,-1.33399868,-10.92802143,-1.222732425,11.07683526
22.49402329,-1.190429211,-10.60678482,-1.161117196,10.73634943
22.49634173,-0.9834501147,-10.3094759,-1.165902853,10.42169837
22.4986473,-0.6634100676,-9.970891953,-1.161117196,10.06016861
22.50097871,-0.409172684,-9.623932838,-1.228714466,9.710676846
22.5032972,-0.1866401732,-9.533005714,-1.94715941,9.73162177
22.50560277,0.1124626622,-9.397810936,-2.809173822,9.809330038
22.50793418,0.4666004181,-9.285347939,-3.397808075,9.89851009
22.51025261,0.7429714203,-9.144769669,-3.74536562,9.909923433
22.51255819,0.970289588,-8.972486496,-4.111467361,9.91721431
22.51488959,1.172483087,-8.75713253,-4.47397995,9.903463199
22.51720808,1.442273855,-8.563912392,-4.868795872,9.956200207
22.51951366,1.737787485,-8.485547066,-5.119443893,10.0614671
22.52184506,1.94177556,-8.370093346,-5.252245903,10.07050356
22.52416355,1.97527504,-8.167900085,-5.324628353,9.948264692
22.52646907,1.925025821,-7.895716667,-5.350949764,9.730402329
22.52880048,1.793420553,-7.591827869,-5.459224701,9.52130989
22.53111897,1.59840548,-7.240083218,-5.435296535,9.193266748
22.53342454,1.299900889,-6.819544315,-5.25942421,8.709619395
22.53575595,1.02711916,-6.369095802,-4.807778835,8.045812105
22.53807438,0.8907282352,-5.919245243,-4.082155228,7.245333142
22.54037996,0.717248559,-5.562116146,-3.227319479,6.470484722
22.54271136,0.5934200287,-5.318646431,-2.314457655,5.830682758
22.54502985,0.3762713671,-5.202594757,-1.754537225,5.503360175
22.54733542,0.1944168359,-5.062614441,-1.557129383,5.30023724
22.54966683,0.142971158,-4.914259434,-1.577468276,5.163215345
22.55198527,0.1956132501,-4.826921463,-1.88255322,5.184731621
22.55429084,0.24765715,-4.740181446,-2.111665964,5.195169617
22.55662225,0.2488535494,-4.543372154,-2.289333105,5.093643557
22.55894074,0.3014956415,-4.354937077,-2.353341103,4.959293388
22.56124631,0.3888336718,-4.185046673,-2.477767944,4.879051267
22.56357772,0.4163511395,-3.924827337,-2.612962246,4.733412046
22.56589616,0.5006981492,-3.683152199,-2.632703066,4.554935147
22.56820173,0.5629115105,-3.456432343,-2.762513638,4.460412033
22.57053313,0.6000002623,-3.234498024,-2.78285265,4.308856769
22.57285162,0.6598208547,-2.983251572,-2.703291416,4.079575711
22.5751572,0.6849454641,-2.71824646,-2.53818655,3.781587639
22.57748855,0.7639086246,-2.485544443,-2.414956331,3.5487324
22.57980704,0.8309076428,-2.306082726,-2.382653236,3.418400429
22.58211261,0.8871390224,-2.132004976,-2.263610125,3.233634435
22.58444402,0.9667003751,-1.909472466,-2.173879385,3.050630475
22.58676251,0.9924231768,-1.68275249,-1.998605132,2.794813443
22.58906808,0.9720842242,-1.466202021,-1.933998942,2.614392475
22.59139944,0.9888339639,-1.298704505,-2.144567251,2.695105693
22.59371792,0.760917604,-0.9774680734,-2.177468538,2.505156416
22.5960235,0.4396811724,-0.4797609448,-1.840678811,1.952329015
22.5983549,0.2488535494,-0.1716850251,-1.620539188,1.648499651
22.60067339,0.04965107143,-0.05623133108,-1.503889084,1.505758801
22.60297897,-0.2063809484,-0.09571290761,-1.563111424,1.579579495
22.60531032,-0.4953143001,-0.1226321608,-1.813161373,1.88359472
22.60762881,-0.470787853,-0.02452643216,-0.9978070259,1.103567673
22.6099473,-0.513858676,-0.1016949639,-0.7022934556,0.8761328109
22.61226579,-0.6083751321,-0.2626122832,-0.8925228715,1.111612607
22.61458428,-0.760917604,-0.3768695593,-1.174277663,1.449121905
22.61690277,-1.024726272,-0.4414757788,-1.348355532,1.750150689
22.61922121,-1.261615753,-0.4660021961,-1.431506157,1.964189969
22.6215397,-1.517647743,-0.5198407173,-1.428515077,2.148055951
22.62385819,-1.736590981,-0.5784648657,-1.363310695,2.282320286
22.62617668,-1.926820397,-0.6119644046,-1.317248821,2.412940474
22.62849516,-2.078764677,-0.6442674994,-1.265803218,2.517657836
22.63080069,-2.288734913,-0.6490531564,-1.291526079,2.706957169
22.63313209,-2.39222455,-0.7040880919,-1.287338614,2.806371153
22.63545058,-2.495115757,-0.7597211599,-1.325623751,2.925757545
22.63776907,-2.560320139,-0.8327022791,-1.268794179,2.976318358
22.64008756,-2.640479803,-0.8925228715,-1.192223907,3.031522474
22.64240605,-2.678166628,-0.950548768,-1.120439172,3.054750953
22.64472449,-2.720041037,-1.042672515,-0.9631111026,3.068121935
22.64704298,-2.756531715,-1.13419795,-0.8482556343,3.099098209
22.64936147,-2.754138947,-1.287338614,-0.6801598072,3.115307274
22.65167996,-2.751147747,-1.436291814,-0.5455635786,3.151093099
22.65399845,-2.66739893,-1.596610904,-0.3337987661,3.126596399
22.65631694,-2.576471806,-1.666600943,-0.1178465188,3.070774083
22.65863537,-2.497508526,-1.818545222,0.07058826834,3.0902489
22.66095386,-2.431705952,-2.023131609,0.2153540403,3.1705887
22.66327235,-2.389831543,-2.227717876,0.4319044948,3.295536866
22.66559084,-2.343171597,-2.45683074,0.7250252366,3.471618068
22.66790933,-2.316850424,-2.6620152,1.07497561,3.689131791
22.67022782,-2.315654039,-2.834298372,1.543370605,3.972089339
22.67253334,-2.358724833,-3.007179976,2.078764677,4.350629474
22.67486475,-2.42273283,-3.108276606,2.713460922,4.784755793
22.67718324,-2.559721947,-3.201596737,3.442673683,5.352980497
22.67948881,-2.727219582,-3.242274761,4.237689018,5.992335145
22.68182022,-2.845664263,-3.406781197,5.220541,6.852591594
22.68413866,-2.97427845,-3.58504653,6.437291145,7.945917707
22.68644423,-3.111865759,-3.825525284,7.735397339,9.173588403
22.68877563,-3.271586657,-4.149154663,9.134002686,10.5521926
22.69109412,-3.503690481,-4.478167534,10.64626598,12.0694992
22.6933997,-3.712464333,-4.811367989,12.23988628,13.6655212
22.6957311,-4.013959885,-5.200799942,13.58584881,15.09090726
22.69804954,-4.329812527,-5.619544029,14.50170135,16.14391197
22.70035511,-4.670789719,-6.169294834,14.85105419,16.74605285
22.70268652,-5.070989609,-6.678368092,14.60818195,16.84382724
22.70500501,-5.513063431,-7.136593342,14.09193039,16.73043141
22.70731058,-5.954539299,-7.729415417,13.40100288,16.57670894
22.70964199,-6.264409542,-8.366504669,12.97328663,16.6597537
22.71196042,-6.643671989,-8.899505615,12.69751358,16.86909686
22.714266,-6.982256413,-9.272188187,12.68315601,17.19266776
22.7165974,-7.150352478,-9.790233612,12.64247799,17.51594886
22.71891589,-7.241279602,-10.14317513,12.68196011,17.78067052
22.72122147,-7.298707485,-10.60080242,12.38943768,17.86466649
22.72355282,-7.230511665,-11.07577801,11.95394325,17.82834588
22.72587131,-7.226324558,-11.72542953,11.16251755,17.72871294
22.72817688,-7.085147858,-12.63589859,10.28794098,17.76814517
22.73050829,-6.891927242,-13.57448292,9.370891571,17.87676862
22.73282678,-6.74835825,-14.47059536,8.629714966,18.14966803
22.7351323,-6.467799664,-15.16690636,8.065009117,18.35515876
22.73746371,-6.265007973,-15.49412441,7.615756035,18.3662178
22.7397822,-6.041278839,-15.59462357,7.328019142,18.25894846
22.74208777,-5.707480431,-15.55813313,7.320840836,18.11699616
22.74441918,-5.324628353,-15.42473316,7.275377274,17.86631396
22.74673766,-4.995017052,-15.02752399,7.122834682,17.36408496
22.74904319,-4.699503899,-14.38265896,6.882356167,16.62266651
22.75137459,-4.493721008,-13.60499096,6.653841496,15.79756039
22.75369308,-4.334000111,-12.71785259,6.443871498,14.90136945
22.75599866,-4.265804768,-11.81396389,6.266204357,14.0368141
22.75833006,-4.28315258,-10.93579769,6.150152206,13.25750502
22.76064855,-4.435096741,-10.00259686,6.02752018,12.49211857
22.76295407,-4.574478626,-9.184849739,5.910870075,11.84169348
22.76528548,-4.673182487,-8.491529465,5.814558983,11.30282281
22.76760397,-4.991427898,-7.764111042,5.658427238,10.82652167
22.76990954,-5.306682587,-7.133004189,5.450251579,10.42812884
22.77224095,-5.528018475,-6.658627033,5.301896572,10.14920733
22.77455938,-5.824130535,-6.363711834,5.02552557,9.983648233
22.77686496,-6.010172367,-6.13220644,4.869394302,9.871024697
22.77919636,-5.973681927,-5.997610092,4.677968502,9.671586834
22.78151485,-5.830112457,-5.974878311,4.526622295,9.496298832
22.78382043,-5.67039156,-5.928217888,4.613361835,9.411706285
22.78615178,-5.470590591,-5.904289722,4.586442947,9.264095069
22.78847027,-5.336592674,-5.853442192,4.420141697,9.070813607
22.79077584,-5.391627789,-5.711069584,4.24666214,8.928611613
22.79310725,-5.566901684,-5.523232937,4.086342812,8.842776374
22.79542574,-6.007181168,-5.202594757,3.86081934,8.835108588
22.79773131,-6.611967087,-4.785047054,3.533002615,8.893643322
22.80006267,-7.338188648,-4.265206337,3.102892876,9.037087027
22.80238116,-8.136195183,-3.804588079,2.453241348,9.310797797
22.80468673,-8.700303078,-3.285943747,2.024327993,9.517909633
22.80701813,-8.983254433,-3.029313564,1.419542074,9.585963727
22.80933662,-8.956335068,-2.823530674,0.8979067206,9.433689617
22.81164214,-8.613563538,-2.776272535,0.8386843204,9.088704935
22.81397355,-8.303094864,-2.778665304,0.7890332937,8.791185286
22.81629204,-7.717451096,-2.951546669,1.534995675,8.403980656
22.81861053,-7.247261524,-3.251247883,2.170888424,8.23445013
22.82092902,-7.058826923,-3.888935089,2.778067112,8.524582719
22.82324751,-7.07737112,-4.676173687,3.547359467,9.194538679
22.82555303,-7.392027378,-5.54117918,4.466801643,10.26153265
22.82788444,-7.82273531,-6.605985165,5.763113499,11.74937041
22.83020293,-8.614161491,-7.972286701,6.576673031,13.45413548
22.8325085,-9.469595909,-9.233902931,7.919046402,15.41588486
22.83483991,-10.34656525,-10.77428246,9.353543282,17.62456657
22.83715839,-11.14217854,-12.06760311,11.08235836,19.81398128
22.83946392,-11.61954689,-13.31426334,12.85244846,21.85106198
22.84179532,-11.62971592,-14.49332714,14.42513084,23.52426883
22.84411381,-11.07697392,-15.74716568,14.96890068,24.38730337
22.84641938,-9.812367439,-17.13440514,14.62313747,24.57044045
22.84875079,-7.914260864,-18.48993874,13.15155125,24.03074405
22.85106923,-5.767300606,-19.46680832,10.8550396,23.02282057
22.8533748,-3.895515203,-20.03809547,8.233104706,22.01100457
22.85570621,-2.46819663,-20.28814507,5.365904808,21.13039894
22.8580247,-1.400997639,-20.11466599,2.560320139,20.32530003
22.86033027,-0.6346961856,-19.48595047,0.03409772366,19.49631421
22.86266162,-0.1764706671,-18.46122551,-2.1302104,18.58455772
22.86498011,0.1160518974,-17.20798492,-3.463012457,17.5533663
22.86728569,0.1495514214,-15.88355637,-4.254438877,16.44414725
22.86961709,0.0580259487,-14.42692566,-4.747958183,15.18824078
22.87193558,0.08733802289,-12.96730423,-5.359324455,14.03142778
22.8742411,0.3361915946,-11.86780167,-6.151947021,13.37176852
22.87657251,0.2811566591,-11.03450203,-6.711867332,12.91853115
22.878891,0.2315055877,-10.38724327,-6.841678143,12.44013575
22.88119657,0.09272187948,-9.703494072,-6.594619274,11.73266372
22.88352798,-0.08195417374,-8.851649284,-5.986842155,10.68647231
22.88584642,-0.2309073806,-8.061419487,-5.421537876,9.717657913
22.88815199,-0.4253242314,-7.350152969,-4.984847546,8.891251567
22.89048339,-0.6125625968,-6.709474564,-4.48534584,8.093862438
22.89280188,-0.7680960894,-6.217749596,-3.889533281,7.374201705
22.89510746,-0.8967102766,-5.88754034,-3.210569859,6.765720907
22.89743886,-1.05224371,-5.61655283,-2.484348059,6.230960423
22.8997573,-1.137787223,-5.492125988,-1.718046665,5.865977495
22.90206287,-1.104287624,-5.499902725,-1.135394335,5.723416937
22.90439428,-1.04685986,-5.584847927,-0.8530412912,5.745791623
22.90671277,-0.8907282352,-5.705685616,-0.9272187948,5.848758828
22.90901834,-0.6257231236,-5.882754326,-1.305284739,6.058225494
22.9113497,-0.2267199457,-6.157928944,-1.972284079,6.470038276
22.91366819,0.2386840582,-6.518647194,-2.933600664,7.15232439
22.91597376,0.6897311211,-6.879963398,-3.972085476,7.974151265
22.91830517,1.082752228,-7.179664135,-4.963312149,8.795134846
22.92062366,1.56191504,-7.890930653,-5.965306759,10.01455191
22.92292918,2.102692842,-8.628518105,-6.674778938,11.10969467
22.92526058,2.654836655,-9.355937004,-7.189833641,12.09443767
22.92757907,3.166302681,-10.0265255,-7.523632526,12.92910409
22.92988464,3.329612732,-10.53200912,-7.795217991,13.51942901
22.93221605,3.44446826,-11.03450203,-8.03928566,14.08029512
22.93453454,3.512065411,-11.61835003,-8.029116631,14.55291636
22.93684006,3.625724554,-12.19681549,-7.842476368,14.94699375
22.93917147,3.766901016,-12.78365517,-7.460222721,15.27305817
22.94148996,3.977469444,-13.34895897,-6.853642464,15.52376835
22.94379553,4.16710043,-14.05902958,-6.150152206,15.90111351
22.94612694,4.262215137,-14.78046513,-5.575874805,16.36212111
22.94844537,4.19282341,-15.37268925,-5.062016487,16.71895193
22.95075095,4.209573269,-16.00439453,-4.499104977,17.14943431
22.95308235,4.313661098,-16.68814278,-3.945166349,17.68236746
22.95540084,4.445266247,-17.17328835,-3.296113253,18.04290961
22.95770636,4.557728767,-17.33241081,-2.516651154,18.09748295
22.96003782,4.680361271,-17.46820259,-1.917847395,18.18576427
22.96235626,4.714458942,-17.58724594,-1.583450437,18.27688864
22.96466183,4.713262558,-17.62014771,-1.382453322,18.29195523
22.96699324,4.729413986,-17.53340721,-1.268794179,18.20432816
22.96931173,4.471587181,-17.21277046,-1.645065546,17.86003358
22.97161725,4.161716938,-16.58226013,-1.967498422,17.20936632
22.97394866,3.885345697,-15.83031654,-2.084746838,16.43292434
22.97626714,3.582653761,-15.0161581,-2.097907305,15.5795259
22.97857272,3.300300598,-14.24985695,-2.063211441,14.77183971
22.98090412,3.034697294,-13.61157131,-1.913061738,14.07636553
22.98322256,2.676970243,-12.94337559,-1.80658114,13.34019778
22.98552813,2.365903378,-12.34038448,-1.832902193,12.69811476
22.98785954,2.050050735,-11.81934738,-1.586441398,12.10026764
22.99017803,1.73898387,-11.29292679,-1.407577872,11.51240791
22.9924836,1.425524116,-10.82991505,-1.308275819,11.0013983
22.99481501,1.068993568,-10.31426239,-1.277169108,10.44786662
22.99713345,0.8195417523,-9.772287369,-1.125823021,9.871004335
22.99943902,0.6179464459,-9.449854851,-0.8434699774,9.507526288
23.00177042,0.4594219327,-9.299705505,-0.6077769399,9.330861901
23.00408892,0.2925225794,-9.173483849,-0.3954139352,9.186660305
23.00639449,0.1890329868,-9.113064766,-0.1728814393,9.116664461
23.00872584,0.06221338734,-9.043673515,-0.002392822644,9.043887819
23.01104433,0.002392822644,-9.198010445,0.2129612118,9.200475767
23.01334991,-0.1591227055,-9.245268822,0.2644068897,9.250417646
23.01568131,-0.3403790295,-9.206384659,0.128614217,9.213572488
23.0179998,-0.643071115,-9.117850304,0.08733802289,9.140916942
23.02030532,-0.9056833982,-9.061619759,-0.01555334684,9.106780824
23.02263673,-1.166501045,-9.111269951,-0.08015955985,9.185988807
23.02495522,-1.397408366,-9.193224907,-0.1196411327,9.299593987
23.02726079,-1.765304923,-9.332008362,-0.2362912297,9.500448152
23.0295922,-2.056032896,-9.613164902,-0.5324030519,9.844981651
23.03191069,-2.236690998,-10.06959629,-0.8931210637,10.3536091
23.03421621,-2.34676075,-10.51406288,-1.196411371,10.83901308
23.03654761,-2.48733902,-10.81555843,-1.17068851,11.15946554
23.0388661,-2.703889608,-10.99801064,-0.9284151793,11.3635035
23.04117168,-2.924627542,-11.16610718,-0.8673982024,11.57530887
23.04350308,-3.027518749,-11.06740284,-0.8213363886,11.5033851
23.04582152,-2.916252613,-10.81017494,-0.6502495408,11.2154909
23.04814001,-2.556730986,-10.57507992,-0.3912265003,10.88679231
23.0504585,-2.038684845,-10.40399265,-0.1256231815,10.6025978
23.05277699,-1.50269258,-10.10369396,-0.07058826834,10.21507217
23.05509542,-0.9236295223,-9.624530792,-0.1836491376,9.670491791
23.05741392,-0.3810569942,-9.294919968,-0.4007977843,9.311357608
23.05973241,-0.05024927482,-8.927620888,-0.6388836503,8.950592831
23.06203798,0.24765715,-8.589634895,-0.9056833982,8.64079997
23.06436938,0.5252245665,-8.242077827,-0.9678967595,8.31531911
23.06668787,0.5832505226,-7.975875854,-0.7351947427,8.030895848
23.06899339,0.7339983582,-7.795815945,-0.993021369,7.893009013
23.0713248,0.8769695163,-7.542775154,-1.24666059,7.695238475
23.07364329,0.8841479421,-7.244868755,-1.320239902,7.417066419
23.07594886,0.8632107973,-6.851249218,-1.189232826,7.007069533
23.07828022,0.8380861282,-6.448657036,-1.121037364,6.598809794
23.08059871,0.8500502706,-6.053841114,-0.8853443861,6.177006749
23.08290428,0.8781659007,-5.726622581,-0.7304090858,5.839424541
23.08523569,0.9314061999,-5.562116146,-0.7405785918,5.687979446
23.08755418,0.8955138922,-5.630311489,-0.8213363886,5.759943234
23.0898597,0.8350951076,-5.722435474,-0.7304090858,5.828992111
23.0921911,0.8859425783,-5.730810165,-0.4965106845,5.820103286
23.09450959,0.9272187948,-5.776872158,-0.1477568001,5.852676199
23.09682808,0.9284151793,-5.718846321,0.1196411327,5.794952285
23.09914657,0.9463613629,-5.727818966,0.3343969584,5.815095121
23.10146501,0.9786644578,-5.740979671,0.5060819983,5.845746376
23.1037835,1.03549397,-5.787639618,0.6598208547,5.916450259
23.10610199,1.028913736,-5.879165173,0.6029912829,5.998903657
23.10842048,1.042074203,-5.984449387,0.5132604837,6.096145457
23.11073897,0.9541380405,-6.19382143,0.2327020019,6.271200326
23.11305741,0.8787640929,-6.287739754,-0.1345962733,6.350276663
23.11537589,0.8847461939,-6.278168201,-0.3445664644,6.34955887
23.11769438,0.8985049129,-6.215955257,-0.5168496966,6.301788988
23.12001287,0.9272187948,-6.166902065,-0.6789634228,6.27306999
23.12233136,0.9810572863,-6.190232277,-0.7256234884,6.309356424
23.1246498,1.057627559,-6.385247231,-0.7190431952,6.512064294
23.12696829,1.131805062,-6.704689026,-0.6113662124,6.826976364
23.12928678,1.130010486,-7.060023308,-0.4414757788,7.163501495
23.13160527,1.086939692,-7.290930748,-0.2590230405,7.376055992
23.13392376,1.045663476,-7.436294556,-0.02931207791,7.509510505
23.1362422,0.9984052777,-7.49910593,0.190229401,7.567667413
23.13856069,0.9774680734,-7.494320393,0.394815743,7.568101575
23.14087918,0.9373882413,-7.466204643,0.5330012441,7.543672767
23.14319767,0.8596215248,-7.405786037,0.5557330847,7.476192564
23.14551616,0.7579265833,-7.345965385,0.5395814776,7.404647751
23.14783459,0.7268198729,-7.385447025,0.3918247223,7.431461599
23.15015308,0.733400166,-7.395018578,0.1728814393,7.433307713
23.15247157,0.6849454641,-7.329215527,0.0005982056609,7.361151464
23.15479006,0.6999006271,-7.295716286,-0.2003988922,7.331950404
23.15710855,0.7782655358,-7.308278561,-0.3906283081,7.359974405
23.15942699,0.7980063558,-7.423732281,-0.6424728632,7.494090105
23.16174548,0.8129615188,-7.221538544,-0.8153542876,7.312751054
23.16406397,0.970289588,-7.146164894,-1.033699393,7.285442266
23.16638246,1.089332461,-7.230511665,-1.347159147,7.43517195
23.16870095,1.188036442,-7.430910587,-1.726421595,7.720776792
23.17101938,1.329811215,-7.634898663,-2.119442701,8.03443295
23.17332496,1.444666624,-7.920841217,-2.426920414,8.409323988
23.17565636,1.575075507,-8.124231339,-2.586043119,8.670156672
23.17797485,1.645065546,-8.266604424,-2.556132793,8.807769536
23.18029334,1.672582984,-8.438887596,-2.41136694,8.93459838
23.18261178,1.620539188,-8.69910717,-2.199602127,9.118051455
23.18493027,1.501496196,-8.821140289,-1.808973908,9.129041211
23.18724876,1.335793257,-8.838488579,-1.333400369,9.037764133
23.18956725,1.141376376,-9.034101486,-0.7800601721,9.139268218
23.19188574,0.9170492887,-9.220742226,-0.1369891018,9.267245146
23.19419126,0.6646065116,-9.446265221,0.4492524564,9.480266674
23.19652266,0.3158525825,-9.732806206,0.9391828775,9.783115249
23.19884116,-0.06819544733,-10.14377308,1.363908887,10.2352836
23.20114673,-0.456430912,-10.55115128,1.725823283,10.70110221
23.20347813,-0.8584251404,-10.92562866,1.948953986,11.13124777
23.20579657,-1.267597795,-11.16012478,2.018944025,11.41189398
23.20810214,-1.636092424,-11.31805134,2.040479422,11.61630926
23.21043355,-1.924427629,-11.40658569,1.952543259,11.7314127
23.21275204,-2.075773716,-11.39581776,1.784447432,11.71997233
23.21505756,-2.098505497,-11.35394382,1.497906923,11.6430018
23.21738897,-1.983649969,-11.27916813,1.231107235,11.51825186
23.21970746,-1.780260086,-11.14576817,1.00737834,11.33191445
23.22202595,-1.45483613,-10.95075321,0.837487936,11.07867005
23.22434444,-1.031306505,-10.69172955,0.6963114142,10.76389908
23.22666293,-0.5216353536,-10.44407272,0.5700899959,10.47261959
23.22898136,0.05024927482,-10.18624592,0.4205385745,10.19504701
23.23129985,0.6364908218,-9.956535339,0.2859423161,9.980955843
23.23361834,1.310668588,-9.801599503,0.2003988922,9.890872796
23.23592392,1.890928149,-9.711270332,0.156729877,9.894894895
23.23825532,2.404188633,-9.814760208,0.1004985496,10.10543126
23.24057376,2.792423964,-9.901499748,0.166301176,10.28907114
23.24287933,3.198605776,-9.747760773,0.2261217386,10.26162999
23.24521074,3.54018116,-9.705886841,0.2715853751,10.33493496
23.24752923,3.7710886,-9.772886276,0.2548356056,10.47832795
23.24983475,3.915854216,-9.851250648,0.2524427772,10.60399835
23.25216616,4.012165546,-10.06959629,0.2356930375,10.84203823
23.25448464,4.058227062,-10.40877819,0.3481557071,11.17734685
23.25679022,4.004388809,-10.96750259,0.5898307562,11.69055787
23.25912162,3.829114437,-11.4699955,0.8685946465,12.1234224
23.26144006,3.642474174,-11.87797165,1.156929731,12.47767266
23.26374563,3.515654564,-12.23988628,1.453639746,12.81747681
23.26607704,3.45583415,-12.56291676,1.670190215,13.13617914
23.26839553,3.465405464,-12.82134151,1.886740685,13.41475396
23.27070105,3.465405464,-13.00439262,1.926222205,13.59535195
23.27303246,3.463012457,-13.10070419,1.898106575,13.68297169
23.27535095,3.470191002,-13.33101273,1.737787485,13.88445286
23.27765652,3.343371391,-13.74198055,1.701296926,14.24480863
23.27998792,3.388834953,-13.2275238,1.445264935,13.73100066
23.28230636,3.531806231,-13.12881947,1.135992527,13.64294817
23.28462485,3.62452817,-13.12283802,0.8410771489,13.6401427
23.28694334,3.774079561,-13.12881947,0.6323033571,13.67513746
23.28926183,3.881756544,-13.20359516,0.5288137794,13.77253074
23.29158032,3.969692707,-13.23530006,0.4061816335,13.8237698
23.29389876,4.04147768,-13.25743389,0.4163511395,13.86601758
23.29621725,4.068994999,-13.40100288,0.4031906128,14.01093006
23.29853574,4.064209461,-13.26162148,0.6023930907,13.88348948
23.30085423,4.068396568,-12.95833111,0.8817551732,13.61057265
23.30317266,3.990629911,-12.79143143,1.075573802,13.44257059
23.30549116,3.863810301,-12.73639679,1.255633712,13.36867418
23.30780964,3.673580885,-12.5868454,1.319641709,13.17821414
23.31012813,3.465405464,-12.46720409,1.364507079,13.01161376
23.31244662,3.160918713,-12.30628681,1.360319614,12.77836342
23.31476506,2.847458839,-12.20339584,1.352542996,12.60397812
23.31708355,2.49332118,-12.14417267,1.329811215,12.46859969
23.31940204,2.131406784,-12.15314579,1.30289197,12.40723075
23.32172053,1.774876237,-12.21416283,1.285543919,12.40921361
23.32403902,1.415952802,-12.34277725,1.28315115,12.48981783
23.32634454,1.076171994,-12.48993587,1.329213023,12.60648451
23.32867595,0.7585247755,-12.56411362,1.389033556,12.66340101
23.33099444,0.5120640397,-12.66580868,1.439880967,12.75767127
23.33330001,0.290129751,-12.74297714,1.438684583,12.82721541
23.33563142,0.0765703246,-12.78664589,1.44646132,12.86842751
23.33794991,-0.02811566554,-12.98166084,1.480558991,13.06584722
23.34025543,-0.2440679073,-13.14497089,1.594218135,13.24354033
23.34258683,-0.2225325108,-12.90867996,1.664208174,13.01741633
23.34490532,-0.02452643216,-12.83629704,1.707877159,12.94943889
23.34722381,0.2015953064,-13.06720448,1.621137381,13.16892402
23.34954225,0.4953143001,-13.50688553,1.493719578,13.59825324
23.35186074,0.8177471161,-13.93639755,1.399203062,14.03031205
23.35417923,1.161715388,-14.28395462,1.262213945,14.38659537
23.35649772,1.485344648,-14.57468319,1.042074203,14.68719025
23.35881621,1.771885157,-14.88515186,0.8087740541,15.01204311
23.36112173,2.088335991,-15.23390579,0.604187727,15.38824472
23.36345313,2.389233351,-15.5677042,0.4235295951,15.75567286
23.36577162,2.678166628,-15.83031654,0.342173636,16.05890971
23.3680772,2.990430117,-16.03430367,0.2129612118,16.31217088
23.3704086,3.294916868,-16.17129326,0.1160518974,16.50395925
23.37272704,3.543172121,-16.17488289,0.08494520187,16.55862678
23.37503261,3.753740549,-16.0259304,0.128614217,16.46018089
23.37736402,3.882952929,-15.72503185,0.2566302419,16.19937682
23.37968251,3.958925009,-15.38704586,0.3690928817,15.89246668
23.38200095,3.937987804,-14.97906971,0.4660021961,15.49507778
23.38431944,3.902095556,-14.54297829,0.5533402562,15.0675397
23.38663793,3.810570002,-14.16072464,0.6448656917,14.67863815
23.38895642,3.646661758,-13.76052475,0.7310073376,14.25428199
23.39127491,3.403790236,-13.3968153,0.7501499057,13.84280221
23.39359334,3.151945591,-13.07139206,0.7411768436,13.46645441
23.39589892,2.826521635,-12.80997562,0.5790630579,13.13088017
23.39823032,2.529213428,-12.64965725,0.2985046208,12.90348225
23.40054881,2.244467735,-12.59462166,-0.07716853172,12.79328281
23.4028673,2.009970903,-12.67238903,-0.3170489967,12.83471647
23.40518574,1.800000787,-12.84048462,-0.4079762697,12.9724513
23.40750423,1.58703959,-13.07199001,-0.484546572,13.17688897
23.40982272,1.361516118,-13.32263851,-0.6275177598,13.40672225
23.41214121,1.184447169,-13.61994648,-0.8273184299,13.6963613
23.4144597,0.9661021233,-13.80718517,-0.8805587292,13.86892568
23.41676522,0.7525427341,-13.90828133,-0.7004988194,13.94622919
23.41909662,0.5198407173,-13.90289783,-0.2829512656,13.91549007
23.42141511,0.2895315289,-13.86401463,0.3637090325,13.87180645
23.42372069,0.07118647546,-13.78624725,1.196411371,13.83824704
23.42605209,-0.1298106313,-13.68335629,2.133201361,13.84924684
23.42837053,-0.242273286,-13.48295784,3.056232691,13.82712576
23.4306761,-0.3098705411,-13.32921886,3.879961967,13.88589933
23.43300751,-0.3158525825,-13.1264267,4.551148891,13.89661099
23.435326,-0.3086741269,-12.99601841,5.036293507,13.94116303
23.43763152,-0.2931207716,-13.24068451,5.057230473,14.17664368
23.43996293,-0.2219343036,-13.50808239,4.835894585,14.34933522
23.44228142,-0.1262213886,-13.74198055,4.289732933,14.39651937
23.4445999,-0.004785645287,-13.96092415,3.562912941,14.40839251
23.44691839,0.04067798331,-14.13978767,2.586641312,14.37449002
23.44923683,0.08075776696,-14.20379543,1.37587297,14.2705064
23.4515424,0.1268195957,-14.13799286,0.1214357466,14.13908314
23.45387381,0.1986042857,-14.16251945,-1.07497561,14.2046462
23.4561923,0.3529413342,-14.41496181,-2.255235434,14.59458045
23.45849782,0.5485545993,-14.78704548,-3.443870068,15.19269124
23.46082923,0.7555337548,-15.21715546,-4.612165451,15.91869095
23.46314772,0.965503931,-15.64128304,-5.690132141,16.67211854
23.46545329,1.220937729,-15.99242973,-6.662814617,17.36783223
23.4677847,1.436291814,-16.36331749,-7.350152969,17.99571733
23.47010319,1.574477315,-16.7545433,-7.879564762,18.58174483
23.47240871,1.665404558,-17.23789406,-8.166703224,19.14715659
23.47474011,1.649851203,-17.67637825,-8.368897438,19.62688975
23.4770586,1.596012712,-18.14776421,-8.418548584,20.0688954
23.47936418,1.461416483,-18.48694801,-8.37428093,20.34776563
23.48169553,1.302293777,-18.68256187,-8.073982239,20.39419713
23.48401402,1.081555843,-18.79741669,-7.573882103,20.29473644
23.48631959,0.8279166222,-18.78306007,-6.903891563,20.02879204
23.488651,0.561715126,-18.68196297,-6.134000778,19.67122848
23.49096949,0.2327020019,-18.43310928,-5.175076962,19.14719535
23.49327501,-0.03708875179,-18.11606026,-4.058825493,18.56521153
23.49560642,-0.3248256743,-17.88515282,-2.818146944,18.10873146
23.4979249,-0.6000002623,-17.65843201,-1.377069473,17.72220476
23.50023048,-0.890130043,-17.53819275,0.003589233849,17.56076733
23.50256183,-1.200598717,-17.56690788,1.35074842,17.65962092
23.50488032,-1.450050473,-17.85404587,2.495713949,18.08585603
23.50718589,-1.635494232,-18.04786491,3.625724554,18.48096718
23.5095173,-1.798804402,-18.12682724,4.636094093,18.79656701
23.51183579,-1.980060697,-18.19203186,5.483751297,19.10346021
23.51414131,-2.042274237,-18.24946022,6.251847267,19.3984349
23.51647272,-2.031506538,-18.25843239,6.743572235,19.5696995
23.51879121,-1.996212244,-18.16092491,6.800402164,19.49485898
23.52109678,-2.028515339,-18.00000763,6.145366669,19.12800775
23.52342819,-2.139781713,-17.87438583,5.327619553,18.77380795
23.52574662,-2.471785784,-17.69312859,3.926023722,18.29125984
23.5280522,-2.806781054,-17.32403564,2.164308071,17.68288609
23.5303836,-3.125026464,-16.8544445,0.4648058116,17.14800672
23.53270209,-3.379263878,-16.30230141,-1.205982566,16.69247883
23.53500761,-3.693919897,-15.84706593,-3.324826956,16.60810094
23.53733902,-3.89730978,-15.33739471,-5.305486202,16.69050281
23.53965751,-4.214358807,-14.81934929,-7.301100254,17.04934012
23.54196308,-4.372285366,-14.31745434,-8.904291153,17.41817381
23.54429449,-4.43808794,-13.84008598,-9.952945709,17.61549695
23.54661292,-4.320241451,-13.43031502,-10.53260708,17.60606883
23.5489185,-3.994219303,-13.13001633,-10.57448101,17.32543694
23.55124991,-3.567698479,-13.133605,-10.13180923,16.96683857
23.55356839,-2.956332445,-13.34895897,-9.576076508,16.69238894
23.55587392,-2.419143677,-13.58405399,-8.491529465,16.20138425
23.55820532,-2.11645174,-13.45005608,-7.478767395,15.53432773
23.56052381,-1.797009826,-13.01336575,-6.443871498,14.63217046
23.56282938,-1.468594909,-12.53300667,-5.480760098,13.75760729
23.56516079,-1.105484009,-11.90847969,-4.609772682,12.81733153
23.56747928,-0.9403793216,-11.32642555,-3.863212109,12.00402586
23.5697848,-0.8494520187,-10.71924686,-3.533002615,11.318389
23.57211621,-0.9122636318,-10.16650486,-2.831905603,10.59290967
23.5744347,-1.009172916,-9.716654778,-2.316252232,10.03976267
23.57674027,-0.9786644578,-9.31166935,-2.060818434,9.58707165
23.57907162,-1.012762189,-8.919246674,-2.049452543,9.207546047
23.58139011,-0.9714859724,-8.812766075,-2.226521492,9.141445665
23.58369569,-0.8009973764,-8.73200798,-2.331207514,9.073262293
23.58602709,-0.6903293133,-8.599804878,-2.297109842,8.928040778
23.58834553,-0.5581258535,-8.356334686,-2.288136721,8.681900916
23.5906511,-0.3529413342,-8.121239662,-2.422134638,8.482089214
23.59298251,-0.1776670814,-7.974081516,-2.784049034,8.447986189
23.595301,-0.04127619043,-7.793423176,-3.156133175,8.408348538
23.59760657,0.03290131316,-7.591229916,-3.562314749,8.385579318
23.59993793,0.08554340899,-7.590631485,-4.15334177,8.653048704
23.60225642,0.1190429255,-7.735397339,-4.963312149,9.191572809
23.60456199,0.1106680483,-7.833503246,-5.954539299,9.840353591
23.60689339,0.1465603858,-7.71864748,-6.646663189,10.18710609
23.60921188,0.4737788737,-7.498507977,-5.925227165,9.568720147
23.61153032,0.8333004713,-7.253243446,-5.155934811,8.937986011
23.61384881,0.980459094,-6.941578388,-4.865804672,8.533631446
23.6161673,1.100698471,-6.620940208,-4.24666214,7.942450862
23.61847287,1.201196909,-6.421139717,-3.746562004,7.530646462
23.62080428,1.313659668,-6.028716564,-3.600599766,7.14390956
23.62312272,1.43808639,-5.665606022,-3.602394581,6.866180217
23.62542829,1.500299811,-5.50109911,-3.564707518,6.724591484
23.6277597,1.532004714,-5.485546112,-3.455235958,6.661599667
23.63007819,1.476371527,-5.419145107,-3.202793121,6.465654673
23.63238371,1.425524116,-5.381458282,-2.936591625,6.294106976
23.63471511,1.402194023,-5.319244862,-2.612962246,6.089998824
23.6370336,1.440479279,-5.250451088,-2.245065928,5.889188246
23.63933918,1.606182218,-5.289334297,-1.976471543,5.870546685
23.64167058,1.661815286,-5.249254704,-1.890329838,5.821481932
23.64398902,1.666600943,-5.100301266,-1.791625977,5.656903335
23.64630751,1.740180254,-4.843072891,-1.688136339,5.416030525
23.648626,1.837687731,-4.548157692,-1.655833244,5.177317676
23.65094449,1.743171334,-4.162314892,-1.935793519,4.910275767
23.65325006,1.589432478,-3.68075943,-2.131406784,4.540614547
23.65558142,1.545763373,-3.204587698,-1.229312658,3.764302901
23.6578999,1.520040631,-2.912065268,-0.7495517135,3.369343469
23.66020548,1.405783296,-2.740978241,-0.694516778,3.157774841
23.66253688,1.225125194,-2.664407969,-1.049850941,3.114833633
23.66485537,1.071386337,-2.510071039,-1.400997639,3.067754829
23.66716089,0.9643075466,-2.349751949,-1.641476393,3.024180553
23.6694923,0.8333004713,-2.190030813,-1.905883193,3.02043298
23.67181079,0.626919508,-1.95015049,-2.004587173,2.866092242
23.67411636,0.404387027,-1.686341763,-1.808375716,2.505493991
23.67644772,0.2691925466,-1.496710539,-1.653440475,2.246435503
23.67876621,0.1268195957,-1.375274777,-1.479362607,2.02385218
23.68107178,-0.005383851007,-1.286740422,-1.347757339,1.863378584
23.68340319,-0.2099701911,-1.156929731,-1.259821177,1.723288508
23.68572168,-0.3894318938,-1.064806104,-1.17068851,1.62971802
23.68804011,-0.5413761139,-0.9672985673,-1.025324464,1.509981745
23.6903586,-0.6957131624,-0.8895317912,-1.041476011,1.536214794
23.69267709,-0.8303094506,-0.8350951076,-1.085743308,1.60176033
23.69499558,-1.00737834,-0.7914260626,-1.178465128,1.740674119
23.69731407,-1.217348576,-0.7010970116,-1.44347024,2.014219677
23.69963251,-1.478166223,-0.6502495408,-1.761117458,2.389421384
23.70193808,-1.743769526,-0.6376872063,-2.082952023,2.790352355
23.70426949,-1.910070658,-0.613160789,-2.218146563,2.990737408
23.70658798,-2.034497499,-0.6251249313,-2.176272154,3.044030509
23.70890642,-2.160120726,-0.7196413875,-2.214557409,3.176203677
23.7112249,-2.266601324,-0.8231309652,-2.281556368,3.3197177
23.71354339,-2.401197433,-0.941575706,-2.339582443,3.482234905
23.71586188,-2.502892494,-1.068993568,-2.353939295,3.598367448
23.71818037,-2.644068956,-1.153340459,-2.273181438,3.672689575
23.72049881,-2.72961235,-1.246062398,-2.077568293,3.649622596
23.7228173,-2.784049034,-1.396211982,-1.972284079,3.686494461
23.72513579,-2.92941308,-1.466800332,-2.068595171,3.874538707
23.72745428,-2.888735056,-1.60977149,-1.861616015,3.794966227
23.72977277,-2.686541557,-1.782652855,-1.567897081,3.585199855
23.73209121,-2.420938253,-2.069193363,-1.568495274,3.55002544
23.7344097,-2.338984251,-2.316850424,-1.441675663,3.594032823
23.73672819,-2.236092806,-2.318645239,-1.177866936,3.429810097
23.73904668,-2.048256159,-2.303689957,-0.8572286963,3.199559618
23.74136511,-1.85443759,-2.341975212,-0.5736792088,3.041857081
23.74367069,-1.641476393,-2.398804665,-0.1471585929,2.910389015
23.74600209,-1.408774376,-2.488535643,0.3326023519,2.878902432
23.74832058,-1.141974568,-2.615953445,0.7794619799,2.958864532
23.7506261,-0.8997012973,-2.714657307,1.202393413,3.102350179
23.75295751,-0.656829834,-2.852842808,1.710868239,3.390753257
23.755276,-0.3529413342,-3.142374277,2.274377823,3.895109519
23.75758157,-0.1256231815,-3.293720484,3.011367321,4.464606248
23.75991298,0.04426721856,-3.273979664,3.752544165,4.980209848
23.76223142,0.2590230405,-3.334996462,4.518247128,5.621730289
23.76453699,0.394815743,-3.455235958,5.254638672,6.301250873
23.76686839,0.4869394004,-3.567100286,6.034100533,7.026498678
23.76918688,0.5545366406,-3.645465374,6.803392887,7.738416082
23.7714924,0.5084748268,-3.755535126,7.561319351,8.457904058
23.77382381,0.4169493318,-3.948755503,8.292326927,9.193976432
23.7761423,0.3349951804,-4.271188259,8.899505615,9.877067941
23.77844787,0.1926222295,-4.518247128,9.577272415,10.5913081
23.78077928,-0.08913264424,-4.869394302,10.2406826,11.33977626
23.78309772,-0.5401797295,-5.311468124,10.77428246,12.02450208
23.78540329,-1.024128079,-5.820540905,11.56092262,12.98393109
23.7877347,-1.684547186,-6.387042046,12.4558382,14.09893296
23.79005319,-2.593221426,-6.944569588,13.41117287,15.32355709
23.79235871,-3.672982693,-7.534998417,14.40180111,16.66369942
23.79469011,-4.957928658,-8.235497475,15.08315754,17.88591951
23.7970086,-6.070590973,-8.961718559,15.81775379,19.16678923
23.79931418,-7.093522549,-9.729815483,16.21496201,20.19684045
23.80164558,-8.003992081,-10.56311512,15.85065556,20.66123355
23.80396407,-8.635697365,-11.46700478,15.42712593,21.07281856
23.80626959,-8.932407379,-12.38405323,14.41974735,21.00194728
23.808601,-8.958727837,-13.30947781,12.88535023,20.57749388
23.81091949,-8.562117577,-14.14337635,11.30189991,20.02692921
23.81322506,-7.546962738,-14.89053535,9.708877563,19.31183557
23.81555642,-5.91266489,-15.79681683,8.136793137,18.72715757
23.8178749,-4.079164505,-16.64925957,7.013961315,18.52115225
23.82018048,-2.390429735,-17.50409508,6.285944939,18.75154934
23.82251188,-1.270588875,-17.94377708,6.075376511,18.98693582
23.82483032,-0.6562315822,-18.2847538,6.049654007,19.27073364
23.82713589,-0.5216353536,-18.43430519,6.390631199,19.5175787
23.8294673,-0.8709874153,-18.43789482,6.583253384,19.59729087
23.83178579,-1.527817249,-18.17408562,6.747759819,19.44643608
23.83409131,-2.0769701,-17.67817307,6.98704195,19.12198638
23.83642272,-2.461018085,-17.07637787,7.17009306,18.68340241
23.83874121,-2.595614433,-16.31605911,7.201199532,18.02243807
23.8410597,-2.388635159,-15.39003658,6.920042992,17.04247045
23.84337819,-2.045265198,-14.34497166,6.50010252,15.88120444
23.84569662,-1.666600943,-13.2275238,6.128018856,14.67302149
23.8480022,-1.312463164,-12.08136177,5.908477306,13.51265947
23.8503336,-1.151545882,-10.90110207,5.786443233,12.39528174
23.85265209,-1.141974568,-9.781859398,5.711667538,11.38472772
23.85495761,-1.077966571,-8.839086533,5.924628735,10.69545176
23.85728902,-1.153340459,-7.975875854,6.051448345,10.07793714
23.85960751,-1.589432478,-7.01575613,6.097510338,9.430098727
23.86191308,-1.944766641,-6.241079807,6.246463299,9.04165351
23.86424449,-2.236092806,-5.64167738,6.740581512,9.069954455
23.86656292,-2.651845694,-5.170889854,7.110272408,9.182938592
23.8688685,-3.051447153,-4.800002098,7.514061451,9.424036787
23.8711999,-3.46959281,-4.554738045,7.780262947,9.660031286
23.87351839,-3.884747505,-4.410570145,7.866404533,9.81960857
23.87582392,-4.174877167,-4.259224415,7.872386456,9.876490292
23.87815532,-4.329812527,-4.176073551,7.904091358,9.932850901
23.88047381,-4.620540619,-4.183252335,7.906484127,10.06784421
23.88277938,-4.870590687,-4.140779495,8.036892891,10.26938926
23.88511079,-5.056034088,-4.307679176,8.494520187,10.78315602
23.88742923,-5.250451088,-4.527220249,9.057432175,11.40614034
23.8897348,-5.444269657,-4.895715237,9.420542717,11.93124993
23.89206621,-5.647061348,-5.38564539,9.608379364,12.37802214
23.8943847,-5.850451469,-6.043671608,9.168100357,12.44217879
23.89669022,-6.216553211,-6.923632145,8.198408127,12.40145603
23.89902162,-6.282954216,-7.801798344,6.844669342,12.13231509
23.90134011,-6.085546017,-8.684151649,5.24506712,11.83043065
23.90364569,-5.568696499,-9.41336441,3.871587038,11.60219791
23.90597704,-5.140381336,-9.815358162,2.246860504,11.30544817
23.90829553,-4.680959225,-10.36451149,0.3230310678,11.37711856
23.9106011,-4.081557274,-11.01595688,-1.045065284,11.79417556
23.91293251,-3.810570002,-11.44307613,-1.884347796,12.20717829
23.915251,-3.826123476,-11.93420315,-1.971685886,12.68668479
23.91755652,-3.949353695,-12.5306139,-1.258026481,13.19834497
23.91988792,-4.582853794,-13.01875019,0.2195414752,13.80357214
23.92220642,-5.491528034,-13.67019558,2.056631088,14.87483979
23.92451199,-6.471388817,-14.31326675,4.419543266,16.31811389
23.92684339,-7.286743164,-15.01974773,6.716653347,17.99452361
23.92916183,-7.578667641,-15.53719521,8.563314438,19.29173378
23.93146741,-7.690532207,-15.87817287,9.948160172,20.25405022
23.93379881,-7.649854183,-16.00559044,10.67498016,20.70397053
23.9361173,-7.37288475,-15.97986794,10.54816055,20.51778009
23.93842282,-6.931408882,-15.78425503,9.582057953,19.72315823
23.94075423,-6.342774391,-15.37029648,7.93878746,18.4255569
23.94307272,-5.693123341,-14.78225994,5.950950146,16.92160365
23.94537829,-5.026721954,-14.05065441,3.676572084,15.36899493
23.9477097,-4.305884361,-13.23530006,1.506281853,13.99938188
23.95002813,-3.718446493,-12.30748367,-0.4079762697,12.86341492
23.95233371,-3.364308596,-11.21157074,-1.743769526,11.83463658
23.95466511,-3.281756163,-10.16411209,-2.408974171,10.94907552
23.9569836,-3.489931822,-9.23270607,-2.618346214,10.21167089
23.95928912,-3.921836376,-8.45085144,-2.556132793,9.66082323
23.96162053,-4.168296814,-7.278966427,-2.33300209,8.706374063
23.96393902,-4.05224514,-5.994618893,-2.599203587,7.688433236
23.96624459,-3.940380573,-5.28155756,-2.798406124,7.159086964
23.96857595,-3.609572887,-4.870590687,-3.084946632,6.802100102
23.97089444,-3.16570425,-4.442873478,-3.341576815,6.397416959
23.97320001,-2.669791937,-4.095315933,-3.32063961,5.909826478
23.97553142,-2.089532375,-3.716053486,-3.113062143,5.278859249
23.97784991,-1.524227977,-3.39960289,-2.557329178,4.518905095
23.98015543,-1.057627559,-3.410968781,-1.837687731,4.016264467
23.98248683,-0.6346961856,-3.6299119,-0.9828519225,3.813803554
23.98480532,-0.3595215976,-4.10309267,-0.352343142,4.133856666
23.98711084,-0.2069791555,-4.765904427,0.05024927482,4.770661418
23.98944225,-0.09032905847,-5.556134224,-0.0382851623,5.557000325
23.99176074,0.1058823988,-6.387639999,-0.4223332107,6.402462119
23.99406631,0.3349951804,-7.12762022,-1.053440213,7.212830794
23.99639772,0.6903293133,-7.8370924,-2.032702923,8.125789378
23.99871616,1.159322619,-8.433503151,-3.236292601,9.107227576
24.00102173,1.692323804,-9.057432175,-4.696512699,10.34206309
24.00335313,2.28215456,-9.603593826,-6.289534092,11.70450695
24.00567162,2.846262455,-10.12582684,-7.78325367,13.08482391
24.0079772,3.511467218,-11.04467106,-9.245268822,14.82532146
24.01030855,3.463610888,-11.52861977,-10.61575794,16.04992183
24.01262704,3.252444267,-11.79960632,-11.34556866,16.68924897
24.01493261,3.231507063,-12.13101292,-11.28096199,16.87792095
24.01726402,3.198605776,-12.50010586,-10.70608711,16.76615718
24.01958246,3.121437073,-12.88953781,-9.902696609,16.55134298
24.02188803,3.142374277,-13.28136253,-8.826524734,16.2535118
24.02421944,3.025724173,-13.49791241,-7.819146156,15.88986132
24.02653793,2.84805727,-13.61097336,-6.809374809,15.48346251
24.02884345,2.632104874,-13.83948803,-5.836094379,15.2485869
24.03117485,2.447259426,-13.99083424,-4.892126083,15.02216426
24.03349334,2.251646042,-14.13320732,-3.77647233,14.80132434
24.03579892,2.133201361,-14.27857113,-2.765504837,14.69952919
24.03813032,1.878365755,-14.29711533,-1.822732687,14.53472115
24.04044876,1.655833244,-14.2624197,-1.042672515,14.39602603
24.04275433,1.469193101,-14.39043522,-0.4905286431,14.47355425
24.04508574,1.351944804,-14.57528114,-0.1082752272,14.6382478
24.04740423,1.260419369,-14.62014675,0.1154536903,14.67483143
24.04970975,1.144965649,-14.43530083,0.2470589429,14.48274471
24.05204116,1.0863415,-14.16790295,0.1728814393,14.21054185
24.05435964,1.022931695,-13.87179089,-0.02512463741,13.90947889
24.05666522,1.003190875,-13.56072426,-0.352343142,13.60234465
24.05899662,1.06660068,-13.15155125,-0.6885347366,13.21268395
24.06131506,1.130010486,-12.77109241,-0.9625129104,12.85706639
24.06363355,1.1820544,-12.5060873,-1.135992527,12.61308651
24.06595204,1.348355532,-12.27697468,-1.246062398,12.41349433
24.06827053,1.478764415,-12.13938713,-1.317847013,12.29992621
24.07058897,1.564906001,-11.96471119,-1.318445325,12.13843247
24.07290746,1.60678041,-11.73260784,-1.348355532,11.91863636
24.07522595,1.682154298,-11.56271744,-1.181456208,11.7440162
24.07754444,1.707877159,-11.51366425,-0.9810572863,11.6809153
24.07986287,1.566102386,-11.38265705,-0.9403793216,11.5283074
24.08218136,1.460219979,-11.17866898,-0.9140582681,11.3106315
24.08449985,1.368096352,-11.0123682,-0.6442674994,11.11571058
24.08681834,1.319641709,-10.76291656,-0.2081755698,10.84551356
24.08913678,1.307677627,-10.46381378,0.3960121572,10.55264162
24.09145527,1.201196909,-10.54816055,0.2380858511,10.61900419
24.09377376,0.9601200819,-10.36271667,-0.008374879137,10.40710323
24.09609225,0.7435696125,-10.04148006,-0.237487644,10.07177333
24.09839777,0.5497509837,-9.781859398,-0.1980060786,9.799296191
24.10072918,0.3577269912,-9.570094109,-0.08673982322,9.57717044
24.10304767,0.1812563092,-9.443872452,0.1064806059,9.446211879
24.10536616,0.06460621208,-9.407979965,0.2291127741,9.410991109
24.10768464,-0.109471634,-9.296713829,0.2219343036,9.300006822
24.11000308,-0.2871387303,-9.243474007,0.1866401732,9.24981594
24.11232157,-0.4761717021,-9.267401695,-0.0005982056609,9.279626826
24.11464006,-0.6071787477,-9.357132912,-0.0580259487,9.376991488
24.11695855,-0.6526423693,-9.406186104,-0.1543370634,9.430063574
24.11927699,-0.665802896,-9.435498238,-0.2015953064,9.461107819
24.12159548,-0.6448656917,-9.497711182,-0.2201396823,9.522123236
24.12391397,-0.5946164131,-9.602396965,-0.2380858511,9.623735295
24.12623246,-0.3876372576,-9.64068222,-0.2739782035,9.652361389
24.12855089,-0.3020938635,-9.739984512,-0.4827519655,9.7566187
24.13086938,-0.1447657645,-9.987043381,-0.9272187948,10.0310382
24.13317496,0.1806581169,-10.32622623,-1.728216171,10.47140472
24.13550636,0.4767699242,-10.78744221,-2.709871531,11.13281737
24.13782485,0.6544370055,-10.98126125,-3.45583415,11.53079252
24.14013037,0.6496513486,-10.88614655,-3.762115479,11.53619289
24.14246178,0.650847733,-10.61157036,-3.649652719,11.2405068
24.14478027,0.7890332937,-10.46859932,-3.381656647,11.02949441
24.14709876,0.9236295223,-10.29212856,-2.94317174,10.7444526
24.1494172,1.050449133,-10.0331049,-2.29052949,10.34471665
24.15173569,1.118644595,-9.598209381,-1.520638824,9.782092388
24.15405418,1.068993568,-9.175278664,-0.8273184299,9.274316233
24.15637267,1.127617717,-8.831908226,-0.3194418252,8.909330374
24.1586911,1.395015597,-8.613563538,0.1112662554,8.726507063
24.16099668,1.679163337,-8.519644737,0.6711867452,8.709444736
24.16332808,1.965105653,-8.449654579,1.088136077,8.743131181
24.16564657,2.205584288,-8.371290207,1.180259824,8.737054139
24.16795209,2.515454769,-8.268997192,0.8626125455,8.686076656
24.1702835,2.76371026,-8.186444283,0.5682953596,8.65903713
24.17260199,2.916850805,-8.097311974,0.1543370634,8.608036928
24.17492048,2.961716175,-8.005785942,-0.3182454109,8.541993409
24.17723897,2.928814888,-7.791030407,-0.5443671346,8.341129841
24.1795574,2.736790895,-7.55593586,-0.5431707501,8.054640003
24.18187589,2.562114954,-7.300501823,-0.4127618968,7.748040546
24.18419438,2.433500528,-7.110870838,-0.4438686073,7.528839767
24.18651287,2.239083767,-6.928418159,-0.6137589812,7.307063322
24.18883131,1.984846354,-6.771687984,-0.9032905698,7.114162429
24.1911498,1.764108539,-6.647859573,-1.235892892,6.988100392
24.19346829,1.469193101,-6.535995007,-1.697109461,6.910711947
24.19578678,1.094118118,-6.324230194,-1.954337835,6.70912948
24.19810522,0.7465606928,-6.144768715,-1.992024899,6.502591685
24.20042371,0.4271188378,-6.046064377,-1.805384636,6.324297481
24.20272928,0.1292124242,-6.216553211,-1.572682738,6.413701012
24.20506069,-0.05563312769,-6.532405853,-1.271785259,6.65528805
24.20737912,-0.2051845491,-6.765706062,-0.8560323119,6.822731897
24.2096847,-0.409172684,-6.74536705,-0.4767699242,6.774563343
24.2120161,-0.7118647099,-6.747759819,-0.2458625287,6.789658484
24.21433459,-1.066002488,-6.769893646,-0.004785645287,6.853308996
24.21664011,-1.387238979,-6.805187702,0.3547359705,6.954196521
24.21897152,-1.670190215,-6.864409924,0.6675975323,7.096150042
24.22129001,-1.905883193,-7.022934437,0.9098708034,7.333611916
24.22359558,-2.054238319,-7.232904434,1.043270707,7.590995679
24.22592699,-2.250449657,-7.434499741,1.186840057,7.857792271
24.22824542,-2.379662037,-7.671987534,1.415952802,8.15641505
24.230551,-2.578266382,-7.983652592,1.640878081,8.548604981
24.2328824,-2.686541557,-8.335995674,1.919043779,8.96599456
24.23520084,-2.832503796,-8.680562019,2.221137524,9.397270169
24.23750642,-2.971287489,-8.92283535,2.54117775,9.741823463
24.23983782,-3.14895463,-9.171689034,2.860619545,10.11033823
24.24215631,-3.28414917,-9.332606316,3.070589542,10.3591359
24.24446188,-3.44985199,-9.38465023,3.059821844,10.4563688
24.24679324,-3.589233875,-9.339784622,3.048455954,10.45979256
24.24911173,-3.68674159,-8.91505909,3.120838881,10.1395255
24.25143022,-3.601198196,-8.69192791,3.062813044,9.894395534
24.25374866,-3.286541939,-8.61296463,2.793620348,9.632696003
24.25606714,-2.88993144,-8.523234367,2.405385017,9.315744999
24.25838563,-2.49332118,-8.374878883,1.835294962,8.928804759
24.26070412,-2.087139606,-8.188837051,1.127019525,8.525454651
24.26302261,-1.710269928,-7.965706348,0.3744767308,8.155840464
24.26532813,-1.265803218,-7.750352383,-0.4103690982,7.863753724
24.26765954,-0.87517488,-7.512266636,-1.210170031,7.659281466
24.26997803,-0.5084748268,-7.278368473,-1.861616015,7.529861119
24.2722836,-0.209371984,-7.061219692,-2.352144718,7.445619178
24.27461496,0.02273181453,-6.912266254,-2.684746981,7.415376447
24.27693345,0.1698904037,-6.827321053,-2.879761934,7.411761215
24.27923902,0.1992024779,-6.84646368,-2.941377163,7.454223378
24.28157042,0.1477568001,-6.924230576,-2.798406124,7.46979772
24.28388886,0.008374879137,-7.128218651,-2.545365095,7.569045828
24.28620735,-0.1806581169,-7.357929707,-2.048854351,7.639998107
24.28852584,-0.3846462369,-7.740781307,-1.485344648,7.891381165
24.29084433,-0.5928218365,-8.186444283,-0.8823533654,8.255171421
24.29316282,-0.851246655,-8.499305725,-0.3439682424,8.548750366
24.29548126,-1.022333503,-8.852845192,0.1441675574,8.912845677
24.29779975,-1.129412293,-9.243474007,0.484546572,9.324814702
24.30010532,-1.176670551,-9.705886841,0.7351947427,9.804555281
24.30243668,-1.17906332,-10.15214825,0.7722834945,10.24952321
24.30475517,-1.133001566,-10.42492962,0.5982056856,10.50336613
24.30706074,-1.008574724,-10.70608711,0.2673979402,10.756813
24.30939214,-0.8075776696,-10.99980545,-0.06699903309,11.02961425
24.31171063,-0.5688936114,-11.25404263,-0.4402793646,11.2770103
24.31401616,-0.2781656384,-11.49272728,-0.7603194118,11.52120836
24.31634756,0.07417750359,-11.57109165,-1.042672515,11.61821115
24.31866605,0.4743770957,-11.49512005,-1.311864972,11.5794563
24.32097157,0.9242277741,-11.29292679,-1.505085468,11.43020886
24.32330298,1.37048912,-10.9806633,-1.674975872,11.19190561
24.32562147,1.842473388,-10.57986546,-1.740778446,10.87927253
24.32792704,2.303091764,-10.12762165,-1.758724689,10.53404312
24.33025845,2.744567633,-9.695118904,-1.70548439,10.21942557
24.33257688,3.163311481,-9.314660072,-1.581057549,9.96339173
24.33488246,3.573680639,-9.021539688,-1.417149186,9.806512299
24.33721386,3.96789813,-8.834300995,-1.19581306,9.758025339
24.33953235,4.326223373,-8.720044136,-0.9828519225,9.783730184
24.34183787,4.609772682,-8.684151649,-0.8470591903,9.868232026
24.34416928,4.864608288,-8.793025017,-0.7106683254,10.07406334
24.34648777,5.073980331,-8.994620323,-0.6215356588,10.34576134
24.34879334,5.215157032,-9.293125153,-0.5324030519,10.66974653
24.3511247,5.315057278,-9.69452095,-0.409172684,11.06349821
24.35344319,5.344967365,-10.1401844,-0.2769692242,11.46598133
24.35574876,5.286941528,-10.52004433,-0.1507478207,11.77479547
24.35808016,5.224130154,-10.89631653,-0.01016949583,12.08392954
24.3603986,5.105685234,-11.18704414,0.1674975902,12.29821263
24.36270418,4.871188641,-11.3892374,0.3481557071,12.39211119
24.36503558,4.5930233,-11.56331539,0.509073019,12.45252108
24.36735407,4.309473515,-11.71346474,0.693320334,12.50030044
24.36967251,3.957728624,-11.81336498,0.8626125455,12.48852707
24.371991,3.543172121,-11.88993549,1.07497561,12.45312038
24.37430949,3.104687452,-11.96710396,1.262213945,12.42754382
24.37662798,2.766103029,-12.04666519,1.465005636,12.44667465
24.37894642,2.419143677,-12.12144089,1.596012712,12.46309921
24.38126491,2.148754835,-12.21416283,1.718046665,12.52016794
24.38357048,2.0769701,-13.12822151,1.738385677,13.40470028
24.38590188,1.774876237,-12.97687531,1.982453585,13.24687135
24.38822032,1.62652123,-12.57667542,1.968694806,12.83331972
24.39052589,1.529013634,-12.62692547,1.829911113,12.85012467
24.3928573,1.428515077,-12.74477196,1.663011789,12.93195561
24.39517579,1.397408366,-12.8129673,1.548754454,12.98166097
24.39749423,1.466202021,-13.0331068,1.44646132,13.19484262
24.39981272,1.484148264,-13.10967731,1.251446247,13.25263948
24.40213121,1.530210137,-13.19521999,1.080957651,13.32755954
