Time (s),Acceleration x (m/s^2),Acceleration y (m/s^2),Acceleration z (m/s^2),Absolute acceleration (m/s^2)
10.00022169,-0.9972088337,-5.532804012,0.5347958803,5.647331434
10.00254018,-1.087537885,-5.535196781,0.5198407173,5.664925103
10.00485867,-1.121037364,-5.550152302,0.5623133183,5.690088893
10.00717716,-1.158724308,-5.570491314,0.5623133183,5.717448012
10.0094956,-1.166501045,-5.834300041,0.6406782866,5.984166636
10.01181409,-1.147358418,-6.068796635,0.7950153351,6.227260498
10.01413253,-1.128814101,-6.082555294,0.8668000102,6.246842597
10.01645096,-1.121635556,-6.034100533,0.9906286001,6.21689477
10.01876946,-1.061216831,-5.979663849,1.057627559,6.164506222
10.02108794,-0.9744769931,-6.011368752,1.034297585,6.177048743
10.02340643,-0.8727820516,-6.076572895,1.012163997,6.221813451
10.02572487,-0.7310073376,-6.174678802,0.9421738982,6.28877744
10.02804331,-0.5916253924,-6.344569206,0.7256234884,6.413275954
10.0303618,-0.4492524564,-6.614958286,0.5192425251,6.650497252
10.03268029,-0.342173636,-7.030112743,0.456430912,7.053218922
10.03499873,-0.2536391914,-7.340581894,0.5497509837,7.365507554
10.03731722,-0.2578266263,-7.594819069,0.6849454641,7.630000101
10.03963565,-0.2859423161,-7.87358284,0.9349954724,7.934058626
10.04194123,-0.2889333367,-8.156534195,1.070788145,8.231592786
10.04427258,-0.2955136001,-8.319844246,1.191625714,8.409941047
10.04659107,-0.3242274821,-8.493922234,1.2352947,8.589399942
10.04889664,-0.3882354796,-8.610571861,1.268794179,8.712204843
10.051228,-0.4211367965,-8.6590271,1.235892892,8.756913712
10.05354649,-0.4618147612,-8.708079338,1.164108157,8.797673922
10.05586498,-0.4917250574,-8.636893272,1.048056364,8.714134557
10.05818341,-0.4971089065,-8.565707207,0.890130043,8.626168832
10.0605019,-0.4977070987,-8.465208054,0.665802896,8.505924597
10.06282034,-0.457029134,-8.31027317,0.4456632137,8.334754435
10.06513883,-0.3888336718,-8.083553314,0.2063809484,8.095530798
10.06745727,-0.2548356056,-7.841279984,-0.09092725813,7.845946771
10.06977576,-0.08494520187,-7.660023689,-0.4767699242,7.675316812
10.07209419,0.09032905847,-7.493722439,-0.8434699774,7.541583185
10.07441268,0.2596212626,-7.292725086,-1.225125194,7.399471206
10.07671826,0.4307080805,-7.174280643,-1.572682738,7.357251063
10.07904961,0.6299105883,-7.016952515,-1.948953986,7.309776439
10.0813681,0.8219345808,-6.931408882,-2.281556368,7.343398737
10.08367362,1.006181955,-6.970890522,-2.604587555,7.509300442
10.08600503,1.15393877,-7.054041386,-2.921636343,7.721854277
10.08832352,1.286740422,-7.161718369,-3.062813044,7.894728282
10.09062904,1.36211431,-7.304689407,-3.070589542,8.040047442
10.09296044,1.432104349,-7.49910593,-2.868396044,8.155685654
10.09527888,1.451845169,-7.805387497,-2.54656148,8.337679758
10.09759737,1.388435364,-8.257631302,-2.094916344,8.631622209
10.09991586,1.229910851,-8.730812073,-1.53080833,8.948918051
10.1022343,0.9996016622,-9.234500885,-0.9373882413,9.335625678
10.10453987,0.6233302951,-9.818947792,-0.3212364316,9.843955975
10.10687123,0.1974078715,-10.51406288,0.3625126183,10.52216249
10.10918972,-0.3726821244,-11.15115166,0.9816554785,11.20047868
10.11149529,-1.010967612,-11.72662544,1.533799291,11.86963942
10.11382664,-1.670788407,-12.18305683,2.008176327,12.45998314
10.11614513,-2.303091764,-12.50010586,2.243869543,12.9070457
10.11845065,-2.790031195,-12.71306705,2.322234392,13.22116185
10.12078206,-3.131606579,-12.77886963,2.310270309,13.35828648
10.12310055,-3.246462107,-12.71426296,2.189432621,13.30359403
10.12540607,-3.211766243,-12.54078388,2.045265198,13.10609829
10.12773748,-3.071786165,-12.21595764,1.967498422,12.74898197
10.13005596,-2.849253654,-11.81276703,1.990230203,12.31343687
10.1323744,-2.513062,-11.35274696,2.066202402,11.80972212
10.13469289,-2.0769701,-10.91486073,2.210369825,11.32844756
10.13701133,-1.564906001,-10.5038929,2.364706993,10.87991434
10.13932982,-1.040877819,-10.14078236,2.542972326,10.50645524
10.14164826,-0.5437689424,-9.855438232,2.669193745,10.22496663
10.14396675,0.008973085321,-9.683753014,2.773281336,10.07304533
10.14627227,0.513858676,-9.681360245,2.810968399,10.09427215
10.14860367,1.037288666,-9.7698946,2.754138947,10.20353319
10.15092216,1.543968797,-9.984052658,2.674577475,10.45076609
10.15322768,2.040479422,-10.30827999,2.514258385,10.80489185
10.15555909,2.523829699,-10.67737293,2.330609322,11.21640535
10.15787758,2.947957516,-11.14756203,2.060818434,11.71347793
10.1601831,3.406183004,-11.608181,1.815554142,12.23307752
10.16251451,3.794418573,-12.00778198,1.612164259,12.69580695
10.16483294,4.100699902,-12.33200932,1.440479279,13.07551812
10.16713852,4.329214573,-12.46122169,1.295713425,13.25530151
10.16946987,4.379463673,-12.5180521,1.143769264,13.31125609
10.17178836,4.350151539,-12.65803146,1.068395257,13.42725018
10.17409388,4.234099865,-12.77109241,1.054038405,13.49590309
10.17642529,4.013361931,-12.72862053,1.012762189,13.38471299
10.17874378,3.820739508,-12.63230896,0.9726824164,13.23326835
10.18106222,3.597608805,-12.64247799,0.8991031051,13.17510627
10.18338071,3.36012125,-12.67179012,0.8973084688,13.14038973
10.18569914,3.058027267,-12.60718441,0.8895317912,13.00322638
10.18801763,2.718844652,-12.61496067,0.8673982024,12.9337438
10.19033612,2.371885538,-12.63769245,0.8739784956,12.88801575
10.19265456,2.032702923,-12.61675549,0.8757730722,12.80942538
10.19497305,1.712662816,-12.63888931,0.9302098155,12.78827695
10.19729149,1.432702541,-12.71725368,1.01874423,12.83818592
10.19960998,1.146760225,-12.7381916,1.069591761,12.83435277
10.20191555,0.8668000102,-12.79741383,1.0863415,12.87265632
10.20424696,0.6029912829,-12.77946758,1.146162033,12.8449242
10.20656539,0.4037888348,-12.83210945,1.216152072,12.89593363
10.20887097,0.2267199457,-12.83629704,1.276570916,12.90161063
10.21120232,0.05443671346,-12.82074356,1.37048912,12.89390047
10.21352081,-0.1513460279,-12.81117249,1.411167145,12.88954766
10.21582633,-0.3487538993,-12.7435751,1.447059512,12.8302111
10.21815774,-0.5557330847,-12.7005043,1.478166223,12.79830552
10.22047623,-0.7872386575,-12.63410378,1.533201098,12.75111872
10.22278175,-0.9960124493,-12.49472141,1.592423439,12.6351065
10.22511315,-1.21854496,-12.39422321,1.680359721,12.56683053
10.22743159,-1.445863128,-12.27936745,1.720439434,12.48332075
10.22973716,-1.650449395,-12.1734848,1.827518344,12.42004584
10.23206852,-1.839482427,-12.08195972,1.901097536,12.36816956
10.23438701,-1.95015049,-12.04606724,1.914258122,12.3521337
10.23669258,-2.058425665,-12.10110188,1.94715941,12.42840346
10.23902393,-2.087737799,-12.2602253,1.910070658,12.58253326
10.24134242,-2.053041935,-12.4803648,1.864008784,12.78471804
10.24366086,-1.9812572,-12.82433319,1.78145647,13.09818648
10.24597935,-1.831107497,-13.24427319,1.6713866,13.47431854
10.24829784,-1.678565025,-13.75932884,1.528415442,13.94534921
10.25060336,-1.44646132,-14.34975719,1.348953724,14.48542226
10.25293477,-1.204786181,-14.96411419,1.150349498,15.05654433
10.2552532,-0.9541380405,-15.55394554,0.9708877802,15.61339887
10.25755878,-0.7250252366,-16.07737541,0.7812566161,16.11266656
10.25989013,-0.4881358147,-16.48535156,0.566500783,16.50230335
10.26220867,-0.2081755698,-16.74796295,0.4612165689,16.75560565
10.26451419,0.1202393398,-16.88914108,0.3840480447,16.89393492
10.26684555,0.4923232496,-16.89930916,0.3493520916,16.91008809
10.26916404,0.8691928387,-16.68934059,0.313459754,16.71489882
10.27146956,1.047458172,-16.16172218,0.1824527234,16.19665773
10.27380097,1.433300734,-15.77827263,0.1926222295,15.84441042
10.27611946,1.826920033,-15.30329704,0.1064806059,15.41232868
10.27842498,2.172084808,-14.82413483,0.1058823988,14.98279469
10.28075638,2.455634356,-14.35214996,0.08135596663,14.56093979
10.28307482,2.645863533,-13.93879032,-0.01076770201,14.18769133
10.28538039,2.766701221,-13.60020542,-0.1028913707,13.87915018
10.2877118,2.839682341,-13.29153156,-0.1381855011,13.5921927
10.29003024,2.923431158,-13.00618744,-0.1537388563,13.33157894
10.29233581,2.894717216,-12.78604794,-0.2745763958,13.11250555
10.29466722,2.907279491,-12.6945219,-0.390030086,13.029017
10.29698565,2.874976397,-12.70528984,-0.499501735,13.03607998
10.29930414,2.796611547,-12.7507534,-0.6334998012,13.06920313
10.30162258,2.760120869,-12.99183083,-0.6604190469,13.2981987
10.30394107,2.663211584,-13.28734398,-0.7453642488,13.57209541
10.30625951,2.567498684,-13.59661674,-0.8297112584,13.86176241
10.308578,2.453241348,-13.78684616,-0.8769695163,14.03084444
10.31089649,2.297708035,-13.87179089,-0.8297112584,14.08525702
10.31321492,2.14157629,-13.77906895,-0.6891329288,13.96151834
10.31553341,2.010569334,-13.61396408,-0.3194418252,13.76533509
10.31785185,1.82632184,-13.46381474,0.1316052526,13.58775473
10.32017034,1.618744493,-13.33340645,0.6340979934,13.44626868
10.32248883,1.31425786,-12.99362469,1.225125194,13.11725916
10.32480727,0.8685946465,-12.71426296,1.796411633,12.86988866
10.32711284,0.4109672904,-12.56590843,2.406581402,12.80088211
10.32944419,-0.01555334684,-12.48335552,3.06999135,12.85532006
10.33176268,-0.3649054468,-12.4803648,3.787240028,13.04744605
10.33406826,-0.685543716,-12.48694515,4.509872437,13.29408586
10.33639961,-0.9272187948,-12.5491581,5.142175674,13.59349382
10.3387181,-1.124626637,-12.78305721,5.537590027,13.97627418
10.34102362,-1.21555388,-13.14078331,5.606981754,14.33861924
10.34335503,-1.231107235,-13.57388496,5.309075356,14.627107
10.34567352,-1.205384374,-13.98245907,4.673182487,14.79191494
10.34799196,-1.232901812,-14.27857113,3.678366661,14.79621646
10.35031044,-1.192223907,-14.38983727,2.501097918,14.65415658
10.35262893,-1.143769264,-14.37667656,1.161117196,14.4687674
10.35493446,-1.105484009,-14.3066864,-0.342173636,14.35341261
10.35726586,-1.039083242,-14.21695614,-1.815554142,14.37003036
10.35958435,-0.9349954724,-14.16371536,-3.079562664,14.52476353
10.36188987,-0.7884350419,-14.29711533,-4.312464714,14.95414619
10.36422123,-0.6550351977,-14.66082478,-5.477170944,15.66423492
10.36653972,-0.5264210105,-15.1154604,-6.427121639,16.43356792
10.36884529,-0.4241278172,-15.53240967,-7.095915318,17.0817929
10.37117664,-0.3290131092,-15.93440437,-7.511668682,17.61926953
10.37349513,-0.2656033039,-16.27956963,-7.756334782,18.03484576
10.37580065,-0.2955136001,-16.58704567,-7.792825222,18.32881713
10.37813206,-0.3984049559,-16.67617989,-7.731209755,18.38546454
10.38045055,-0.5282155871,-16.69831276,-7.588837147,18.34947165
10.38275612,-0.7058826685,-16.58644867,-7.204789162,18.09744558
10.38508748,-0.8841479421,-16.47937012,-6.729813576,17.82250678
10.38740597,-1.073180914,-16.34836197,-6.141777515,17.49691651
10.3897244,-1.183848977,-16.16650772,-5.432903767,17.0960204
10.39204289,-1.300499082,-15.9373951,-4.672584534,16.6590788
10.39436133,-1.364507079,-15.80279922,-3.658027649,16.27794548
10.3966669,-1.444068432,-15.66341686,-2.453241348,15.91999857
10.39899826,-1.493719578,-15.48874092,-0.9996016622,15.59267447
10.40131675,-1.511665702,-15.303895,0.7112665176,15.39481196
10.40362232,-1.554736495,-15.29193115,2.389831543,15.55543824
10.40595367,-1.579262972,-15.51566029,3.817748547,16.05630685
10.40827216,-1.597807288,-15.99422455,4.765306473,16.76533187
10.41057768,-1.640878081,-16.41237068,5.507081509,17.3892593
10.41290909,-1.73060894,-16.7545433,5.943173409,17.86144
10.41522758,-1.829911113,-16.87598038,6.224927902,18.08029358
10.4175331,-1.926820397,-16.98425484,6.233901024,18.19447914
10.41986451,-2.045265198,-16.97288895,6.104090691,18.15274062
10.422183,-2.189432621,-16.77548218,5.562714577,17.80882396
10.42448852,-2.336591244,-16.59781456,4.872983456,17.45545974
10.42681992,-2.493919373,-16.64148331,3.846462488,17.26134045
10.42913841,-2.66799736,-16.70130348,2.46221447,17.09135009
10.43144393,-2.981456995,-16.52004814,0.5114658475,16.7947216
10.43377529,-3.257827997,-16.35673714,-1.281356573,16.72716855
10.43609378,-3.513859987,-16.16471291,-3.311666489,16.87045614
10.43839935,-3.871587038,-15.92124367,-4.786243439,17.0699535
10.4407307,-4.137190342,-15.38764381,-6.104090691,17.06328952
10.44304919,-4.478167534,-14.73918915,-7.337590694,17.06276409
10.44535472,-4.876572609,-14.08415413,-8.571688652,17.19355124
10.44768612,-5.174479008,-13.80838108,-9.301499367,17.43457804
10.45000461,-5.533402443,-13.66481209,-10.19342422,17.92349099
10.45231013,-5.8983078,-13.41177082,-11.33839035,18.52632525
10.45464154,-6.11784935,-12.98584843,-12.12084293,18.78763352
10.45695998,-6.19382143,-12.68076324,-12.60060406,18.91931296
10.45926555,-5.965306759,-12.48335552,-12.51924801,18.65879472
10.46159696,-5.528018475,-12.43370438,-11.92403316,18.0925001
10.46391544,-4.947160721,-12.30329609,-11.01834965,17.24092581
10.46622096,-4.614558697,-11.95753288,-10.16351414,16.35768212
10.46855237,-4.328018188,-11.43470097,-8.934201241,15.14278968
10.47087081,-4.107280254,-10.80299568,-7.511070251,13.78370934
10.47317638,-3.918246984,-10.22453117,-6.215955257,12.59094107
10.47550774,-3.768695593,-9.662218094,-5.159523964,11.58370461
10.47782623,-3.823132277,-8.993423462,-4.18205595,10.62956245
10.4801318,-3.924827337,-8.302495956,-3.210569859,9.728487424
10.48246315,-3.918845177,-7.854440212,-2.455634356,9.114807659
10.48478164,-3.792025566,-7.615158081,-1.816750646,8.698889205
10.48708716,-3.631108284,-7.332206726,-1.321436286,8.288087638
10.48941857,-3.443870068,-6.985247612,-0.7639086246,7.825438111
10.49173706,-3.235096216,-6.556932449,-0.2739782035,7.316712016
10.49404258,-2.97726965,-6.253043652,-0.09750752151,6.926340823
10.49637399,-2.839084148,-6.071787357,-0.09750752151,6.703469865
10.49869242,-2.645863533,-5.980860233,-0.01495514158,6.539992861
10.500998,-2.316850424,-5.871388435,0.2494517565,6.31689989
10.5033294,-2.011167526,-5.806184292,0.499501735,6.164906555
10.50564784,-1.816152334,-5.868397713,0.7974081635,6.194542824
10.50795341,-1.569691658,-5.929414749,1.148554921,6.240278005
10.51028477,-1.389033556,-5.959324837,0.8207381964,6.17386248
10.51260326,-1.109671474,-5.967699528,0.5084748268,6.091252341
10.51490883,-0.8153542876,-6.000002861,0.1202393398,6.056343323
10.51724018,-0.5509474277,-6.090929985,-0.4540380836,6.132627637
10.51955867,-0.2985046208,-6.18245554,-1.200000525,6.304907832
10.52186419,-0.05742774159,-6.2841506,-1.869392633,6.556559733
10.5241956,0.1459621787,-6.337988853,-2.706880569,6.893374361
10.52651409,0.2440679073,-6.285346985,-3.83270359,7.365783915
10.52881966,0.3290131092,-6.01376152,-3.957728624,7.206746361
10.53115102,0.4612165689,-5.708078384,-3.6299119,6.780202059
10.53346951,0.5569294691,-5.402993679,-3.497708559,6.460377411
10.53577503,0.5276173949,-5.106283665,-3.742972851,6.353137708
10.53810643,0.5204389095,-4.740779877,-3.406781197,5.86105866
10.54042492,0.5676971674,-4.47397995,-2.478366137,5.14597662
10.5427305,0.6155536175,-4.32263422,-1.768295884,4.710726397
10.54506185,0.6406782866,-4.273581028,-1.491924882,4.57163027
10.54738029,0.6592226624,-4.350151539,-1.762912035,4.73985778
10.54969878,0.6203392744,-4.279563427,-1.939980984,4.739515815
10.55201727,0.6149554253,-4.194019794,-2.145763636,4.751028709
10.55433571,0.6669993401,-4.111467361,-2.332403898,4.773799318
10.55665419,0.813559711,-3.997808456,-2.446661234,4.75715283
10.55897263,0.9044869542,-3.803391695,-2.590230465,4.689688571
10.56129112,0.9439685345,-3.620340586,-2.72961235,4.631276944
10.56360961,1.034297585,-3.387638569,-2.825923443,4.531192986
10.56592805,1.182652593,-3.240479946,-2.787040234,4.434745844
10.56824654,1.24965167,-3.056232691,-2.830709219,4.3491496
10.57056498,1.333400369,-2.833101988,-2.727219582,4.152366803
10.57288346,1.320239902,-2.693720102,-2.685345173,4.026194243
10.57520196,1.325025558,-2.573480844,-2.547757864,3.856107691
10.57752039,1.238285661,-2.392822742,-2.378465652,3.593890777
10.57983888,1.120439172,-2.19780755,-1.979462504,3.16291223
10.58215732,1.007976532,-1.984248161,-1.758126378,2.836241495
10.58447586,0.860219717,-1.8628124,-1.555334687,2.574706583
10.5867943,0.6897311211,-1.779661894,-1.404586911,2.369765783
10.58911274,0.4773681164,-1.703091502,-1.345364571,2.222252643
10.59143123,0.166301176,-1.618744493,-1.467996716,2.191575728
10.59374972,-0.1166501045,-1.428515077,-1.295115232,1.931731357
10.59606815,-0.6071787477,-1.276570916,-1.343569875,1.950251098
10.59838664,-0.756131947,-1.308275819,-1.05822587,1.844766417
10.60070513,-0.8380861282,-1.473380566,-1.052842021,1.995423507
10.60302362,-0.8871390224,-1.59003067,-1.06660068,2.110177762
10.60534206,-0.9595218897,-1.746162295,-1.042074203,2.248484748
10.60766055,-1.085145116,-1.864008784,-1.028315544,2.389456325
10.60997899,-1.223928809,-1.824527264,-1.158724308,2.483856576
10.61229748,-1.290927768,-1.686341763,-0.9786644578,2.338381312
10.61461591,-1.40697968,-1.688734531,-0.732203722,2.316794861
10.6169344,-1.649253011,-1.761117458,-0.6669993401,2.503289499
10.61925284,-1.827518344,-1.832902193,-0.8207381964,2.715320411
10.62157133,-1.995614052,-1.99501586,-0.6921239495,2.905443045
10.62388982,-2.155933142,-2.142772675,-0.4875376225,3.078508629
10.62620826,-2.3216362,-2.266003132,-0.1782652885,3.249083463
10.62852675,-2.396411896,-2.42572403,0.132801652,3.412413123
10.63084518,-2.465803623,-2.618346214,0.4671986103,3.626871785
10.63315076,-2.490928411,-2.87318182,0.8931210637,3.906093106
10.63548216,-2.516651154,-3.089133978,1.276570916,4.184007059
10.63780065,-2.501097918,-3.279961586,1.707278967,4.464128165
10.64010617,-2.453241348,-3.445664644,2.281556368,4.805881544
10.64243758,-2.310270309,-3.609572887,2.779861689,5.108228298
10.64475602,-2.147558212,-3.782454491,3.254837036,5.432580637
10.64706159,-1.965105653,-3.955335855,3.734597921,5.783903837
10.649393,-1.798804402,-4.094717979,4.252045631,6.171086182
10.65171149,-1.579861164,-4.280161381,4.933402061,6.719687392
10.65401701,-1.360319614,-4.48534584,5.638088226,7.331905319
10.65634836,-1.235892892,-4.701896667,6.279364586,7.941390503
10.65866685,-1.0863415,-4.965705395,6.955337048,8.614817547
10.66097242,-0.9511470199,-5.249852657,7.640881062,9.31926483
10.66330383,-0.9104689956,-5.531009674,8.258827209,9.98144522
10.66562227,-0.9224331379,-5.799005508,8.875576973,10.64214332
10.66792779,-0.9631111026,-6.086742401,9.540781975,11.35792836
10.67025919,-0.9846464992,-6.431907177,10.38724327,12.25698908
10.67257763,-1.064207911,-6.774080753,10.68933678,12.69970981
10.6748832,-1.224527001,-7.070192814,10.87597752,13.02973445
10.67721461,-1.427318692,-7.368697166,10.94357395,13.27014497
10.67953305,-1.769492388,-7.5924263,10.88495064,13.38873373
10.68183862,-2.121237278,-7.821538925,10.87358475,13.56137766
10.68417003,-2.435893536,-8.179265976,10.87358475,13.82276436
10.68648846,-2.754138947,-8.547760963,10.64925671,13.93040442
10.68879404,-3.181257725,-8.88993454,10.28554821,13.96222901
10.69112544,-3.442673683,-9.208179474,10.06181908,14.06708123
10.69344388,-3.626322746,-9.433703423,9.937392235,14.17380476
10.69574946,-3.57128787,-9.692128181,9.824930191,14.25554976
10.69808081,-3.34576416,-10.09531879,9.777671814,14.44688428
10.7003993,-2.823530674,-10.74138069,9.725028992,14.76230922
10.70270487,-2.310270309,-11.40120125,9.815358162,15.220578
10.70503623,-1.67437768,-12.08734322,10.01635551,15.78717151
10.70735472,-1.020538807,-12.72383404,10.28973579,16.39561267
10.70966029,-0.3631108403,-13.32323647,10.63848972,17.05338509
10.71199164,0.08733802289,-13.83051491,10.82752228,17.56490846
10.71431013,0.2069791555,-14.16491222,10.62592697,17.70869568
10.71661565,-0.111864455,-14.22114277,10.13240719,17.46193262
10.71894706,-0.8446664214,-14.07159138,9.394820213,16.94065501
10.72126555,-1.739582062,-13.72881985,8.620741844,16.3041047
10.72357107,-2.62253356,-13.29452229,7.91366291,15.6922932
10.72590248,-3.413959742,-12.79980659,7.397411346,15.17273425
10.72822091,-4.150949001,-12.25603771,7.034300327,14.72827957
10.73052649,-4.764110088,-11.66142082,6.685546398,14.26120651
10.73285789,-5.135595798,-11.05603695,6.329614162,13.73587684
10.73517633,-5.347958565,-10.4853487,5.985047817,13.20469597
10.7374819,-5.358726501,-9.93918705,5.58066082,12.59552159
10.73981331,-5.300700188,-9.448060036,5.052444935,11.9536798
10.7421318,-5.175675392,-8.961718559,4.525425911,11.29510934
10.74443732,-5.056632519,-8.441280365,4.054637909,10.64259532
10.74676873,-4.928018093,-7.958528042,3.656831264,10.04967392
10.74908716,-4.7844491,-7.509275436,3.397209883,9.530016042
10.75139274,-4.679164886,-7.074379921,3.132204771,9.041689114
10.75372409,-4.631308079,-6.670591354,2.958127022,8.642703224
10.75604258,-4.590630054,-6.333801746,2.779861689,8.301720296
10.75834815,-4.627718925,-5.94078064,2.523829699,7.942189459
10.76067951,-4.767100811,-5.483751297,2.361716032,7.640319433
10.762998,-4.947759151,-4.95015192,2.256431818,7.353625582
10.76530357,-5.122435093,-4.421338081,2.107478619,7.087244728
10.76763492,-5.305486202,-3.945764542,2.011765718,6.911182458
10.76995341,-5.492724419,-3.541377544,2.064407825,6.85369653
10.77225899,-5.776872158,-3.096910715,2.154138565,6.899523235
10.77459034,-6.090332031,-2.666800737,2.272583246,7.026279601
10.77690883,-6.339783669,-2.292922258,2.472383976,7.18074035
10.7792144,-6.584449768,-1.923829436,2.658426046,7.356855816
10.78154576,-7.007979393,-1.597209096,2.695514679,7.676499948
10.78386425,-7.415955544,-1.333400369,2.684746981,7.998888643
10.78616982,-7.728816986,-1.206580877,2.624328136,8.250911924
10.78850117,-7.855038643,-1.310070395,2.676372051,8.401242996
10.79081961,-7.916055679,-1.575075507,2.849253654,8.55938355
10.7931381,-7.764709473,-2.027318954,3.263810158,8.66332454
10.79545659,-7.664210796,-2.68713975,3.541975737,8.860385956
10.79777508,-7.718049526,-3.552743435,3.614358664,9.233301845
10.8000806,-7.740182877,-4.41236496,3.80159688,9.686667866
10.80241201,-7.777271748,-5.513661385,3.656831264,10.21072145
10.80475706,-7.685746193,-6.774679184,3.4809587,10.82053816
10.80703602,-7.666603565,-8.047062874,3.409173965,11.62559668
10.80939399,-7.845467091,-9.305088997,3.049054146,12.54722146
10.81171248,-8.188837051,-10.57627583,3.083750248,13.72676867
10.81399143,-8.350353241,-12.16391373,3.905086517,15.2623359
10.81632284,-8.397012711,-13.8921299,4.666602135,16.89018268
10.81864128,-8.776873589,-15.26441383,5.340780258,18.39999384
10.82094685,-9.364909172,-16.29512215,5.915655613,19.70348982
10.82327826,-10.00977516,-17.20678711,6.612565517,20.97606122
10.82559669,-10.79282665,-18.21835327,6.994818687,22.30069487
10.82790227,-11.26421261,-19.3130703,8.110472679,23.78354341
10.83023362,-11.21396351,-20.24567223,9.677172661,25.08561126
10.83255211,-10.73180962,-21.21656036,10.98604679,26.19174289
10.83485768,-9.947562218,-22.53201485,11.47956657,27.17399742
10.83718904,-8.841479301,-23.83251381,11.05484104,27.71948739
10.83950753,-7.073183537,-25.05584335,9.868000984,27.84246137
10.8418131,-4.733003139,-25.69652176,7.999804497,27.32598436
10.84414446,-2.545365095,-25.51466751,5.813961029,26.29219056
10.84646294,-0.7477570772,-24.5593338,3.314059258,24.79320484
10.84876847,0.6005984545,-22.80838585,0.7651050687,22.8291167
10.85109987,1.47158587,-20.47179413,-1.275972724,20.56424144
10.85341836,1.902892232,-17.90489388,-2.717050076,18.20957398
10.85572388,1.89391911,-15.11127281,-3.534198999,15.63419516
10.85805529,1.559522152,-12.37328625,-4.129413605,13.13706126
10.86037378,0.9439685345,-10.03011417,-4.533202648,11.04736137
10.8626793,0.1351944804,-7.917850018,-5.157131195,9.450218443
10.86501071,-0.6825526357,-5.945566177,-5.980261803,8.460447181
10.86732919,-1.426122308,-4.245465755,-6.771687984,8.1187168
10.86963472,-2.02612257,-2.882154942,-7.264011383,8.073280074
10.87196612,-2.44247365,-1.835893154,-7.518248558,8.115432372
10.87428461,-2.708675146,-1.053440213,-7.245467186,7.806628726
10.87659013,-2.953341246,-0.4432703853,-6.588637352,7.233868626
10.87892154,-3.19980216,0.07597211748,-5.511867046,6.373788823
10.88123998,-3.305086374,0.2679961324,-4.240679741,5.383194454
10.88354555,-3.440878868,0.4402793646,-2.716451883,4.405973688
10.88587696,-3.506681681,0.499501735,-1.201196909,3.740212883
10.88819539,-3.451646566,0.3254238665,0.1992024779,3.472671355
10.89050097,-3.337389469,-0.1740778536,1.300499082,3.586052067
10.89283232,-3.093919754,-0.7579265833,1.974676847,3.747818139
10.89515081,-2.658426046,-1.347757339,1.93040967,3.551078763
10.89745638,-2.038086653,-2.151745796,0.9302098155,3.106299644
10.89978774,-1.367498159,-3.190829039,-0.8063812256,3.563943301
10.90210623,-0.6801598072,-4.249652863,-2.815753937,5.143018282
10.90441175,-0.07058826834,-5.218746185,-4.916054249,7.169929137
10.90674315,0.5341976285,-6.20758009,-6.997809887,9.369565672
10.90906164,1.02711916,-7.168896675,-8.837292671,11.42566388
10.91136716,1.423131227,-8.036294937,-10.21077251,13.07161865
10.91369857,1.771885157,-8.874979019,-11.15533924,14.36476325
10.91601706,1.98963201,-9.731011391,-11.6961174,15.34439248
10.91832258,1.840080619,-10.4219389,-12.21177006,16.1595184
10.92065399,1.739582062,-11.1445713,-12.32184029,16.70495026
10.92297248,1.713261008,-11.99043465,-12.23988628,17.21977359
10.925278,1.540977836,-12.73340607,-12.05025482,17.59894554
10.9276094,1.435693622,-13.60439301,-11.60578823,17.93976158
10.92992789,1.31425786,-14.60519123,-11.00339508,18.33340088
10.93223341,1.158724308,-15.47677708,-10.14915752,18.54396584
10.93456482,1.01036942,-16.12164307,-9.192028046,18.58552128
10.93688326,0.9008977413,-16.78565025,-8.196015358,18.70145286
10.93918883,0.8285148144,-17.45324898,-7.142575741,18.87640657
10.94152024,0.6843472719,-17.93001747,-6.05264473,18.9364296
10.94383867,0.6460621357,-18.33141518,-4.695316315,18.93420645
10.94614425,0.5928218365,-18.54198265,-3.33439827,18.84873391
10.94847565,0.6909275651,-18.69572067,-1.934597135,18.80824336
10.95079409,0.8069794178,-18.78126526,-0.5928218365,18.80793923
10.95309966,0.8727820516,-18.70589066,0.5330012441,18.7338246
10.95543102,0.9493523836,-18.37568092,1.223330617,18.44080956
10.95774951,1.077966571,-17.95454407,1.607378602,18.05855284
10.96005508,1.211366415,-17.45205116,1.795813441,17.58597294
10.96238643,1.392622828,-16.88076591,1.740778446,17.02732997
10.96470492,1.540977836,-16.28256035,1.475175142,16.42170898
10.96701044,1.650449395,-15.63171196,1.152144074,15.76076895
10.96934185,1.775474429,-14.8462677,0.8464609981,14.97599647
10.97166034,1.928016901,-14.02672672,0.613160789,14.17188336
10.97396586,2.019542217,-13.23829174,0.3080759048,13.39499271
10.97629727,2.134995937,-12.6687994,0.156729877,12.84839485
10.97861576,2.106282234,-12.20877934,-0.1573280841,12.39013599
10.98092128,2.032702923,-11.87019539,-0.4175475538,12.05021849
10.98325268,1.923829436,-11.51246834,-0.5120640397,11.68333242
10.98557117,1.849053741,-11.1876421,-0.5294120312,11.35176693
10.98787669,1.759322882,-10.85922718,-0.6089733839,11.01766221
10.9902081,1.631905079,-10.52542877,-0.6789634228,10.67280452
10.99252654,1.499103427,-10.17368412,-0.6873382926,10.30648309
10.99483211,1.352542996,-9.874580383,-0.643071115,9.987504732
10.99716352,1.244267821,-9.574281693,-0.5557330847,9.670776163
10.99948196,1.028315544,-9.343374252,-0.5736792088,9.417281089
11.00178753,0.8027920127,-9.214759827,-0.7770691514,9.282247042
11.00411893,0.6035895348,-9.09990406,-0.8129615188,9.156062509
11.00643737,0.433100909,-8.96889782,-0.7345965505,9.009347179
11.00874294,0.2727817893,-8.924630165,-0.5688936114,8.946903008
11.01107435,0.09571290761,-8.918647766,-0.4516452849,8.930589141
11.01339279,-0.104685992,-8.942576408,-0.4055834413,8.952381242
11.01571128,-0.3361915946,-9.001200676,-0.4169493318,9.017121777
11.01802972,-0.5850451589,-8.968298912,-0.4761717021,8.999966817
11.02034821,-0.8470591903,-8.970093727,-0.5503492355,9.026792067
11.02265378,-1.019940615,-8.94018364,-0.470787853,9.010482982
11.02498513,-1.290329576,-8.831310272,-0.3690928817,8.932705139
11.02730362,-1.512862086,-8.716454506,-0.3529413342,8.853807002
11.02960914,-1.77846539,-8.607581139,-0.3750749528,8.797390148
11.03194055,-2.109871387,-8.495717049,-0.4648058116,8.76611715
11.03425904,-2.403590441,-8.386843681,-0.4677968323,8.737003366
11.03656456,-2.615355253,-8.170292854,-0.2949153781,8.583748803
11.03889596,-2.633301258,-8.112865448,-0.02333002165,8.529560691
11.04121446,-2.43708992,-8.006982803,0.1776670814,8.371543853
11.04353289,-2.097309113,-7.936394691,0.390030086,8.218101343
11.04585138,-1.438684583,-8.141578674,0.3930211067,8.277051542
11.04816987,-0.6526423693,-8.228917122,0.204586342,8.257292209
11.05047539,0.05084748194,-8.227720261,-0.1136590764,8.228662378
11.0528068,0.5042873621,-8.117053032,-0.4869394004,8.147267373
11.05512529,0.7824530005,-8.010572433,-0.9672985673,8.106612728
11.05743081,1.028913736,-7.731209755,-1.167099237,7.886215086
11.05976222,1.330409408,-7.417151928,-1.109671474,7.61679084
11.06208065,1.529013634,-7.008577347,-1.024726272,7.246247515
11.06438623,1.601994753,-6.656234264,-1.136590719,6.940005781
11.06671763,1.53918314,-6.533602238,-1.472184181,6.871998923
11.06903607,1.536790371,-6.505486488,-1.853839397,6.936843634
11.07135456,1.473978758,-6.401997089,-2.093719721,6.895059273
11.07367305,1.196411371,-6.322435856,-2.254039049,6.81801198
11.07599149,0.9248259664,-6.319444656,-2.27078867,6.778433817
11.07830998,0.6741777658,-6.473781586,-2.119442701,6.845173558
11.08062841,0.4791627228,-6.765706062,-1.828116536,7.02469825
11.0829469,0.3475574851,-6.921837807,-1.499103427,7.090835347
11.08526539,0.2404786795,-7.120441914,-1.192822099,7.223665801
11.08758383,0.0580259487,-7.374081135,-0.8159525394,7.419313859
11.08990232,-0.1441675574,-7.584649563,-0.4683950245,7.600466247
11.09222081,-0.3726821244,-7.695317745,-0.1597209126,7.705992339
11.09453925,-0.59940207,-7.700103283,0.1106680483,7.724190626
11.09685774,-0.799800992,-7.742575645,0.2907279432,7.789202911
11.09917623,-1.02711916,-7.810173035,0.3511467278,7.885244487
11.10149466,-1.2352947,-7.887341499,0.4163511395,7.994339072
11.10381315,-1.364507079,-7.918448448,0.5826523304,8.056251556
11.10613159,-1.436890006,-7.958528042,0.7920243144,8.125892197
11.10845008,-1.513460279,-8.012366295,0.9870393276,8.213575488
11.11076857,-1.603191137,-8.278568268,1.107876897,8.504840128
11.11308701,-1.680359721,-8.678768158,1.334596872,8.940121607
11.1154055,-1.7670995,-8.920442581,1.630708575,9.238839047
11.11772399,-1.87956214,-9.090332985,1.912463546,9.477574818
11.12002951,-1.998605132,-9.14596653,2.145165443,9.604418828
11.12236091,-2.11585331,-9.076574326,2.239681959,9.585260142
11.12467935,-2.228914261,-8.953942299,2.280958176,9.504941434
11.12699784,-2.356930256,-8.803194046,2.302493572,9.399618199
11.12931633,-2.468794823,-8.523234367,2.256431818,9.155979276
11.13163477,-2.529213428,-8.193024635,2.129014015,8.834889582
11.13395326,-2.55792737,-7.915457249,1.835893154,8.518682971
11.13627175,-2.529811859,-7.627720356,1.543370605,8.183157013
11.13859018,-2.522035122,-7.42672348,1.112662554,7.921799086
11.14090867,-2.408375978,-7.237092018,0.6113662124,7.651767402
11.14322716,-2.266601324,-7.028318405,0.08673982322,7.38527352
11.1455456,-2.057827473,-6.817749977,-0.4522434771,7.135887669
11.14785117,-1.826920033,-6.592226505,-0.9050851464,6.90030914
11.15018253,-1.579861164,-6.400202274,-1.438684583,6.747470917
11.15250102,-1.304686546,-6.226722717,-1.737787485,6.595012367
11.15480659,-1.042074203,-6.162714481,-2.031506538,6.57206111
11.15713794,-0.8458628058,-6.129813194,-2.216351986,6.572846401
11.15945643,-0.6490531564,-6.163312912,-2.280958176,6.603822094
11.16176201,-0.4462614357,-6.274579048,-2.221137524,6.671052646
11.16409336,-0.2793620527,-6.476772785,-2.084746838,6.809757576
11.16641185,-0.1657029688,-6.723233223,-1.810170293,6.964627695
11.16873029,-0.0568295382,-6.93619442,-1.573879123,7.112743361
11.17104878,-0.107078813,-7.138388157,-1.210768223,7.24113327
11.17336727,-0.2105683982,-7.293921471,-0.8428717852,7.345479039
11.17568571,-0.3433700502,-7.421339512,-0.5569294691,7.4501244
11.17800419,-0.5288137794,-7.526025295,-0.2811566591,7.549817867
11.18032268,-0.7896314859,-7.647460938,-0.1112662554,7.688924298
11.18264112,-1.113260746,-7.880163193,0.01734796353,7.9584309
11.18495961,-1.47158587,-8.243872643,0.06879365444,8.374469158
11.1872781,-1.870589137,-8.503493309,0.03888336942,8.70689463
11.18958362,-2.271386862,-8.805587769,-0.09212367237,9.094287273
11.19191503,-2.589034081,-9.000602722,-0.2841476798,9.369881896
11.19423352,-2.796611547,-9.245866776,-0.4701896608,9.670996169
11.19653904,-2.930609465,-9.503693581,-0.693320334,9.969421076
11.19887044,-2.940778971,-9.778867722,-0.9152546525,10.25242049
11.20118893,-2.837887764,-10.0265255,-1.065404296,10.47472705
11.20349446,-2.603989124,-10.164711,-1.171884894,10.55819223
11.20582586,-2.329412937,-10.26879883,-1.207777262,10.598732
11.2081443,-1.990828395,-10.27059269,-1.223330617,10.5330437
11.21046279,-1.573280931,-10.18863869,-1.249053478,10.38478241
11.21278128,-1.104885817,-10.01934624,-1.265205026,10.15917395
11.21509972,-0.6221339107,-9.878767967,-1.290927768,9.982164177
11.21740529,-0.1441675574,-9.699306488,-1.325623751,9.790536704
11.21973669,0.3206382394,-9.588040352,-1.365703583,9.690122442
11.22205513,0.7686942816,-9.52881813,-1.481157184,9.673835458
11.2243607,1.161117196,-9.544969559,-1.644467354,9.754942844
11.22669206,1.576271892,-9.67956543,-1.825723648,9.975564486
11.22901055,1.968694806,-9.842875481,-1.973480463,10.22998446
11.23131612,2.298306227,-10.05165005,-2.045265198,10.51194511
11.23364748,2.554338217,-10.33819008,-2.098505497,10.85387227
11.23596596,2.758326292,-10.67498016,-2.05124712,11.21477508
11.23827149,2.847458839,-11.01356411,-1.962114573,11.54367835
11.24060289,2.747558594,-11.2695961,-1.737189293,11.72905372
11.24292138,2.575873613,-11.55613708,-1.393221021,11.92143003
11.2452269,2.327618122,-11.85045433,-1.020538807,12.11992465
11.24755831,1.993819475,-12.13101292,-0.6352944374,12.31017423
11.2498768,1.638485312,-12.38824081,-0.1980060786,12.49769383
11.25218232,1.264008522,-12.58325577,0.2057827413,12.64825639
11.25451373,0.888933599,-12.75972652,0.5802595019,12.803809
11.25683222,0.5276173949,-12.92602825,0.9361918569,12.97062225
11.25913774,0.2075773627,-12.9954195,1.244267821,13.05650102
11.26146914,-0.06041877344,-13.02054405,1.466202021,13.10297547
11.26378758,-0.2703889608,-13.04925823,1.573879123,13.14660968
11.26609315,-0.4624129832,-13.04925823,1.624726534,13.15814206
11.26842456,-0.6484549642,-13.03430271,1.579861164,13.14570281
11.27074305,-0.7806583643,-13.23888969,1.527817249,13.34960124
11.27306149,-0.8859425783,-13.59183121,1.500898004,13.70311879
11.27537998,-0.9601200819,-13.26760292,1.393221021,13.37505823
11.27769841,-0.9535398483,-13.07079411,1.148554921,13.15576205
11.2800169,-0.9439685345,-13.02772331,0.9523434043,13.09654952
11.28233539,-0.8757730722,-13.01695538,0.7908278704,13.07032955
11.28465383,-0.7854440212,-12.97687531,0.6293123364,13.01584607
11.28697232,-0.670588553,-12.96012592,0.5300102234,12.98828179
11.28929081,-0.5569294691,-12.89910889,0.4211367965,12.91799275
11.29160925,-0.4779663086,-12.79681587,0.4067798555,12.81219802
11.29392774,-0.3846462369,-12.69392395,0.3589234054,12.70482129
11.29624623,-0.27577281,-12.65264797,0.3643072546,12.66089535
11.29856466,-0.2452643216,-12.54197979,0.3349951804,12.54884988
11.30088315,-0.1746760458,-12.48754311,0.2877369225,12.49207897
11.30320164,-0.04486542568,-12.37866974,0.3355933726,12.38329925
11.30552008,0.1058823988,-12.16331577,0.4737788737,12.17299996
11.30783857,0.1944168359,-11.9407835,0.5874379873,11.95680525
11.31015701,0.3152543902,-11.83669567,0.7022934556,11.86170164
11.3124755,0.3954139352,-11.66142082,0.7968099117,11.69529794
11.31479399,0.4546363056,-11.56869888,0.8632107973,11.60976403
11.31711242,0.5473581553,-11.51306629,0.9972088337,11.56912796
11.31943091,0.5868397355,-11.39701462,1.088136077,11.46387209
11.3217494,0.5934200287,-11.31984615,1.206580877,11.3994255
11.32406784,0.5688936114,-11.17149067,1.353141189,11.26751236
11.32638633,0.5509474277,-11.06082249,1.509871125,11.17698743
11.32870482,0.5270192027,-11.09013462,1.624128342,11.22081227
11.33102326,0.4749752879,-11.15354443,1.71924305,11.29526235
11.33334175,0.5748756528,-11.32403278,1.773679733,11.47650384
11.33566018,0.6681957245,-11.45623684,1.828116536,11.62040697
11.33797867,0.7836494446,-11.67876911,1.911865234,11.86014263
11.34029716,0.8309076428,-11.85105228,1.889731646,12.02950263
11.3426156,0.8638089895,-11.98983574,1.800599098,12.15501889
11.34493409,0.9242277741,-12.22373486,1.602592945,12.36293634
11.34725258,0.9523434043,-12.49711418,1.347159147,12.60554079
11.34957102,0.9888339639,-12.73699474,1.10608232,12.82311373
11.35188951,1.042074203,-13.06301689,0.9224331379,13.13694073
11.354208,1.104885817,-13.43151188,0.7968099117,13.50041444
11.35651352,1.143171072,-13.75693512,0.680758059,13.82112642
11.35884492,1.140179992,-14.01655674,0.7154539824,14.08104214
11.36116336,1.0863415,-14.33001614,0.7076773047,14.38854779
11.36346893,1.032503009,-14.4753809,0.732203722,14.53061722
11.36580034,0.9272187948,-14.4825592,0.7980063558,14.53413465
11.36811878,0.6699903607,-14.33958817,0.8141579032,14.37830063
11.37043727,0.3415754437,-14.18883991,0.8961120844,14.22121193
11.37275576,-0.0765703246,-14.08834171,0.9822536707,14.12274964
11.37507419,-0.5126622319,-14.04048538,0.9876375198,14.08451207
11.37737977,-0.9074779749,-14.06919861,0.97926265,14.13240323
11.37971117,-1.30289197,-14.24208069,0.9296116233,14.33173289
11.38202961,-1.633699656,-14.35992718,0.8703892231,14.47874513
11.38433518,-1.92741859,-14.59262848,0.8021938205,14.74120969
11.38666654,-2.204387903,-14.68594933,0.5670989752,14.86129318
11.38898503,-2.411965132,-14.59023571,0.5934200287,14.80015882
11.3912906,-2.663211584,-14.50947857,0.643071115,14.76587975
11.39362196,-2.934797049,-14.35753441,0.7489534616,14.67353943
11.39594044,-3.183052301,-14.22832203,0.9367900491,14.61008369
11.39824602,-3.467798233,-14.18166161,1.244267821,14.65241799
11.40057742,-3.638885021,-14.10808277,1.546959877,14.65170872
11.40289586,-3.794418573,-13.99502182,2.036292076,14.64256581
11.40520143,-4.018745422,-13.91845131,2.463410854,14.69496494
11.40753279,-4.271188259,-13.9860487,2.642872572,14.86059833
11.40985128,-4.501497746,-14.09791279,2.598605394,15.02555746
11.41215685,-4.727619171,-14.28156185,2.206780672,15.20471219
11.41448821,-4.865206718,-14.45384502,1.529611826,15.32721712
11.41680669,-5.006981373,-14.61715508,0.5940182209,15.46233949
11.41911227,-5.111069202,-14.7272253,-0.3314059377,15.59243481
11.42144362,-5.158925533,-14.82592869,-1.199402332,15.7436095
11.42376211,-5.161318302,-14.89412498,-1.914258122,15.87887118
11.42606763,-5.136193752,-14.88574982,-2.68175602,15.97366111
11.42839904,-5.097310543,-14.88096428,-3.415754318,16.09636761
11.43071753,-4.97826767,-14.84148216,-4.126422882,16.1888884
11.43302305,-4.771288395,-14.89532089,-4.739583492,16.34317684
11.43535446,-4.560719967,-15.15554047,-5.150550842,16.64388018
11.43767294,-4.336392879,-15.47258949,-5.403591633,16.95299771
11.43997847,-4.188037872,-15.85304832,-5.418546677,17.26903154
11.44230987,-4.128815651,-16.30349731,-5.347958565,17.64799717
11.44462836,-4.097110748,-16.86341667,-5.124229908,18.09471941
11.44693388,-4.134797573,-17.3437767,-4.782654285,18.46014418
11.44926529,-4.269991875,-17.81695747,-4.217350006,18.80060758
11.45158378,-4.462016106,-18.15135384,-3.553939819,19.02660564
11.4538893,-4.710271358,-18.39602089,-2.743371248,19.18661843
11.45622071,-4.951946259,-18.52104568,-1.966900229,19.27224952
11.45853919,-5.152943611,-18.53360748,-1.181456208,19.27286364
11.46084472,-5.320441246,-18.36311913,-0.4689932466,19.12409981
11.46317612,-5.443671703,-18.05265045,0.2099701911,18.85671863
11.46549456,-5.563312531,-17.64646912,0.7256234884,18.51688008
11.46780013,-5.754738331,-17.18884087,1.155135155,18.16335874
11.47013154,-5.885745525,-16.68216133,1.560718536,17.75872601
11.47244998,-6.03888607,-16.15215111,1.660020709,17.32385059
11.47475555,-6.164509296,-15.70409489,1.569691658,16.94354458
11.47708696,-6.342774391,-15.35833168,1.293918848,16.66683428
11.47940539,-6.532405853,-15.13699627,1.004387259,16.5169542
11.48171097,-6.751348972,-14.86959839,0.6951149702,16.34530067
11.48404237,-6.881159782,-14.61835194,0.5539384484,16.16642883
11.48636081,-6.982256413,-14.39043522,0.589232564,16.00574039
11.48866638,-7.087540627,-14.20559025,0.5922235847,15.88655895
11.49099779,-7.19581604,-14.07817173,0.5712863803,15.82090566
11.49331623,-7.261618614,-13.92562962,0.5168496966,15.71373281
11.4956218,-7.269993305,-13.78684616,0.4965106845,15.59411596
11.4979532,-7.127022266,-13.79282761,0.6556333899,15.539189
11.50027164,-6.811768055,-13.94297791,1.060618639,15.55415471
11.50259013,-6.402595043,-13.90828133,1.673779488,15.40243651
11.50490857,-5.943771362,-13.80957794,2.455035925,15.23351773
11.50722706,-5.462814331,-13.84487152,3.260220766,15.23653003
11.50953263,-4.972883701,-13.93220997,4.314857483,15.40954386
11.51186399,-4.594817638,-14.3252306,5.499304771,16.01770688
11.51418248,-4.397409916,-14.73141289,6.567699909,16.7178474
11.51648805,-4.111467361,-15.00239944,6.897311211,17.01614101
11.5188194,-3.876372576,-15.03051567,6.832705021,16.95961449
11.52113789,-3.695116282,-14.89771366,6.422336102,16.63857439
11.52344347,-3.531806231,-14.67458344,5.564508915,16.08666571
11.52577482,-3.362514019,-14.39940834,4.308875561,15.40181384
11.52809331,-3.266801119,-13.9238348,2.717648268,14.55784246
11.53039888,-3.010769129,-13.33101273,0.8883354068,13.69561137
11.53273024,-2.580659151,-12.95474148,-1.003789067,13.24736656
11.53504873,-2.209771633,-12.53121185,-2.830709219,13.03561567
11.53735425,-1.768894196,-12.15434265,-4.408177376,13.04948504
11.53968565,-1.371087432,-11.61894894,-5.787639618,13.05283982
11.54200414,-0.9308080077,-11.02911758,-6.741777897,12.95991541
11.54430966,-0.4313062727,-10.30229759,-7.148557663,12.54692143
11.54664107,0.1184447184,-9.626923561,-7.09112978,11.95724918
11.54895956,0.8237292171,-9.124430656,-6.80698204,11.41353447
11.55126508,1.323230863,-8.617751122,-6.481558323,10.86403114
11.55359649,1.643270969,-8.071588516,-6.015556335,10.19989209
11.55591498,1.810170293,-7.745566845,-5.873781204,9.887963788
11.5582205,1.888535261,-7.532007694,-5.511268616,9.522173444
11.5605519,1.875374794,-7.1563344,-5.09013176,8.979955122
11.56287039,1.780858278,-7.081558704,-4.914857864,8.802031454
11.56517591,1.594218135,-7.080960274,-4.802394867,8.703133132
11.56750732,1.393221021,-7.051050186,-4.269393921,8.359790547
11.56982581,1.173081279,-7.146762848,-3.798605919,8.178126058
11.57213133,0.8494520187,-7.273582458,-3.505485058,8.118805085
11.57446274,0.5072783828,-7.401598454,-3.296711445,8.118454125
11.57678123,0.2213360965,-7.446464062,-3.108276606,8.072186826
11.57909966,-0.06699903309,-7.400402069,-2.977867842,7.977351474
11.58141815,-0.3056831062,-7.241877556,-2.890529871,7.803422046
11.58373664,-0.4935196638,-7.044469833,-2.726621389,7.569846834
11.58605508,-0.5874379873,-6.931408882,-2.675773859,7.453138817
11.58837357,-0.6897311211,-6.799803734,-2.868396044,7.412203161
11.59069206,-0.6747759581,-6.574280262,-3.098705292,7.299209412
11.5930105,-0.6777670383,-6.334998131,-3.487539053,7.26322918
11.59532899,-0.7501499057,-5.953342915,-4.048655987,7.238551792
11.59764742,-0.756131947,-5.569892883,-4.528416634,7.218171476
11.599953,-0.7639086246,-5.177470207,-4.869992256,7.148886536
11.6022844,-0.7728816867,-4.779065132,-5.059025288,7.002181553
11.60460284,-0.7495517135,-4.380061626,-5.128417015,6.785825573
11.60690841,-0.7429714203,-3.981058598,-4.821537495,6.296670382
11.60923982,-0.7345965505,-3.552145243,-4.299304008,5.625067366
11.61155826,-0.708275497,-3.271586657,-3.686143398,4.979215459
11.61386383,-0.6634100676,-3.121437073,-3.238087177,4.546283194
11.61619524,-0.6005984545,-3.008974552,-3.076571703,4.345105269
11.61851367,-0.6263213158,-2.797807932,-2.930609465,4.099814563
11.62081925,-0.5970092416,-2.551347256,-2.684148788,3.751059527
11.62315065,-0.5371887088,-2.38624239,-2.355733871,3.395910264
11.62546909,-0.4486542344,-2.225325108,-1.974078655,3.008379795
11.62777466,-0.4354937077,-2.066202402,-1.731805444,2.730933399
11.63010607,-0.3445664644,-1.986641049,-1.412363529,2.461755359
11.63242451,-0.2446661144,-1.873580098,-1.125823021,2.199463882
11.63473008,-0.1202393398,-1.816750646,-0.7866404653,1.98339195
11.63706149,0.001196411322,-1.794616938,-0.5330012441,1.87209554
11.63937992,0.05264209956,-1.807179332,-0.3702892959,1.845476223
11.6416855,0.1393819153,-1.7138592,-0.1411765367,1.725303304
11.6440169,0.1399801224,-1.612164259,-0.01734796353,1.618322892
11.64633534,0.1962114573,-1.610369682,0.1166501045,1.626467552
11.64864091,0.1692921966,-1.529013634,0.2398804724,1.556947392
11.65097232,0.09092725813,-1.348355532,0.4953143001,1.439328546
11.65329076,-0.06161518395,-1.188634634,0.6305087805,1.346918723
11.65559633,-0.2291127741,-1.062413216,0.8811569214,1.399161186
11.65792768,-0.4025924206,-1.042074203,1.036690354,1.524049275
11.66024617,-0.6669993401,-1.000199914,1.077368379,1.614314285
11.66255175,-0.798604548,-0.993021369,1.419542074,1.907605925
11.6648831,-0.9882357717,-1.040877819,1.451845169,2.041541322
11.66720159,-1.190429211,-1.083948612,1.216750264,2.018055377
11.66952008,-1.373480201,-1.084546804,0.9044869542,1.969971138
11.67183852,-1.616351724,-1.047458172,0.6496513486,2.03268502
11.67415701,-1.869392633,-0.9577272534,0.4271188378,2.143432017
11.6764755,-2.074577332,-0.9242277741,0.2919243574,2.289822682
11.67879393,-2.340778828,-0.9164510965,0.2177468538,2.52320071
11.68111242,-2.551347256,-0.8829515576,0.1968096644,2.706974384
11.683418,-2.710469961,-0.8769695163,0.2763710022,2.862185157
11.68574935,-2.881556749,-0.9044869542,0.3320041299,3.038370072
11.68806784,-3.085544825,-0.9571290612,0.3972085714,3.254912833
11.69037341,-3.247658491,-0.9948160052,0.4917250574,3.432016622
11.69270477,-3.409173965,-1.060618639,0.6191428304,3.623633103
11.69502326,-3.555136204,-1.159920812,0.6999006271,3.804506618
11.69732883,-3.701696634,-1.259222865,0.8709874153,4.005848134
11.69966018,-3.800998688,-1.366301775,1.104885817,4.187498565
11.70197867,-3.862015724,-1.478166223,1.33399868,4.345076905
11.70429716,-3.846462488,-1.611566067,1.616351724,4.472696251
11.7066156,-3.869792461,-1.736590981,1.989033818,4.684794282
11.70893409,-3.858426571,-1.918445587,2.334198475,4.90065012
11.71123966,-3.800400496,-2.079362869,2.736790895,5.124140735
11.71357102,-3.744767427,-2.274377823,3.110669374,5.373298942
11.71588951,-3.652045488,-2.496910334,3.528217077,5.658649415
11.71819503,-3.491128206,-2.737389088,3.912863255,5.91538452
11.72052643,-3.310470104,-3.025724173,4.255036831,6.182196819
11.72284492,-3.089133978,-3.355933666,4.545764923,6.439644264
11.7251505,-2.857030153,-3.719642878,4.741377831,6.669259941
11.72748185,-2.603989124,-4.136591911,4.942375183,6.951203094
11.72980034,-2.364706993,-4.581656933,5.066802025,7.228824398
11.73210586,-2.14995122,-4.999204636,5.161916733,7.500648078
11.73443727,-1.955534339,-5.541777134,5.277370453,7.898483858
11.73675576,-1.735992789,-6.131608009,5.398207664,8.351702445
11.73906128,-1.524826288,-6.765706062,5.57707119,8.899640262
11.74139268,-1.352542996,-7.399804115,5.793023586,9.494503451
11.74371117,-1.259222865,-8.127222061,6.022734642,10.19366044
11.74601669,-1.246062398,-8.904291153,6.36251545,11.0145665
11.7483481,-1.274178028,-9.638887405,6.873383045,11.90693389
11.75066659,-1.299900889,-10.47398281,7.441678524,12.91404807
11.75297211,-1.367498159,-11.37248802,8.087141991,14.02160478
11.75530352,-1.520040631,-12.29252815,8.712266922,15.14332747
11.75762201,-1.622333765,-13.17248821,9.40977478,16.26930466
11.75992753,-1.785643935,-13.99621773,9.924830437,17.25064909
11.76225893,-1.943570137,-14.8396883,10.31605625,18.17731637
11.76457742,-2.095514536,-15.66880131,10.59721375,19.03164351
11.76688294,-2.172683001,-16.47219086,10.91725349,19.88064503
11.76921435,-2.212762833,-17.25045586,11.33300591,20.75840961
11.77153284,-2.214557409,-18.03709793,11.72961617,21.62926401
11.77383836,-2.193620205,-18.77588081,12.15015507,22.47158068
11.77616977,-2.054238319,-19.34297943,12.62333584,23.18877651
11.77848826,-1.855035782,-19.61097527,13.02772331,23.61679664
11.78079378,-1.52542448,-19.68036842,13.30708504,23.80593063
11.78312518,-1.13120687,-19.46860313,13.40040493,23.66171991
11.78544367,-0.9206385016,-18.92184258,13.27358532,23.13161838
11.78774919,-0.8350951076,-18.07478333,12.95833111,22.25564021
11.7900806,-0.8338986635,-16.89871216,12.49232864,21.03140829
11.79239909,-1.024726272,-15.44925976,11.95514011,19.56157116
11.79470461,-1.278963685,-13.90947819,11.32642555,17.98324908
11.79703602,-1.556531072,-12.41456223,10.69292641,16.45851814
11.79935451,-1.753939033,-11.04706383,10.04207802,15.03187454
11.80166003,-1.929811478,-9.822537422,9.516255379,13.81178954
11.80399143,-2.052443504,-8.77448082,8.90130043,12.6663802
11.80630992,-2.122433662,-7.841279984,8.06441021,11.44661996
11.80861544,-1.967498422,-6.969694138,7.348358154,10.3172697
11.81094685,-1.707877159,-6.177071571,6.859025955,9.387187792
11.81326534,-1.437488198,-5.43649292,6.44985342,8.557010969
11.81557086,-1.232901812,-4.755136967,6.046064377,7.790139209
11.81790227,-1.010967612,-4.170091629,5.586642742,7.044309536
11.82022076,-0.8679963946,-3.619742393,5.048855782,6.272710534
11.82252628,-0.7040880919,-3.199203968,4.608576298,5.654168512
11.82485768,-0.5814558864,-2.730210543,4.405784607,5.215657059
11.82717617,-0.4103690982,-2.318047047,4.399204254,4.989463195
11.82948169,-0.3098705411,-1.85443759,4.655236244,5.020575965
11.8318131,-0.204586342,-1.371087432,4.857429981,5.051372322
11.83413159,-0.03708875179,-0.9110672474,5.046463013,5.128177848
11.83643711,0.1824527234,-0.4055834413,5.192425251,5.211436166
11.83876852,0.4414757788,0.0185443759,5.353342533,5.371547359
11.84108701,0.7196413875,0.3320041299,5.396413326,5.454299887
11.84339253,1.003190875,0.6083751321,5.444868088,5.569838483
11.84572393,1.289133191,0.7926225066,5.469992638,5.675467759
11.84804237,1.564906001,0.8039883971,5.496313572,5.771030325
11.85034794,1.747956991,0.7645068169,5.369493961,5.698358511
11.85267935,1.839482427,0.6227321029,5.199603558,5.550438544
11.85499784,1.896910191,0.3302095234,4.925625324,5.288581231
11.85731628,1.782054663,-0.2590230405,4.46620369,4.815577551
11.85963477,1.564307809,-1.081555843,3.949951887,4.383941363
11.8619532,1.230509043,-2.032104731,3.477369547,4.211377578
11.86425878,0.8189435601,-3.070589542,2.874976397,4.285402895
11.86659018,0.3326023519,-4.216153622,2.326421738,4.82688448
11.86890867,-0.1357926875,-5.500501156,1.920838356,5.827827435
11.87121419,-0.6209374666,-6.867401123,1.368694544,7.029942125
11.8735456,-1.094716311,-8.170890808,1.054636598,8.31108409
11.87586409,-1.563111424,-9.493523598,0.6305087805,9.641983662
11.87816961,-1.928016901,-10.74736309,0.2309073806,10.92137266
11.88050102,-2.218146563,-11.96949673,-0.04905286431,12.17339034
11.88281946,-2.410768747,-13.17906857,0.01555334684,13.39775713
11.88512503,-2.356332064,-14.43470287,0.8883354068,14.65271605
11.88745643,-2.347957134,-15.7866478,1.842473388,16.06629576
11.88977492,-2.260020971,-17.2420826,3.337987661,17.70704009
11.89208044,-2.194816589,-18.85065651,5.257629395,19.69281944
11.89441185,-2.200200319,-20.6183548,7.555337429,22.06899544
11.89673029,-2.360519648,-22.44826508,9.742377281,24.58476303
11.89903586,-2.494517565,-24.45584297,11.62134171,27.19129376
11.90136727,-2.598605394,-26.73680115,12.99183083,29.83952
11.90368571,-2.61714983,-29.05664444,13.28973675,32.05862072
11.90599128,-2.285145521,-30.67359352,12.2356987,33.10292362
11.90832268,-1.57028985,-31.36272621,9.723833084,32.87307919
11.91064112,-0.6299105883,-31.09712219,6.319444656,31.73898512
11.91294669,0.4145565331,-30.02753067,2.819941521,30.16250198
11.9152781,1.363310695,-28.18505859,-0.1333998591,28.21832631
11.91759654,1.881955028,-25.21436882,-2.549552441,25.41272058
11.91990211,1.777269006,-21.6227417,-4.241278172,22.10633584
11.92223352,1.091127157,-17.90908051,-5.066203594,18.64382316
11.92455196,-0.2123630047,-14.26600838,-5.44785881,15.27230365
11.92685753,-1.846660852,-10.80419254,-5.644668579,12.32895033
11.92918893,-3.440280676,-7.776673794,-5.327619553,10.03472553
11.93150737,-4.971088886,-5.313860893,-4.476971149,8.54354218
11.93381294,-6.308078766,-3.148356438,-3.536591768,7.887425899
11.93614435,-7.359724045,-1.56191504,-2.512463808,7.932060955
11.93846279,-8.170890808,-0.4654040039,-1.759322882,8.371097568
11.94076836,-8.736793518,0.2811566591,-0.9110672474,8.7886662
11.94309977,-9.022735596,0.9337990284,-0.06939185411,9.071193609
11.94541821,-9.074181557,1.47756803,1.057029366,9.254257901
11.94772378,-8.98026371,1.828116536,2.486142635,9.495685945
11.95005518,-8.739784241,1.81794703,4.071387768,9.811470753
11.95237362,-8.503493309,1.633101463,5.568696499,10.29498905
11.95467919,-8.105088234,1.351944804,6.847660065,10.69629181
11.9570106,-7.563114166,1.13120687,7.798807144,10.92253257
11.95932904,-6.796812534,0.7657032609,8.027321815,10.54612998
11.96163461,-5.83310318,0.3302095234,7.037291527,9.146453032
11.96396602,-4.743172646,-0.2386840582,5.004588604,6.899316192
11.96628446,-3.572484255,-0.8793623447,1.999801517,4.187496626
11.96859003,-2.357528448,-1.649253011,-1.346560955,3.176665277
11.97092143,-1.125224829,-2.649452925,-4.89631319,5.679754799
11.97323987,0.02751746029,-3.844069481,-8.588438988,9.409511764
11.97554544,0.9678967595,-5.197809219,-12.03829098,13.14817457
11.97787685,1.657029629,-6.488138676,-14.78525066,16.23099898
11.98019529,2.253440619,-7.688138962,-16.84068489,18.64923974
11.98250086,2.652443886,-8.684749603,-18.19980812,20.33945304
11.98483227,2.893520832,-9.578469276,-18.64367676,21.15906944
11.98715071,2.985046148,-10.54098225,-18.51685715,21.51503674
11.98945628,2.824727058,-11.68654537,-18.04307938,21.68195423
11.99178768,2.443071842,-12.83210945,-17.23609924,21.62671381
11.99410612,1.990230203,-13.57089329,-16.04267883,21.10681655
11.99641169,1.493719578,-14.16610813,-14.66321754,20.44308603
11.9987431,1.098903775,-14.63390541,-13.23709488,19.76308321
12.00106154,0.732203722,-15.12443352,-11.68235874,19.12490829
12.00336711,0.4725824594,-15.56949902,-10.01156998,18.51659167
12.00569852,0.3822534084,-15.93799305,-8.197212219,17.92651746
12.00801696,0.3858426511,-16.30469322,-6.224329948,17.4566371
12.01032253,0.5066801906,-16.78744507,-4.225724697,17.31853879
12.01265393,0.6011967063,-17.22413635,-2.695514679,17.44414257
12.01497237,0.7016952634,-17.62792397,-1.37048912,17.69503659
12.01727794,0.9924231768,-17.95992851,-0.1968096644,17.98840376
12.0196093,1.366301775,-18.16989899,0.8099704385,18.23919027
12.02192779,1.726421595,-18.28535271,1.496112347,18.42750681
12.02423336,1.903490424,-18.17109489,1.10608232,18.3039718
12.02656472,2.000399828,-17.79602051,0.3122633696,17.91081946
12.02888321,2.063809633,-17.20080566,-0.6885347366,17.33785182
12.03118878,2.11645174,-16.6534481,-1.288534999,16.83677594
12.03352018,2.156531334,-16.02413559,-1.793420553,16.26775664
12.03583862,2.170290232,-15.41875076,-1.92203474,15.68892132
12.03815711,2.188834429,-14.83250904,-1.93040967,15.11690451
12.04047555,2.152343988,-14.19003677,-1.844866276,14.47042708
12.04279404,2.094317913,-13.69113255,-1.567897081,13.93885143
12.04509961,2.043470621,-13.27418327,-1.337587833,13.49699429
12.04743096,1.97826612,-12.8949213,-1.016351461,13.08531629
12.04974946,1.890329838,-12.65683556,-0.9236295223,12.83050758
12.05205503,1.752144337,-12.50668621,-0.9260223508,12.66272985
12.05438643,1.59003067,-12.28953743,-0.9714859724,12.42999247
12.05670487,1.387837172,-12.02572823,-1.032503009,12.14949768
12.05901044,1.168893814,-11.82473087,-1.140778184,11.93699911
12.0613418,0.8973084688,-11.61476135,-1.250249863,11.71626939
12.06366029,0.6544370055,-11.50050354,-1.11445713,11.57289437
12.06596586,0.3858426511,-11.37129116,-0.7076773047,11.39982212
12.06829722,0.06221338734,-11.25284672,0.004187439568,11.25301947
12.07061571,-0.3469592929,-11.18405342,0.8536394835,11.22194867
12.07292128,-0.7531409264,-11.00997543,1.588235974,11.14940688
12.07525263,-1.131805062,-10.78205872,2.274976015,11.07742248
12.07757112,-1.423131227,-10.51406288,2.685345173,10.94449174
12.07987669,-1.625923038,-10.28853893,2.748754978,10.77280433
12.08220805,-1.896311998,-10.05045319,2.382055044,10.50151392
12.08452654,-1.97826612,-9.875777245,1.974676847,10.26371578
12.08683211,-1.868196249,-9.614361763,1.639681697,9.9304917
12.08916346,-1.685145378,-9.211769104,1.290329576,9.453113529
12.09148196,-1.346560955,-8.888139725,0.837487936,9.028490473
12.09378753,-1.021137118,-8.569295883,0.2805584669,8.634481224
12.09611888,-0.6556333899,-8.297710419,-0.4055834413,8.333447742
12.09843737,-0.2243271172,-8.019545555,-0.9332008362,8.076775184
12.10074294,0.2500499785,-7.788637638,-1.407577872,7.918754745
12.1030743,0.5359922647,-7.667201996,-1.811366796,7.896475405
12.10539279,0.6963114142,-7.323233604,-2.093719721,7.648415671
12.10769836,0.8051848412,-6.811768055,-2.402393818,7.267737111
12.11002972,0.8368897438,-6.31226635,-2.663211584,6.902013247
12.1123482,0.7621139884,-5.925227165,-2.919243574,6.649144136
12.11465378,0.6915257573,-5.576473236,-3.00837636,6.373820671
12.11698513,0.7160521746,-5.258825779,-2.867199659,6.032314081
12.11930362,0.7256234884,-4.960321426,-2.673979282,5.68167962
12.12160919,0.6610172391,-4.702494621,-2.633301258,5.429979279
12.12394055,0.6011967063,-4.593621254,-2.663211584,5.34373368
12.12625904,0.5485545993,-4.450650215,-2.517249346,5.142542538
12.12856456,0.5521438122,-4.291527271,-2.318047047,4.908707693
12.13089596,0.4719842672,-4.360321045,-2.193620205,4.903788165
12.13321446,0.3607180119,-4.698905468,-2.039881229,5.135264892
12.13553294,0.2488535494,-5.142774105,-1.565504193,5.38152924
12.13785138,0.156729877,-5.618945599,-0.9421738982,5.699544328
12.14016987,-0.05922235921,-5.992226124,-0.1932204217,5.995633022
12.14247544,-0.2937189937,-6.357131481,0.5282155871,6.385796992
12.1448068,-0.5006981492,-6.658627033,1.10608232,6.768414194
12.14712529,-0.7196413875,-6.75912571,1.400399446,6.940085208
12.14943081,-0.9762716293,-6.659225464,1.549950838,6.906572064
12.15176222,-1.159322619,-6.629314899,1.710269928,6.943836706
12.1540807,-1.223330617,-6.755536556,1.820339799,7.10263676
12.15638628,-1.4267205,-6.865606308,1.919043779,7.270131387
12.15871763,-1.706680775,-6.944569588,1.969891191,7.417565458
12.16103612,-1.963310957,-7.128218651,1.887937069,7.630884446
12.16334164,-2.223530531,-7.332206726,1.663011789,7.8403413
12.16567305,-2.482553482,-7.588238716,1.47158587,8.118497618
12.16799154,-2.767897606,-7.767700672,1.32263267,8.351514118
12.17029706,-3.083152056,-7.909475327,1.278365493,8.584861378
12.17262846,-3.309871912,-8.011170387,1.338784218,8.770772271
12.17494696,-3.466003656,-8.12961483,1.552941918,8.973040022
12.17725248,-3.613162279,-8.199604988,1.704886079,9.121134806
12.17958388,-3.794418573,-8.222934723,1.72223413,9.218479168
12.18190237,-3.911068678,-8.312665939,1.717448473,9.345935078
12.18420789,-3.945764542,-8.414361,1.593619823,9.429218048
12.1865393,-3.946960926,-8.530412674,1.49431777,9.517322446
12.18885779,-3.904488325,-8.6590271,1.414756417,9.603401226
12.19117628,-3.824328899,-8.777471542,1.296909928,9.661856632
12.19349472,-3.725026608,-8.861818314,1.170090318,9.683840065
12.1958132,-3.550350666,-8.939585686,1.062413216,9.677288046
12.19813164,-3.34875536,-8.963513374,0.9637092948,9.617040609
12.20045013,-3.077169895,-8.938388824,0.851246655,9.49149041
12.20276862,-2.794816732,-8.927022934,0.6915257573,9.379815931
12.20508711,-2.431705952,-8.904291153,0.575473845,9.248284431
12.20740555,-2.093719721,-8.839086533,0.4301098585,9.093849982
12.20972404,-1.794616938,-8.726624489,0.2267199457,8.912128077
12.21204248,-1.60678041,-8.516654015,-0.08315058798,8.667297901
12.21436097,-1.366301775,-8.294719696,-0.4211367965,8.417036983
12.21667946,-1.202991605,-8.042277336,-0.7507480979,8.166335547
12.21898498,-1.024128079,-7.88494873,-1.022333503,8.016633994
12.22131638,-0.888933599,-7.666005611,-1.347159147,7.834071913
12.22363487,-0.7674978375,-7.485945702,-1.585843205,7.690470379
12.22594039,-0.7070791125,-7.355536938,-1.848455548,7.617130196
12.2282718,-0.6305087805,-7.286743164,-2.129612207,7.617704078
12.23059029,-0.5431707501,-7.270591736,-2.353939295,7.661433864
12.23289581,-0.5383850932,-7.227520943,-2.544766903,7.681325151
12.23522722,-0.4941178858,-7.274778843,-2.520240545,7.714802143
12.2375457,-0.5742774606,-7.363313675,-2.329412937,7.744310654
12.23986419,-0.7154539824,-7.389634609,-1.877169371,7.657828602
12.24218263,-0.9074779749,-7.536793232,-1.224527001,7.689358548
12.24450112,-1.158126116,-7.622934818,-0.5820540786,7.732346235
12.24680664,-1.462612867,-7.850253105,0.03768695518,7.985432394
12.24913805,-1.828714728,-8.068597794,0.6221339107,8.296596803
12.25145654,-2.148156643,-8.411369324,1.118644595,8.753118107
12.25376206,-2.472982168,-8.711668968,1.561316729,9.189479144
12.25609347,-2.725425005,-9.004789352,1.832902193,9.585077109
12.25841196,-2.971287489,-9.293723106,1.91365993,9.943034388
12.26071748,-3.163311481,-9.582057953,1.814357758,10.25252497
12.26304888,-3.242274761,-9.896714211,1.439282775,10.51326936
12.26536737,-3.235096216,-10.05105114,0.9726824164,10.60356485
12.26767289,-3.08434844,-10.13539886,0.3068794906,10.59875891
12.2700043,-2.810968399,-10.17308521,-0.3726821244,10.56087582
12.27232279,-2.432304144,-10.19462109,-1.065404296,10.53477522
12.27462831,-1.847259045,-10.33998489,-1.655833244,10.63341137
12.27695972,-1.15393877,-10.43988514,-2.101496458,10.71163217
12.2792782,-0.4773681164,-10.16530895,-2.346162558,10.4434604
12.28158373,0.2494517565,-9.97567749,-2.536990166,10.29624624
12.28391513,0.993021369,-9.920044899,-2.668595552,10.3206
12.28623362,1.689931035,-10.12941647,-2.679961443,10.61334717
12.28853914,2.303689957,-10.26819992,-2.606980324,10.84155263
12.29087055,2.82831645,-10.32802105,-2.401795626,10.97433437
12.29318904,3.273381472,-10.46082211,-2.133799553,11.16677778
12.29549456,3.599403381,-10.62532902,-1.791625977,11.36060056
12.29782597,3.857828379,-10.79641533,-1.377667665,11.54744093
12.30014446,4.08873558,-10.96331501,-0.9690931439,11.74100405
12.30244998,4.220340729,-11.1948204,-0.5700899959,11.97749065
12.30478138,4.210769653,-11.30489063,-0.2452643216,12.06612149
12.30709987,4.161716938,-11.52144146,0.06640082598,12.25022082
12.30940539,3.997808456,-11.71705437,0.2949153781,12.38381244
12.3117368,3.799204111,-11.87019539,0.537786901,12.47496313
12.31405529,3.547957659,-11.9910326,0.8129615188,12.5313117
12.31636081,3.299104214,-12.04427242,1.059422255,12.53279547
12.31869222,2.978466034,-12.18604755,1.129412293,12.59549868
12.3210107,2.626721144,-12.25663567,1.155135155,12.58805462
12.32332914,2.206780672,-12.41575813,1.104885817,12.65866121
12.32564763,1.727617979,-12.50369453,1.000798106,12.66209452
12.32796612,1.225125194,-12.60180092,0.9493523836,12.69675502
12.33027164,0.7944171429,-12.71785259,0.9463613629,12.77773348
12.33260305,0.3541377485,-12.85783291,0.9577272534,12.8983147
12.33492154,-0.04067798331,-12.91047478,1.021137118,12.95085845
12.33722706,-0.3960121572,-13.04327583,1.143769264,13.09931594
12.33955847,-0.6957131624,-13.13659668,1.270588875,13.21622432
12.34187696,-0.9517452121,-13.22871971,1.402194023,13.33682842
12.34418248,-1.137188911,-13.28076363,1.553540111,13.41958896
12.34651388,-1.281356573,-13.30349541,1.71924305,13.47518688
12.34883237,-1.36211431,-13.35314655,1.871785522,13.55232302
12.35113789,-1.414756417,-13.3968153,2.029113531,13.62327045
12.3534693,-1.412961721,-13.48774338,2.148754835,13.73072575
12.35578779,-1.374676585,-13.52064419,2.221735716,13.77075396
12.35810623,-1.351346612,-13.51047516,2.264806747,13.76547952
12.36042472,-1.244267821,-13.40219975,2.24566412,13.64588465
12.36274321,-1.120439172,-13.39442253,2.23728919,13.62612938
12.36506164,-0.9672985673,-13.43869019,2.252842426,13.66050363
12.36738013,-0.775872767,-13.66002655,2.327618122,13.87862061
12.36969862,-0.5419743061,-13.88495159,2.374278307,14.09690797
12.37201706,-0.3008974493,-14.14337635,2.407179594,14.34991803
12.37433555,-0.01316052489,-14.39163208,2.363510609,14.58442421
12.37665404,0.3098705411,-14.68654728,2.277967215,14.86539019
12.37897248,0.680758059,-14.96112347,2.106282234,15.12398994
12.38129097,1.042672515,-15.2225399,1.944766641,15.38164505
12.38360946,1.38185513,-15.55574036,1.73060894,15.71259332
12.38591498,1.645065546,-15.91944885,1.559522152,16.08002493
12.38824638,1.810768485,-16.17009735,1.338784218,16.32615307
12.39056487,2.02073884,-16.0887413,1.125224829,16.25414141
12.39287039,2.140379906,-16.04327774,0.8967102766,16.21024602
12.3952018,2.206780672,-16.14796448,0.7022934556,16.31318037
12.39752029,2.230110645,-16.26760483,0.589232564,16.43032426
12.39983873,2.269592285,-16.29093552,0.4893322289,16.45554846
12.40215722,2.342573404,-16.14497185,0.4510470629,16.3202699
12.40447571,2.409572363,-15.8123703,0.4875376225,16.0023369
12.40679414,2.48793745,-15.35893059,0.5802595019,15.56994806
12.40911263,2.526222467,-14.86780357,0.7244270444,15.09828393
12.41143112,2.562713146,-14.46820259,0.8027920127,14.71532738
12.41374956,2.59740901,-14.14098358,0.7770691514,14.39853419
12.41606805,2.629113913,-14.01057434,0.6000002623,14.26774101
12.41838654,2.545365095,-13.8735857,0.4648058116,14.11280653
12.42070498,2.447857618,-13.81795216,0.5210371017,14.04276641
12.42302346,2.320439816,-13.75334644,0.7764709592,13.96931947
12.42534196,2.234896421,-13.65404415,0.9990034699,13.87175878
12.42766039,2.260619164,-13.59541988,1.147358418,13.82976038
12.42997888,2.301297188,-13.48893929,1.141974568,13.73140771
12.43229737,2.201396942,-13.32323647,1.144965649,13.55233282
12.43461581,2.016551256,-13.18864059,1.152144074,13.39157032
12.4369343,1.794616938,-13.08814144,1.115653515,13.25763098
12.43925279,1.537986755,-13.09472179,0.9840483069,13.22140285
12.44157128,1.223330617,-13.38066387,0.7357929349,13.45660041
12.44388972,0.9601200819,-13.65583897,0.5826523304,13.70194337
12.44620821,0.70348984,-13.92562962,0.6299105883,13.95760887
12.44852669,0.4348955154,-14.07637787,0.7477570772,14.10293192
12.45084513,0.08434699476,-14.24267864,0.9990034699,14.27792062
12.45316362,-0.299701035,-14.41436386,1.359721422,14.48145533
12.45546914,-0.7280163169,-14.62493229,1.834098577,14.75745811
12.45780055,-1.156331539,-14.82592869,2.409572363,15.06490302
12.46011904,-1.539781332,-14.9778738,3.06999135,15.36660265
12.46242461,-1.915454507,-15.14896011,3.549752474,15.67675672
12.46475596,-2.278565407,-15.23450375,3.942773581,15.90054805
12.46707446,-2.582453728,-15.3415823,4.141377926,16.09919954
12.46937998,-2.81695056,-15.47737503,4.021138668,16.23742296
12.47171138,-2.976073265,-15.66401482,3.620340586,16.35008374
12.47402987,-3.094517946,-15.87936974,2.995813847,16.45312509
12.47633539,-3.273381472,-16.05763435,2.146361828,16.52784065
12.4786668,-3.486940861,-16.17966843,1.172483087,16.59262317
12.48098529,-3.633501291,-16.28614998,0.1704886109,16.68742278
12.48329081,-3.718446493,-16.35733604,-0.912861824,16.79948224
12.48562222,-3.757927895,-16.3651123,-1.957927108,16.90480409
12.48794071,-3.842873096,-16.28256035,-2.998805046,16.9965372
12.49024628,-3.777070522,-16.33041573,-3.88056016,17.20486811
12.49257763,-3.608974695,-16.48654747,-4.684548378,17.51502039
12.49489612,-3.424129248,-16.63729668,-5.325226784,17.80118935
12.49720164,-3.223132133,-16.86341667,-5.813362598,18.12618513
12.49953305,-3.075375319,-17.12483406,-6.205785751,18.47240244
12.50185154,-2.904886723,-17.38505363,-6.397809505,18.75127791
12.50415706,-2.818745136,-17.57109451,-6.39601469,18.91025358
12.50648846,-2.80857563,-17.6566391,-6.20458889,18.92463803
12.50880696,-2.890529871,-17.73978806,-5.861218929,18.90526727
12.51111253,-3.008974552,-17.70808411,-5.418546677,18.76141835
12.51344388,-3.131606579,-17.5322113,-4.934598446,18.48068329
12.51576237,-3.293720484,-17.34736633,-4.378865242,18.19214595
12.51808086,-3.482155085,-17.08176231,-3.725026608,17.82660458
12.5203993,-3.595814228,-16.77129364,-3.002992392,17.41333207
12.52271779,-3.745963812,-16.53320885,-2.280359983,17.10494903
12.52502336,-3.982853174,-16.28315735,-1.549950838,16.83468682
12.52735472,-4.186243057,-16.16650772,-0.9517452121,16.72681744
12.5296732,-4.401597023,-16.04148293,-0.6634100676,16.64762276
12.53197878,-4.609772682,-16.17069626,-0.4307080805,16.82043195
12.53431013,-4.798805714,-16.25623894,-0.3320041299,16.95299582
12.53662862,-4.933402061,-16.21675682,-0.457029134,16.95672531
12.53893419,-5.095515728,-16.15334702,-0.6305087805,16.94970329
12.54126555,-5.251647472,-16.13839149,-0.8279166222,16.99155458
12.54358404,-5.366502762,-16.08335686,-0.9385846853,16.98100883
12.54590253,-5.452046394,-15.88415527,-1.040877819,16.82601038
12.54822096,-5.584249973,-15.55633831,-1.082752228,16.56369107
12.55053946,-5.688337803,-15.25125313,-0.9810572863,16.30706541
12.55285794,-5.706882,-14.96770382,-0.7734799385,16.03742283
12.55517638,-5.7038908,-14.67877007,-0.3272185028,15.7514359
12.55749487,-5.684150219,-14.5328083,0.3493520916,15.60878367
12.55980044,-5.615356445,-14.48196125,1.15094769,15.57511189
12.56213185,-5.478367329,-14.37607861,2.167299032,15.53645165
12.56445029,-5.413761139,-14.04168129,3.095714331,15.36427904
12.56675586,-5.38923502,-13.7413826,3.838087559,15.25124146
12.56908722,-5.318646431,-13.50808239,4.399204254,15.16935357
12.5714057,-5.176273346,-13.164114,4.555934429,14.8608291
12.57371128,-5.067399979,-12.93559933,4.526622295,14.61159067
12.57604263,-4.996811867,-12.83330631,4.28315258,14.42245734
12.57836112,-4.820939541,-12.89671612,4.070191383,14.35733968
12.58067961,-4.67976284,-12.98166084,3.323630571,14.19402052
12.5829981,-4.555335999,-12.92363548,1.916650891,13.8363648
12.58531654,-4.456632137,-12.72742367,0.2327020019,13.48714327
12.58762211,-4.405186653,-12.43131161,-1.281356573,13.25085101
12.58995346,-4.235894203,-12.15075302,-2.513062,13.11102892
12.59227196,-4.038486481,-11.86062336,-3.681955814,13.05911782
12.59457753,-3.789632797,-11.70748329,-4.892126083,13.24233285
12.59690893,-3.589832067,-11.55553913,-5.864808083,13.44668557
12.59922737,-3.433700562,-11.26540947,-6.699903488,13.54948179
12.60153294,-3.211766243,-10.86760235,-7.135396957,13.39156873
12.6038643,-2.880360365,-10.4793663,-6.887141705,12.86648028
12.60618279,-2.509472847,-10.20120144,-6.432505608,12.31824229
12.60848836,-2.187039852,-9.9140625,-5.902495384,11.74356123
12.61081972,-1.939980984,-9.60419178,-5.048855782,11.02247571
12.6131382,-1.697109461,-9.107083321,-4.18205595,10.16409067
12.61544378,-1.389033556,-8.854042053,-3.522833109,9.629840498
12.61777513,-1.200000525,-8.638090134,-3.427120209,9.370259086
12.62009362,-0.8817551732,-8.481359482,-3.182454109,9.101591345
12.62239919,-0.5820540786,-8.367102623,-2.846860647,8.857302569
12.6247306,-0.2500499785,-8.219944,-2.444268227,8.579303674
12.62704904,0.03409772366,-8.078168869,-2.089532375,8.344106931
12.62935461,0.2500499785,-7.990831375,-1.911865234,8.220166649
12.63168602,0.4336991012,-7.852645874,-2.097309113,8.139462368
12.63400446,0.6137589812,-7.709674358,-2.449652195,8.112741502
12.63631003,0.8608179688,-7.704888821,-2.876770973,8.269348859
12.63864143,1.049850941,-7.663014412,-3.404388428,8.450670828
12.64095987,1.247258782,-7.567899704,-3.957130432,8.630622322
12.64326544,1.463809252,-7.414759159,-4.12821722,8.611827235
12.64559685,1.680359721,-7.255636692,-4.313062668,8.606415176
12.64791529,1.808973908,-7.152146816,-4.623531342,8.70647074
12.65022086,1.896311998,-7.060023308,-5.09073019,8.908168284
12.65255227,1.924427629,-6.863213539,-5.615954876,9.074473591
12.6548707,1.904686809,-6.557530403,-5.986244202,9.080977726
12.65717628,1.861616015,-5.986842155,-5.981458187,8.66520255
12.65950768,1.743769526,-5.403591633,-5.805585861,8.120613394
12.66182612,1.67437768,-4.765904427,-5.715256691,7.627682785
12.66413169,1.599003673,-4.095315933,-5.672784328,7.176970627
12.6664631,1.533201098,-3.467200041,-5.415555954,6.610629926
12.66878154,1.502094388,-2.96291256,-4.980660439,5.986828609
12.67108711,1.490130305,-2.602194548,-4.587639332,5.480724353
12.67341852,1.506281853,-2.44247365,-4.164109707,5.057111053
12.67573696,1.385444283,-2.295913219,-3.817748547,4.665391445
12.67804253,1.354935765,-2.166102648,-3.413361549,4.263670798
12.68037393,1.320239902,-2.027318954,-3.133401155,3.95869402
12.68269242,1.201196909,-1.895713687,-2.992224693,3.740322581
12.68499794,1.127019525,-1.829911113,-2.869592667,3.585151289
12.68732935,0.9499505758,-1.752742529,-3.024527788,3.622468883
12.68964784,0.7190431952,-1.335195065,-2.94377017,3.311427455
12.69195336,0.5682953596,-0.8871390224,-2.881556749,3.068117429
12.69428477,0.5976074338,-0.6077769399,-2.711666346,2.842474595
12.69660326,0.6616154313,-0.3894318938,-2.450250387,2.567706981
12.69890878,0.775872767,-0.2231307179,-2.306680918,2.443878623
12.70124018,0.7477570772,-0.04606183618,-2.313261271,2.431550955
12.70355867,0.7776673436,0.07956135273,-2.333600283,2.461053999
12.70586419,0.8464609981,0.1770688742,-2.319243431,2.475225182
12.7081956,0.8703892231,0.3361915946,-2.252842426,2.438421864
12.71051409,0.8709874153,0.4803591371,-2.191825628,2.406961479
12.71281961,0.8829515576,0.5288137794,-2.067996979,2.309947829
12.71515102,0.8183453679,0.5760720372,-1.90229404,2.149481507
12.71746951,0.7166503668,0.5982056856,-1.717448473,1.954754984
12.71978794,0.5527420044,0.6137589812,-1.63788712,1.834365838
12.72210643,0.3649054468,0.6669993401,-1.597209096,1.768932164
12.72442492,0.1208375469,0.694516778,-1.551745534,1.704367762
12.72674336,-0.1417747438,0.7028916478,-1.563709617,1.720274545
12.72906185,-0.3655036688,0.6927221417,-1.546361685,1.733404557
12.73138034,-0.5527420044,0.7076773047,-1.509871125,1.756713325
12.73369878,-0.6801598072,0.685543716,-1.563709617,1.837872497
12.73601727,-0.8733802438,0.3924229145,-1.529611826,1.804577827
12.73833576,-1.098903775,0.2530409992,-1.439880967,1.82890034
12.74065425,-1.360917926,0.05024927482,-1.412363529,1.961987087
12.74297268,-1.611566067,-0.07118647546,-1.361516118,2.110909482
12.74529117,-1.851446509,-0.2159522474,-1.314856052,2.281082197
12.74759669,-2.042872429,-0.3786641955,-1.314856052,2.458772208
12.7499281,-2.151745796,-0.6071787477,-1.262213945,2.567461791
12.75224659,-2.223530531,-0.8057830334,-1.15094769,2.630219554
12.75456508,-2.331207514,-0.9517452121,-0.926620543,2.683090206
12.75688352,-2.405385017,-1.082752228,-0.7597211599,2.745069345
12.75920201,-2.426920414,-1.236491084,-0.5108676553,2.771252182
12.7615205,-2.436491728,-1.351346612,-0.1381855011,2.789574311
12.76383893,-2.422134638,-1.493719578,0.2973082066,2.861175729
12.76615742,-2.393420935,-1.645663738,0.8422735929,3.024251596
12.768463,-2.407777786,-1.823330879,1.373480201,3.317887464
12.77079435,-2.375474691,-1.960918188,1.97527504,3.659206421
12.77311284,-2.36650157,-2.132004976,2.592025042,4.106624979
12.77541841,-2.314457655,-2.307279348,3.27577424,4.627196679
12.77774977,-2.263011932,-2.482553482,3.983451605,5.210775517
12.78006826,-2.190030813,-2.762513638,4.740181446,5.907371387
12.78237383,-2.107478619,-3.043072224,5.453242779,6.590873348
12.78470518,-2.030908108,-3.303889751,6.257829189,7.362112563
12.78702367,-2.004587173,-3.632902861,7.023532867,8.157595655
12.78932925,-1.982453585,-3.977469444,7.760521889,8.942934942
12.7916606,-2.026720762,-4.341776848,8.540582657,9.792863492
12.79397909,-2.122433662,-4.788636208,9.501898766,10.84996966
12.79628466,-2.291127682,-5.237888813,10.59123135,12.0357354
12.79861602,-2.609971285,-5.694917679,11.42692471,13.03144833
12.80093451,-3.004786968,-6.230910301,12.37627697,14.17833628
12.80324008,-3.477967739,-6.797410965,13.24427319,15.28763643
12.80557149,-4.060619831,-7.371688366,13.93998623,16.28353889
12.80788992,-4.765306473,-8.026723862,14.19601822,16.99009638
12.8101955,-5.376074314,-8.689535141,13.96630764,17.30514216
12.8125269,-5.801996708,-9.570094109,13.40638733,17.46370775
12.81484534,-6.153143406,-10.49192905,12.5940237,17.50860309
12.81715091,-6.382854462,-10.8682003,12.06999588,17.45117215
12.81948232,-5.875576019,-11.62493038,11.99880886,17.70968136
12.82180076,-5.084149837,-12.79681587,12.25723362,18.43493564
12.82410633,-4.938187599,-13.75514126,11.44068336,18.56014126
12.82643774,-4.750949383,-14.50648689,10.80359459,18.70099832
12.82875617,-4.389034748,-15.190835,10.10608673,18.76587549
12.83106175,-3.82731986,-15.97986794,9.759127617,19.1113874
12.83339315,-3.132802963,-16.98784447,9.176474571,19.56039365
12.83571164,-2.565704107,-18.08495331,8.621339798,20.19841265
12.83801716,-2.209771633,-18.92782593,8.03928566,20.68274157
12.84034857,-1.881356835,-19.62234116,7.317251682,21.02660097
12.84266706,-1.800599098,-20.07279015,7.054639339,21.35244711
12.84497258,-2.045265198,-20.1792717,7.019943237,21.46312463
12.84730399,-2.508874655,-19.95494461,7.023532867,21.30315189
12.84962248,-3.001796007,-19.32264137,6.876374245,20.7282361
12.851928,-3.44147706,-18.29133415,6.654439926,19.76608813
12.8542594,-3.762115479,-16.91605949,6.479763508,18.5011869
12.85657789,-3.868596077,-15.32961845,6.205187321,16.98433358
12.85888341,-3.847658873,-13.66301727,5.911468506,15.37621474
12.86121482,-3.82731986,-11.95394325,5.507679462,13.7069205
12.86353331,-3.869792461,-10.37527943,5.085944653,12.18558779
12.86583883,-3.883551121,-9.035896301,4.866403103,10.97320693
12.86817024,-3.875774384,-7.826324463,4.676173687,9.906542385
12.87048873,-3.979862213,-6.676573277,4.462016106,8.962450651
12.87279425,-4.082753658,-5.598606586,4.267001152,8.137602348
12.87512565,-4.265804768,-4.58943367,4.176671982,7.53024439
12.87744414,-4.408775806,-3.651447296,4.111467361,7.048016411
12.87974966,-4.463810444,-2.601596355,3.998406649,6.533082198
12.88208107,-4.576871395,-1.706680775,3.838685751,6.212569463
12.88439956,-4.793421745,-0.8285148144,3.668197155,6.092536351
12.88670508,-5.062614441,0.1166501045,3.735196114,6.292484583
12.88903649,-5.24506712,0.8763712645,3.775874138,6.521961452
12.89135498,-5.368297577,1.434497118,3.665804386,6.656915401
12.89366055,-5.325825214,1.810768485,3.710669756,6.738869843
12.8959919,-5.199005604,1.901097536,4.226323128,6.964598932
12.89831039,-5.034498692,1.935195327,5.076971531,7.407212563
12.90061596,-4.764708042,1.765304923,5.972485542,7.841513103
12.90294732,-4.596612453,1.47756803,6.768098831,8.313796673
12.90526581,-4.41236496,1.118644595,7.530212879,8.799115653
12.90757133,-4.225126743,0.5042873621,8.180462837,9.220952986
12.90990274,-4.140181541,-0.2027917206,8.796614647,9.724333238
12.91222123,-4.104887009,-0.9601200819,9.241679192,10.15778333
12.9145268,-4.19581461,-1.788036704,9.661619186,10.68404515
12.91685815,-4.255036831,-2.791825771,10.17966557,11.38091475
12.91917664,-4.403990269,-3.769293785,10.55234814,12.03971582
12.92148222,-4.576871395,-5.204987526,10.5661068,12.63654461
12.92381357,-4.995615482,-6.747759819,10.06361389,13.10590558
12.92613206,-5.319244862,-8.24506855,9.503693581,13.66000413
12.92843763,-5.450251579,-9.738788605,8.663812637,14.12837199
12.93076899,-5.361717224,-11.16491032,7.57806921,14.51999886
12.93308748,-5.519045353,-12.4109726,5.678168297,14.72187819
12.93539305,-5.442475319,-13.74257851,3.970889091,15.30512861
12.93772446,-5.294120312,-15.0281229,2.736790895,16.16670072
12.94004289,-5.163113117,-16.22333717,1.554138303,17.09589869
12.94234846,-5.15533638,-17.10748482,1.060020447,17.89880368
12.94467987,-5.145166874,-17.7696991,1.289133191,18.54445503
12.94699831,-5.324030399,-18.41157341,1.968694806,19.26673544
12.94930388,-5.799603939,-18.84347916,3.236890793,19.97972909
12.95163529,-6.386443615,-19.29512405,5.262415409,20.99479674
12.95395373,-7.241279602,-19.98306084,7.701898098,22.60703618
12.9562593,-8.099704742,-20.95933151,10.31127071,24.72288612
12.9585907,-8.964112282,-22.02653122,12.75793171,26.98681545
12.96090914,-9.839884758,-23.00938225,14.55613804,28.95058131
12.96321472,-10.35075283,-24.08615303,15.13639832,30.27195742
12.96554612,-9.758528709,-24.83331108,13.86401463,30.06880648
12.96786456,-8.313861847,-25.02054977,10.89631653,28.52854577
12.97017013,-6.803991318,-24.70888519,7.229913712,26.62883696
12.97250154,-5.284548759,-24.05444717,4.085744858,24.96469899
12.97482003,-3.797409534,-22.81795692,1.928615093,23.21204501
12.97712555,-2.47358036,-20.96531296,0.4055834413,21.11462633
12.97945696,-1.476969719,-18.70648956,-0.9900303483,18.79080497
12.98177544,-1.117448211,-16.20240021,-2.207378864,16.39021002
12.98408096,-1.362712502,-13.77069473,-3.362514019,14.24062918
12.98641237,-2.16131711,-11.39462185,-4.293322086,12.36694438
12.98873086,-3.215355396,-9.254241943,-4.785645485,10.90329799
12.99103638,-4.34775877,-7.110272408,-4.926223755,9.681253045
12.99336779,-5.268995285,-4.414757729,-5.33539629,8.701657927
12.99568628,-6.004190445,-2.906083107,-5.934798241,8.92846303
12.9979918,-6.488736629,-1.640878081,-6.83569622,9.56676156
13.0003232,-6.819544315,-0.6999006271,-7.861020565,10.43032549
13.00264169,-7.011568546,0.09152546525,-8.507680893,11.02502175
13.00494722,-7.041478634,0.9361918569,-8.72423172,11.25038202
13.00727862,-6.926024914,1.621137381,-8.070392609,10.75774811
13.00959711,-6.717251301,2.012962103,-6.82133913,9.782849738
13.01190263,-6.427121639,2.014158487,-4.944169998,8.355210587
13.01423404,-6.234499454,1.749153376,-2.455035925,6.92500703
13.01655253,-6.151947021,1.486541033,0.0568295382,6.329256354
13.01885805,-6.033502102,1.05224371,2.741576433,6.710186717
13.02118946,-5.892923832,0.55154562,5.446064472,8.043032519
13.02350794,-5.7038908,-0.03050848842,7.589435101,9.493936285
13.02581352,-5.340780258,-0.9613165259,8.715258598,10.26663507
13.02814487,-4.661218643,-1.902892232,7.989634991,9.443634119
13.03046336,-3.64127779,-2.897109985,5.324628353,7.071337731
13.03276893,-2.309073925,-4.0157547,1.566700578,4.890057147
13.03510029,-0.8219345808,-5.266004562,-2.661417007,5.9573082
13.03741878,0.6885347366,-6.559325218,-7.256234646,9.805700823
13.03972435,1.990230203,-7.799405575,-11.51007557,14.04541146
13.04205571,3.137588739,-9.108877182,-14.78644753,17.6480916
13.04437419,3.942175388,-10.38604641,-17.05962944,20.35784034
13.04667977,4.469194412,-11.56690502,-18.27697754,22.08653206
13.04901112,4.608576298,-12.5491581,-18.75972939,23.03579369
13.05132961,4.579264164,-13.32263851,-18.56351852,23.3037889
13.05363518,4.435096741,-13.92443275,-17.59681702,22.87373777
13.05596659,4.213162422,-14.50349617,-15.96850204,21.97942666
13.05828503,3.904488325,-15.08375549,-14.31147194,21.15615603
13.0605906,3.519842148,-15.60838223,-12.75135231,20.45990885
13.06292201,3.096910715,-16.15813255,-11.13380337,19.8654897
13.06524044,2.703291416,-16.53919029,-9.555737495,19.29157119
13.06754602,2.170888424,-16.95673752,-7.777870178,18.78134629
13.06987742,1.822732687,-17.47119522,-6.126822472,18.6038429
13.07219586,1.506281853,-18.06162262,-4.584648132,18.69518909
13.07450143,1.264008522,-18.35713768,-3.124428272,18.66398332
13.07683284,1.184447169,-18.52942085,-1.517049551,18.6291114
13.07915128,1.284945726,-18.85065651,0.09870393574,18.89465741
13.08145685,1.52542448,-18.95773506,1.413560033,19.07146535
13.08378826,1.880758643,-18.89552307,2.131406784,19.10813806
13.08610669,2.315055847,-18.74118423,2.191825628,19.01040688
13.08841227,2.719442844,-18.3481636,1.653440475,18.62214656
13.09074367,3.115455151,-17.76850319,0.9367900491,18.06386841
13.09306211,3.497110367,-16.98305893,0.162113741,17.34013703
13.09536768,3.794418573,-16.10788345,-0.5575276613,16.55815083
13.09769909,3.933202267,-15.18425465,-1.25503552,15.73552616
13.10001758,3.915256023,-14.32104397,-1.833500385,14.95938681
13.1023231,3.794418573,-13.60858059,-2.173281193,14.29385284
13.10465451,3.659822226,-12.99781227,-2.23130703,13.68634917
13.106973,3.390031576,-12.4803648,-2.362314224,13.14657172
13.10927852,3.149552822,-12.06820107,-2.24267292,12.67244024
13.11160992,2.837887764,-11.55613708,-1.991426587,12.06497788
13.11392841,2.4173491,-11.06142044,-1.674975872,11.44570413
13.11623393,1.968694806,-10.5858469,-1.367498159,10.85384563
13.11856534,1.517049551,-10.05344391,-0.9744769931,10.21385232
13.12088383,1.094716311,-9.534201622,-0.524028182,9.611139886
13.12318935,0.6771687865,-9.00538826,-0.1549352705,9.032141508
13.12552076,0.3607180119,-8.560921669,0.3972085714,8.577719508
13.12783925,0.1375873089,-8.367700577,0.8853443861,8.415531944
13.13014477,-0.1262213886,-8.234300613,1.240080357,8.328111294
13.13247617,-0.3984049559,-8.086544037,1.422533035,8.220372328
13.13479466,-0.6574280262,-7.92443037,1.60977149,8.112963241
13.13710018,-0.8931210637,-7.680362701,1.634297848,7.90294666
13.13943159,-1.152144074,-7.393822193,1.524826288,7.636827732
13.14175008,-1.386042476,-7.182655334,1.493121386,7.465993763
13.1440556,-1.627717614,-7.054041386,1.356132269,7.365328182
13.14638701,-1.863410592,-6.930212498,1.224527001,7.28008315
13.1487055,-2.066202402,-6.824928284,1.174277663,7.226878059
13.15101102,-2.234896421,-6.857829571,0.9672985673,7.277379676
13.15334242,-2.489732027,-6.902695179,0.7603194118,7.377265883
13.15566091,-2.886940479,-6.969694138,0.5144568682,7.561463322
13.15796649,-3.226721287,-7.069594383,0.3643072546,7.779692461
13.16029784,-3.626920938,-6.993024349,0.07896314561,7.878018801
13.16261633,-4.067798615,-6.816553593,-0.2841476798,7.943118302
13.1649219,-4.559523582,-6.68016243,-0.6472585201,8.113739519
13.16725326,-4.92502737,-6.641279221,-1.089332461,8.339612071
13.16957175,-5.050052166,-6.692724705,-1.343569875,8.491217278
13.17187732,-4.869992256,-6.832705021,-1.283749342,8.488268071
13.17420867,-4.386641979,-7.113861561,-1.229312658,8.447535959
13.17652716,-3.722633839,-7.391428947,-0.9541380405,8.330762509
13.17884565,-2.86480689,-7.677371502,-0.5629115105,8.21377021
13.18116409,-2.260619164,-7.663014412,-0.3912265003,7.999077888
13.18348258,-1.607976794,-7.787441254,-0.4893322289,7.966760739
13.18578815,-1.000199914,-7.835297585,-0.5647061467,7.919039155
13.18811951,-0.3918247223,-7.701299667,-0.6939185858,7.742419918
13.190438,0.06460621208,-7.445865631,-0.7866404653,7.487582532
13.19274357,0.3355933726,-7.396812916,-0.8464609981,7.452647881
13.19507498,0.5312066078,-7.316055298,-1.165304661,7.42729968
13.19739341,0.6293123364,-7.207181931,-1.237089276,7.339611384
13.19969899,0.72323066,-7.104290485,-1.298704505,7.258142964
13.20203039,0.8267202377,-7.054041386,-1.336391449,7.226957059
13.20434883,0.9810572863,-7.089335442,-1.444666624,7.301247295
13.2066544,1.180259824,-7.185646534,-1.585245013,7.452484895
13.20898581,1.352542996,-7.331010342,-1.744965911,7.656238712
13.21130425,1.500898004,-7.318448067,-1.872383714,7.701830801
13.21360982,1.601994753,-7.335197926,-1.947757602,7.756627841
13.21594123,1.708475351,-7.404589653,-1.931606054,7.840786817
13.21825966,1.698904037,-7.438687325,-1.845464468,7.850228222
13.22057815,1.762912035,-7.503891945,-1.825723648,7.921459462
13.22289664,1.845464468,-7.559525013,-1.78145647,7.98284064
13.22521508,1.893320918,-7.76949501,-1.694118381,8.174335074
13.22753357,1.944168448,-7.902894974,-1.654038668,8.304901194
13.22985206,1.943570137,-7.888537884,-1.659422517,8.292175704
13.23217055,1.931606054,-7.78325367,-1.72223413,8.202208851
13.23448899,1.887937069,-7.716853142,-1.804188251,8.14673088
13.23680748,1.835893154,-7.73300457,-1.832902193,8.156555266
13.23912597,1.752144337,-7.825726509,-1.808973908,8.220972678
13.2414444,1.648056626,-7.885547161,-1.737787485,8.241228672
13.24376289,1.600798368,-7.771289825,-1.558325768,8.086029938
13.24608138,1.536790371,-7.594819069,-1.316650629,7.859807263
13.24839982,1.516451359,-7.42672348,-1.112662554,7.661192096
13.25071831,1.527817249,-7.344769001,-0.9607182741,7.563255703
13.2530368,1.526620865,-7.277172089,-1.022931695,7.505610843
13.25535524,1.451246977,-7.341778278,-0.9469595551,7.543511018
13.25767373,1.356132269,-7.425527096,-0.7423732281,7.584765348
13.25999222,1.24965167,-7.436892986,-0.4378865361,7.553856711
13.26231065,1.065404296,-7.445267677,-0.07716853172,7.521505972
13.26462914,0.8057830334,-7.441080093,0.2309073806,7.488142458
13.26694763,0.561715126,-7.393223763,0.6861419082,7.446211937
13.26925315,0.3170489967,-7.316653252,1.24666059,7.428869194
13.27158456,0.05084748194,-7.331010342,1.797608018,7.548356952
13.27390305,-0.09990034252,-7.348358154,2.259422779,7.688519944
13.27620857,-0.1980060786,-7.393223763,2.730808735,7.883925441
13.27853998,-0.2638086975,-7.542775154,3.136392355,8.173127251
13.28085847,-0.3092723191,-7.692326546,3.314059258,8.381558675
13.28316404,-0.3302095234,-7.807780266,3.333800077,8.4961576
13.28549539,-0.2739782035,-7.941180229,3.302095175,8.604721961
13.28781388,-0.1214357466,-8.076972961,3.136990547,8.665618763
13.29013237,0.03349951655,-8.266005516,2.863012314,8.747845959
13.29245081,0.2644068897,-8.419744492,2.465803623,8.777368388
13.2947693,0.5126622319,-8.640482903,1.987239242,8.880871982
13.29708779,0.7573283911,-8.890532494,1.47158587,9.043267069
13.29940623,0.9577272534,-9.092725754,0.9164510965,9.188840283
13.30172472,1.128814101,-9.243474007,0.2805584669,9.316369789
13.30403029,1.257428288,-9.400203705,-0.3756731451,9.491369022
13.30636169,1.29451704,-9.554540634,-0.941575706,9.687702819
13.30868013,1.296311617,-9.732806206,-1.255633712,9.89871489
13.3109857,1.249053478,-9.873384476,-1.421934843,10.05314649
13.31331706,1.040877819,-9.945169449,-1.380658627,10.09435685
13.31563555,0.8494520187,-9.968499184,-1.190429211,10.07520056
13.31795404,0.6293123364,-10.03131104,-0.9439685345,10.09526184
13.32027253,0.4121637046,-10.02114105,-0.6981059909,10.05387979
13.32259097,0.1944168359,-9.958928108,-0.5144568682,9.974102107
13.32490946,-0.01555334684,-9.814760208,-0.3601198196,9.821376998
13.32722794,-0.2111666054,-9.669994354,-0.1818545163,9.674009159
13.32954638,-0.3092723191,-9.610174179,-0.04426721856,9.615251255
13.33186487,-0.3032902777,-9.494122505,0.01196411345,9.498973117
13.33418336,-0.2500499785,-9.353543282,0.06400800496,9.357103929
13.3365018,-0.1615155339,-9.265008926,0.01196411345,9.266424381
13.33882029,-0.002991028363,-9.304491043,0.003589233849,9.304492216
13.34113878,0.2458625287,-9.312865257,-0.09930214286,9.31663934
13.34345722,0.5928218365,-9.382257462,-0.2721835673,9.404907054
13.34577571,0.941575706,-9.547362328,-0.3726821244,9.6009158
13.34809419,1.321436286,-9.855438232,-0.4103690982,9.952098241
13.35041263,1.64626193,-10.2029953,-0.4857429862,10.3463635
13.35273112,1.898704767,-10.51884842,-0.5814558864,10.70464118
13.35504961,2.109871387,-10.92742252,-0.5814558864,11.14442512
13.3573681,2.255235434,-11.413764,-0.5192425251,11.64601684
13.35967362,2.274377823,-12.01316643,-0.3810569942,12.23250451
13.36200503,2.149353027,-12.5683012,-0.1878365725,12.75214476
13.36432352,1.916052699,-13.03430271,0.07178468257,13.1745762
13.36662904,1.66600275,-13.43809223,0.4013960063,13.54691872
13.36896044,1.384846091,-13.74616814,0.7824530005,13.83788892
13.37127893,1.145563841,-14.00100327,1.140778184,14.09403362
13.37358446,0.8482556343,-14.19063473,1.435095429,14.28821719
13.37591586,0.6424728632,-14.2809639,1.691127419,14.3950899
13.37823435,0.5341976285,-14.39881039,1.896311998,14.53296621
13.38053987,0.4402793646,-14.47717476,2.019542217,14.62398666
13.38287128,0.4061816335,-14.46820259,2.06261301,14.6201314
13.38518977,0.4133601189,-14.37248898,2.042872429,14.52283146
13.38750821,0.4217349887,-14.30010605,1.97527504,14.44204296
13.38982669,0.4396811724,-14.23729515,1.92741859,14.37389422
13.39214518,0.4642075896,-14.26600838,1.875374794,14.39623264
13.39446367,0.4582255483,-14.38624763,1.871785522,14.51473984
13.39678211,0.4247260094,-14.18525124,1.807777524,14.30628549
13.3991006,0.3714857101,-13.93161201,1.671984792,14.03650056
13.40141909,0.2524427772,-13.87717533,1.451246977,13.9551367
13.40373753,0.1770688742,-13.8795681,1.345364571,13.94574379
13.40605602,0.08195417374,-13.83889008,1.21555388,13.89241398
13.40837451,-0.003589233849,-13.82632732,1.115055323,13.87121799
13.41069294,-0.0933200866,-13.83829117,1.071386337,13.88001728
13.41301143,-0.2542374134,-13.86102295,0.993021369,13.89887353
13.41532992,-0.3726821244,-13.89272785,0.9732806087,13.93176422
13.41764836,-0.5282155871,-13.82453251,1.033101201,13.87313984
13.41996685,-0.6951149702,-13.65045452,1.135992527,13.71526786
13.42228534,-0.8356932998,-13.6103754,1.277767301,13.69574354
13.42460383,-0.9254241586,-13.50688553,1.42372942,13.61320579
13.42692227,-0.9828519225,-13.3782711,1.631905079,13.513225
13.42924076,-1.057627559,-13.29811192,1.788036704,13.45939939
13.43155925,-1.098305583,-13.25563908,1.954337835,13.44387142
13.43387768,-1.10608232,-13.18804169,2.077568293,13.39642309
13.43619617,-1.095912814,-13.20718479,2.106880426,13.41900518
13.43851466,-1.042672515,-13.25384426,2.150549412,13.46760619
13.4408331,-0.8919246197,-13.37946796,2.16670084,13.5830882
13.44315159,-0.6963114142,-13.55773354,2.179861546,13.74950125
13.44547008,-0.4336991012,-13.74796295,2.154736757,13.92255259
13.44778852,-0.1501496136,-13.97229004,2.048854351,14.1225082
13.45010701,0.1746760458,-14.31087399,1.858624935,14.43212086
13.4524255,0.499501735,-14.60638809,1.601994753,14.7024645
13.45474393,0.7908278704,-14.90728474,1.348953724,14.98907012
13.45704951,1.173081279,-15.23988724,1.164108157,15.3292345
13.45938091,1.480558991,-15.48754501,1.048654556,15.59345317
13.46169935,1.904088616,-15.75135326,0.9493523836,15.89440005
13.46400492,2.302493572,-15.99183178,0.7734799385,16.17524131
13.46633633,2.686541557,-16.050457,0.6203392744,16.28556098
13.46865482,3.063411236,-15.98884106,0.456430912,16.28606324
13.47096034,3.375076294,-15.81356621,0.2811566591,16.17216947
13.47329175,3.678366661,-15.51924992,0.1387837082,15.94982007
13.47561024,3.97627306,-15.21476269,0.07238288224,15.72593369
13.47791576,4.143770695,-14.83071518,0.008973085321,15.39873465
13.48024716,4.289732933,-14.38086414,-0.03110669367,15.00706599
13.48256565,4.363312244,-13.91306686,-0.07716853172,14.58142237
13.48487117,4.378267288,-13.54337597,-0.1800599098,14.23462956
13.48720258,4.332205296,-13.35314655,-0.3678964674,14.04314329
13.48952107,4.186841488,-13.41894913,-0.4588237405,14.06443588
13.49183951,3.982254982,-13.64925861,-0.4402793646,14.22513485
13.494158,3.637688637,-13.98365593,-0.4025924206,14.45467026
13.49647649,3.241078377,-14.29591846,-0.4516452849,14.66566934
13.49879498,2.791825771,-14.4317112,-0.5593222976,14.70990893
13.50111341,2.344367981,-14.48973751,-0.4295116663,14.68444873
13.5034319,1.870589137,-14.37069416,-0.009571290575,14.49193037
13.50573748,1.421336651,-14.16431332,0.5856433511,14.24748917
13.50806883,0.9409775138,-13.87119293,1.290329576,13.96282144
13.51038732,0.4360919297,-13.61276817,2.070389748,13.77621672
13.51269289,-0.03589234129,-13.3148613,2.956332445,13.63916131
13.51502425,-0.4462614357,-13.04447269,3.833301783,13.60336795
13.51734274,-0.879960537,-12.73579884,4.624129772,13.57783041
13.51964831,-1.406381488,-12.45942783,5.146961689,13.55383582
13.52197972,-1.853839397,-12.40678501,5.395216942,13.65552638
13.52429815,-2.188834429,-12.55394363,5.421537876,13.84866672
13.52660373,-2.475374937,-12.83450222,5.221138954,14.07523429
13.52893513,-2.686541557,-13.19641685,4.692923546,14.2613623
13.53125357,-2.856431961,-13.5284214,3.806382656,14.34105777
13.53355914,-3.065205812,-13.78505135,2.704487801,14.37836505
13.53589055,-3.31465745,-14.01894951,1.196411371,14.45507868
13.53820899,-3.55992198,-14.15354633,-0.5078766346,14.60321393
13.54051456,-3.760919094,-14.31984711,-2.258824587,14.97680948
13.54284597,-3.859024763,-14.52622795,-3.756133318,15.49231771
13.5451644,-3.724428415,-14.90489197,-4.94955349,16.14079463
13.54746998,-3.508476257,-15.4103756,-5.888736725,16.86612883
13.54980138,-3.276372433,-15.85783386,-6.631708145,17.49814459
13.55211982,-3.081357241,-16.4022007,-7.222734928,18.18501719
13.55442539,-2.928216696,-16.98485374,-7.765307903,18.90396034
13.5567568,-2.89830637,-17.64347839,-8.218747139,19.67842255
13.55907529,-2.90967226,-18.22493362,-8.476573944,20.30927631
13.56138081,-3.005983353,-18.53480339,-8.484949112,20.60507787
13.56371222,-3.095116138,-18.64726639,-8.308478355,20.64778681
13.56603071,-3.242872953,-18.60180283,-7.870592117,20.45701624
13.56833623,-3.37387991,-18.53659821,-7.214360237,20.17512162
13.57066763,-3.470789194,-18.38286018,-6.281159401,19.73395271
13.57298612,-3.595814228,-18.11964989,-5.234897614,19.20041002
13.57529169,-3.684946775,-17.83669853,-3.945166349,18.63574481
13.57762305,-3.764508247,-17.44188309,-2.365305185,17.99959657
13.57994154,-3.827918053,-17.0554409,-0.5509474277,17.48841228
13.58224711,-3.850051641,-16.73121452,1.211964726,17.21119681
13.58457847,-3.817748547,-16.58824348,2.703889608,17.23531389
13.58689696,-3.80159688,-16.64866257,3.835096598,17.50251611
13.58920253,-3.757927895,-16.88136292,4.609772682,17.89839211
13.59153388,-3.72024107,-17.15773392,5.022534847,18.26071968
13.59385237,-3.732803345,-17.40359688,4.962115765,18.47813838
13.59615794,-3.685544968,-17.64347839,4.60678196,18.60370962
13.5984893,-3.654438496,-17.79243088,4.159324169,18.63398762
13.60080779,-3.676572084,-17.86541176,3.630510092,18.59759993
13.60311336,-3.708875179,-17.88694763,2.94317174,18.50299734
13.60544477,-3.696312666,-17.93121529,2.05124712,18.42278002
13.60776321,-3.62452817,-17.85943031,1.174277663,18.26130838
13.61006878,-3.587439299,-17.72543144,0.2673979402,18.08679469
13.61240018,-3.560520172,-17.40958023,-0.5270192027,17.77775399
13.61471862,-3.580260992,-17.03629875,-1.101894855,17.44327711
13.61702419,-3.668197155,-16.97288895,-2.252842426,17.51028065
13.6193556,-3.825525284,-16.9794693,-3.528217077,17.75909168
13.62167404,-4.170091629,-16.89392662,-4.877170563,18.07155814
13.62397961,-4.509274483,-16.64985847,-6.136393547,18.30865012
13.62631102,-4.706083775,-16.25264931,-7.295117855,18.42592137
13.62862951,-4.951946259,-15.76511192,-8.026124954,18.37060716
13.63093503,-5.03988266,-15.38405514,-8.416155815,18.24558161
13.63326643,-5.009374142,-15.0711937,-8.527421951,18.02641489
13.63558492,-4.82034111,-14.81217003,-8.456234932,17.72410727
13.63789044,-4.475774765,-14.59681606,-8.126026154,17.29543003
13.64022185,-4.087539196,-14.36531067,-7.317849636,16.63192865
13.64254034,-3.633501291,-13.99143219,-5.64167738,15.51744277
13.64484586,-3.366103172,-13.37228966,-4.065405846,14.37624102
13.64717727,-3.227917671,-12.66521072,-2.7577281,13.35784711
13.64949576,-3.163311481,-11.802598,-1.752144337,12.3441431
13.65180128,-3.12921381,-11.10389328,-1.064806104,11.58543211
13.65413268,-3.124428272,-10.44048309,-0.8410771489,10.9303774
13.65645117,-3.01376009,-9.741779327,-0.8685946465,10.23423036
13.65875675,-2.908475876,-9.144171715,-1.086939692,9.6569429
13.6610881,-2.831307411,-8.523832321,-1.448854089,9.097867732
13.66340659,-2.749951363,-7.921439171,-1.628913999,8.541943096
13.66571216,-2.540579557,-7.49910593,-1.68275249,8.094614888
13.66804352,-2.272583246,-7.175477028,-1.691725612,7.714534382
13.67036201,-1.968096614,-6.933203697,-1.834098577,7.436843106
13.67266758,-1.622931957,-6.73400116,-2.118844509,7.24363043
13.67499899,-1.339382529,-6.454638958,-2.629113913,7.097080358
13.67731742,-1.048654556,-6.174678802,-2.967100143,6.930369251
13.679623,-0.7878368497,-5.875576019,-3.138186932,6.707555268
13.6819544,-0.5437689424,-5.609972477,-2.942573547,6.358161286
13.68427284,-0.1639083475,-5.532804012,-2.338984251,6.009129181
13.68657841,0.2961117923,-5.770890236,-1.81794703,6.057704822
13.68890982,0.7148557901,-6.180062771,-2.10209465,6.566810228
13.69122826,0.97926265,-6.419943333,-2.822932482,7.081212857
13.69353383,1.080957651,-6.423532486,-3.59043026,7.437837622
13.69586524,1.166501045,-6.470192432,-4.008575916,7.700181535
13.69818373,1.335793257,-6.447460651,-4.374678135,7.905181925
13.70048925,1.481157184,-6.387639999,-4.860421181,8.162074823
13.70282065,1.579861164,-6.175277233,-5.428716183,8.372632178
13.70513914,1.433300734,-5.699105263,-5.910870075,8.335018706
13.70744466,1.300499082,-5.140381336,-6.044867992,8.040848661
13.70977607,1.226321578,-4.651049137,-5.485546112,7.295706877
13.71209456,1.155733347,-4.200001717,-4.70787859,6.414035766
13.71440008,1.129412293,-3.834498405,-4.36211586,5.916671778
13.71673149,1.028913736,-3.471985579,-4.303491592,5.624356605
13.71904998,1.01036942,-3.265604734,-3.838087559,5.139643641
13.7213555,1.072582722,-3.258426189,-3.293720484,4.755667099
13.7236869,1.161117196,-3.490530014,-2.847458839,4.651882927
13.72600539,1.222732425,-3.709473372,-2.717050076,4.757901679
13.72832388,1.387837172,-3.839882135,-2.705085993,4.897782872
13.73064232,1.444666624,-3.795614958,-2.800200701,4.933039482
13.73296081,1.552941918,-3.697509289,-2.895315409,4.946317303
13.7352793,1.689332843,-3.588635683,-3.004188776,4.975670982
13.73759774,1.746760488,-3.385843992,-3.100499868,4.912047554
13.73991623,1.828714728,-3.220739365,-3.177668571,4.880055037
13.74223472,1.850250125,-3.081357241,-3.25005126,4.845721944
13.7445532,1.965105653,-2.920439959,-3.235694408,4.781247545
13.74687164,1.908276081,-2.589632273,-3.209971666,4.544406563
13.74917722,1.788634896,-2.199003935,-3.270988464,4.328302049
13.75150862,1.623530149,-1.895713687,-3.28414917,4.12495046
13.75382706,1.568495274,-1.66600275,-3.124428272,3.872698622
13.75613263,1.149751306,-1.421934843,-3.420539856,3.878649207
13.75846404,0.6424728632,-0.9577272534,-2.989831924,3.204544868
13.76078253,0.7310073376,-0.9062815905,-2.221137524,2.507821754
13.76308805,0.7740781307,-0.9912267923,-1.996212244,2.359362378
13.76541946,0.7387840152,-0.8709874153,-1.506281853,1.890318999
13.76773794,0.7962117195,-0.6669993401,-0.9631111026,1.416483045
13.77004346,0.7567301393,-0.4749752879,-0.8315058947,1.220509763
13.77237487,0.7639086246,-0.3888336718,-0.8177471161,1.184676478
13.77469336,0.7393822074,-0.3559323549,-0.8656035662,1.192746169
13.7770118,0.6664010882,-0.2955136001,-0.9906286001,1.229944601
13.77933029,0.5886343718,-0.05204389244,-0.97926265,1.143745745
13.78164878,0.4223332107,-0.132801652,-0.8081758618,0.9214932682
13.78396727,0.2105683982,-0.09990034252,-1.206580877,1.228884267
13.78628571,-0.03708875179,-0.0580259487,-1.404586911,1.406274147
13.78860419,-0.2602194548,-0.06340979785,-1.506880045,1.530497448
13.79092268,-0.4558327198,-0.1160518974,-1.408176184,1.484658774
13.79324112,-0.6005984545,-0.2440679073,-1.32263267,1.472971428
13.79555961,-0.7842476368,-0.3726821244,-1.232303619,1.507484173
13.7978781,-0.9732806087,-0.4588237405,-1.175474167,1.593591505
13.80019659,-1.133001566,-0.5491527915,-1.152742267,1.70706651
13.80251503,-1.273579836,-0.6442674994,-1.115055323,1.811197002
13.80483352,-1.37048912,-0.77108711,-1.100698471,1.919466823
13.80715201,-1.469193101,-0.8548358679,-1.034297585,1.989734712
13.80947044,-1.528415442,-0.9858429432,-0.9672985673,2.060001599
13.81178893,-1.572084427,-1.178465128,-0.9134600163,2.166711495
13.81410742,-1.611566067,-1.347159147,-0.7555337548,2.23222181
13.81642591,-1.618744493,-1.534397483,-0.4821537733,2.281924983
13.81874435,-1.597807288,-1.687538147,-0.190229401,2.331729048
13.82106284,-1.578066587,-1.844268084,0.2315055877,2.438280902
13.82338133,-1.520638824,-1.966900229,0.7238288522,2.589395132
13.82568685,-1.503290772,-2.094916344,1.302293777,2.888689446
13.82801826,-1.414158225,-2.260020971,2.033899307,3.353249867
13.83033675,-1.335793257,-2.381456852,2.798406124,3.909828282
13.83264227,-1.238883972,-2.50707984,3.654438496,4.601652262
13.83497367,-1.194018483,-2.68175602,4.557728767,5.42129016
13.83729216,-1.134796143,-2.890529871,5.585446358,6.390628782
13.83959774,-1.10608232,-3.128615618,6.407381058,7.215690251
13.84192909,-1.127617717,-3.342773199,7.396214962,8.19448901
13.84424758,-1.267597795,-3.603590965,8.480163574,9.30085191
13.84655315,-1.435693622,-3.927220106,9.735198975,10.59520519
13.84888451,-1.793420553,-4.284348965,10.87956619,11.8294955
13.851203,-2.241476536,-4.777868748,11.88096237,13.00036591
13.85350857,-2.743371248,-5.243272781,13.4590292,14.7024985
13.85583998,-3.216551781,-5.63090992,14.89831161,16.24847811
13.85815841,-3.775874138,-6.074180126,15.96012688,17.48938363
13.86046399,-4.392025948,-6.597012043,16.53560066,18.33675405
13.86279539,-4.966303349,-7.239484787,16.45903015,18.65406075
13.86511383,-5.429912567,-7.947760582,15.92124367,18.60475339
13.8674194,-5.64526701,-8.924630165,15.02931881,18.36841003
13.86975081,-5.62791872,-9.900901794,14.17807198,18.18568257
13.87206925,-5.485546112,-10.89332485,13.32742405,18.06587873
13.87437482,-5.288137913,-11.82652569,12.51625729,18.01354515
13.87670623,-4.838885784,-12.93619728,11.89831066,18.22991531
13.87902472,-4.197010994,-13.84846115,11.54357433,18.51077756
13.88133024,-3.400799274,-14.68475246,11.38026428,18.8869745
13.88366164,-2.415554523,-15.6801672,11.2815609,19.46731012
13.88598013,-1.589432478,-16.63550186,11.26241779,20.15212823
13.88828571,-1.037886858,-17.42034721,11.12004471,20.69302057
13.89061706,-0.8021938205,-17.81815338,10.95793152,20.93337928
13.89293555,-0.8105686903,-17.9581337,10.65882874,20.89885685
13.89524112,-0.9726824164,-17.87618065,10.40399265,20.70620701
13.89757248,-1.313659668,-17.52922058,10.14078236,20.2937119
13.89989096,-1.831107497,-16.81197166,9.820742607,19.55613283
13.90219654,-2.218146563,-16.00020599,9.682557106,18.83291475
13.90452794,-2.459223509,-15.12204075,9.569496155,18.06375247
13.90684638,-2.528615236,-14.18345642,9.218349457,17.10386792
13.90915196,-2.502892494,-13.20419312,8.734400749,16.02825452
13.91148336,-2.438884497,-12.1663065,8.112266541,14.82484535
13.9138018,-2.397010088,-11.2008028,7.45184803,13.66505323
13.91610737,-2.545365095,-10.23589706,6.709474564,12.50078082
13.91843878,-2.6087749,-9.402596474,5.986842155,11.44800445
13.92075727,-2.767299414,-8.624929428,5.33539629,10.51255474
13.92306279,-2.980858803,-7.939385414,4.713860512,9.702568777
13.92539419,-3.314059258,-7.265805721,4.238286972,9.040906923
13.92771268,-3.602992773,-6.673582554,3.882952929,8.520304248
13.93001821,-3.906881094,-6.132804394,3.671786308,8.145982096
13.93234961,-4.273581028,-5.565705299,3.521038532,7.851005199
13.9346681,-4.601995945,-5.016552448,3.461816072,7.637298977
13.93697362,-4.843671322,-4.532604218,3.513261795,7.506574539
13.93930503,-5.086542606,-4.010370731,3.474378586,7.350326227
13.94162352,-5.301298618,-3.452843189,3.439682484,7.201201894
13.94392909,-5.486742496,-2.881556749,3.352942705,7.046271163
13.94626044,-5.763711452,-2.407777786,3.069393158,6.959808757
13.94857893,-6.223731518,-1.987837434,2.471187592,6.985205779
13.95088451,-6.79920578,-1.613360643,1.657029629,7.181774084
13.95321586,-7.380661488,-1.331605792,0.6484549642,7.527803917
13.95553435,-7.793423176,-1.231705427,0.0239282269,7.890191101
13.95783992,-8.185846329,-1.170090318,-0.5575276613,8.287824115
13.96017133,-8.627322197,-1.133001566,-0.9954141974,8.758152217
13.96248977,-9.104690552,-1.05822587,-1.186241865,9.242424022
13.96479534,-9.626325607,-1.007976532,-1.162313581,9.748493948
13.96712675,-10.08215809,-1.070788145,-0.6083751321,10.15709699
13.96944518,-10.36989498,-1.310668588,0.4217349887,10.46090027
13.97175076,-10.4165554,-1.789831281,1.807777524,10.72269472
13.97408216,-10.43270683,-2.512463808,3.281756163,11.22157608
13.97640065,-10.45184898,-3.369692564,4.853242397,12.00624575
13.97870617,-10.48953629,-4.371686935,6.352943897,13.01929008
13.98103758,-10.65643597,-5.65603447,7.472187042,14.19098068
13.98335607,-10.73958588,-6.951747894,8.969495773,15.62425544
13.98566159,-10.69890785,-8.254041672,10.58166027,17.16296499
13.987993,-10.51944637,-9.58265686,12.14297676,18.70662848
13.99031149,-10.06361389,-11.00997543,13.58883953,20.17801882
13.99261706,-9.546764374,-12.49412346,14.57767391,21.44183779
13.99494841,-8.556135178,-13.93400478,15.34038639,22.42078039
13.9972669,-7.349554539,-15.45225048,15.56232071,23.12950113
13.99957248,-6.099305153,-16.8544445,15.27877045,23.55238097
14.00190383,-4.571487427,-18.71187401,14.65244961,24.20179757
14.00422232,-3.108874798,-20.47478485,14.01476192,25.00590868
14.00652789,-1.982453585,-22.07797623,13.14437294,25.77094675
14.0088593,-1.067797065,-23.45624161,11.81755257,26.28668883
14.01117774,-0.2889333367,-24.30689049,9.688538551,26.16822858
14.01348331,0.3607180119,-24.48455811,6.437889099,25.31936253
14.01581472,0.8590233326,-23.69253349,2.420340061,23.83132624
14.01813321,1.1820544,-22.10250282,-1.524227977,22.18650839
14.02043873,1.348355532,-20.00579262,-4.715056896,20.59809609
14.02277013,1.235892892,-17.83250999,-7.302894592,19.30953426
14.02508862,0.7441678643,-15.60000706,-9.174679756,18.11322044
14.02739414,-0.09750752151,-13.2777729,-9.990034103,16.61654424
14.02972555,-0.8691928387,-10.9615202,-9.918250084,14.80817699
14.03204404,-1.511665702,-9.2362957,-9.131011009,13.07553645
14.03434961,-2.100898266,-7.908278942,-7.800003529,11.30463199
14.03668096,-2.677568436,-6.939185619,-6.219544411,9.695586752
14.03899946,-3.249453068,-6.397211552,-4.420141697,8.42739067
14.04130503,-3.8213377,-6.172286034,-2.838485956,7.794660943
14.04363638,-4.368097782,-5.941977024,-1.357328653,7.498647229
14.04595487,-4.795814991,-5.675775528,0.01136590727,7.430639169
14.04826044,-5.063810825,-5.329414368,1.341775298,7.472964507
14.05059185,-5.24506712,-5.10149765,2.402393818,7.701136502
14.05291029,-5.289932728,-5.042873859,3.078964472,7.930572946
14.05521586,-5.185246468,-5.088935375,3.247060299,7.957854282
14.05754727,-4.912465096,-5.193621635,2.835494757,7.690646886
14.0598657,-4.418346882,-5.490929604,1.711466432,7.252669469
14.06217128,-3.769891977,-5.815157413,-0.1938186288,6.932943597
14.06450268,-3.029313564,-6.061617851,-2.603989124,7.259525536
14.06682117,-2.302493572,-6.332605362,-4.942375183,8.35646096
14.06912669,-1.567298889,-6.650252342,-7.008577347,9.787872008
14.0714581,-0.9254241586,-6.960123062,-8.727222443,11.20107738
14.07377659,-0.3589234054,-7.256234646,-9.97926712,12.3437247
14.07608211,0.08135596663,-7.655836105,-10.73121166,13.18246369
14.07841352,0.4157529473,-8.085348129,-11.15892887,13.78649333
14.08073201,0.6424728632,-8.55134964,-11.19123173,14.09900775
14.08303753,0.7046862841,-8.995817184,-10.9304142,14.17375265
14.08536893,0.7298108935,-9.536594391,-10.49731255,14.20115584
14.08768742,0.7244270444,-10.19880867,-9.976874352,14.28560516
14.089993,0.6532405615,-10.79521942,-9.343972206,14.29242114
14.09232435,0.5940182209,-11.47238827,-8.680562019,14.3986356
14.09464284,0.6346961856,-12.1663065,-7.960322857,14.55295822
14.09694841,0.6370890141,-12.83689499,-7.215556622,14.73960694
14.09927977,0.6580262184,-13.48415375,-6.51445961,14.98978268
14.10159826,0.6981059909,-14.10628796,-5.898906231,15.30594024
14.10390383,0.7908278704,-14.74158192,-5.230112076,15.66185552
14.10623524,0.8823533654,-15.2913332,-4.777270317,16.04449221
14.10855367,1.022333503,-15.8249321,-4.428516388,16.46467124
14.11085925,1.112662554,-16.26880074,-4.114458561,16.81786742
14.11319065,1.404586911,-16.64985847,-3.584448338,17.08914631
14.11550909,1.802991867,-16.94716644,-2.997010469,17.30431454
14.11781466,2.136192322,-17.16431427,-2.725425005,17.5101383
14.12014607,2.337189436,-17.21217155,-2.675175667,17.57492159
14.12246456,2.484946251,-17.0548439,-2.575275421,17.42626471
14.12477008,2.578266382,-16.78864098,-2.55254364,17.17618707
14.12710149,2.71286273,-16.58405495,-2.738585472,17.02616672
14.12941998,2.722434044,-16.16650772,-2.980260611,16.66282006
14.13173841,2.756531715,-15.77707577,-3.087339401,16.3109243
14.1340569,2.815753937,-15.3290205,-3.066402197,15.88427405
14.13637539,2.854039192,-14.80439377,-2.955136061,15.36386812
14.13869388,2.873780012,-14.33779335,-2.787040234,14.88618564
14.14101232,2.830111027,-13.82931805,-2.595614433,14.35258793
14.14333081,2.800798893,-13.30648708,-2.399402857,13.80812105
14.14563638,2.685345173,-12.74656582,-2.279761791,13.22434621
14.14796779,2.590230465,-12.30209923,-2.007578135,12.73111579
14.15028623,2.446063042,-11.96889877,-1.744367719,12.34020182
14.1525918,2.307279348,-11.69731331,-1.337587833,11.99749215
14.15492321,2.073979139,-11.48076344,-0.9014959335,11.70136802
14.15724164,1.829312921,-11.34197903,-0.6334998012,11.50600695
14.15954722,1.624128342,-11.20259762,-0.4785645306,11.32982834
14.16187862,1.37886405,-10.98724365,-0.3062812984,11.07766209
14.16419711,1.11984098,-10.64686394,-0.04307080805,10.70568123
14.16650263,0.8781659007,-10.43091202,0.3296113312,10.47300074
14.16883404,0.680758059,-10.28136063,0.560518682,10.31910796
14.17115253,0.4229314029,-10.04327488,0.456430912,10.062533
14.17345805,0.2147558331,-9.745368004,0.4666004181,9.758895099
14.17578946,-0.1202393398,-9.527023315,0.4857429862,9.540156026
14.17810794,-0.4582255483,-9.385847092,0.5437689424,9.412745664
14.18041346,-0.8291130662,-9.250652313,0.5108676553,9.301773081
14.18274487,-1.299900889,-9.08435154,0.4055834413,9.18584145
14.18506336,-1.79521513,-8.899505615,0.290129751,9.083400951
14.18736893,-2.258226395,-8.689535141,0.2895315289,8.982841194
14.18970029,-2.799602509,-8.428717613,0.2638086975,8.88541782
14.19201878,-3.418745279,-8.265407562,0.2189432681,8.947218429
14.19432435,-4.036093712,-8.169096947,0.1411765367,9.112855106
14.19665571,-4.569094658,-8.105687141,-0.1842473447,9.30659643
14.19897419,-4.939982414,-8.090731621,-0.4067798555,9.488352558
14.20127977,-5.228915691,-8.145766258,-0.4612165689,9.690603075
14.20361117,-5.369493961,-8.302495956,-0.2943171859,9.891891989
14.20592961,-5.142175674,-8.565707207,0.1579262912,9.991909294
14.20823518,-4.630111694,-8.715258598,1.079761267,9.92771631
14.21056659,-3.968496323,-8.972486496,1.459023595,9.918831929
14.21288503,-3.120838881,-9.240483284,1.335195065,9.844232449
14.21520352,-2.396411896,-9.353543282,1.247258782,9.735872656
14.21752201,-1.829911113,-9.28295517,1.141974568,9.530264282
14.2198405,-1.417747378,-8.95154953,1.061815023,9.125113575
14.22214602,-1.098305583,-8.425726891,1.089930773,8.566626984
14.22447742,-0.8165507317,-7.856832981,0.9966106415,7.961771936
14.22679591,-0.5569294691,-7.366304398,0.9146564603,7.443736115
14.22910143,-0.2727817893,-7.009175777,0.6520441771,7.044722606
14.23143284,0.06101697683,-6.714260101,0.2572284341,6.719462646
14.23375133,0.3954139352,-6.418746948,-0.1477568001,6.432611961
14.2360569,0.7088736892,-6.108876228,-0.4474578202,6.166124324
14.23838826,0.9643075466,-5.930611134,-0.7280163169,6.052441261
14.24070675,1.177268744,-5.772684574,-1.003789067,5.976407063
14.24301232,1.414756417,-5.690730572,-1.188036442,5.983091237
14.24534373,1.638485312,-5.603990555,-1.430309772,6.011250311
14.24766216,1.809572101,-5.528616905,-1.582253933,6.028572267
14.24996774,1.932204247,-5.415555954,-1.696511269,5.99498207
14.25229914,1.926820397,-5.228317261,-1.673779488,5.818030251
14.25461758,1.849651933,-5.187041283,-1.713261008,5.76731071
14.25693607,1.765903115,-5.322834015,-1.545763373,5.817246786
14.25925456,1.573879123,-5.398806095,-1.188634634,5.747786969
14.26157305,1.418345571,-5.78584528,-0.7250252366,6.001114176
14.26389149,1.283749342,-6.066403389,-0.2566302419,6.206055231
14.26620998,1.079162955,-6.1429739,-0.02871387079,6.237110349
14.26852847,0.8440681696,-6.162116528,0.1884347796,6.222510654
14.2708469,0.6251249313,-6.075974941,0.3625126183,6.118796292
14.27316539,0.5210371017,-6.116652966,0.3954139352,6.151526261
14.27548388,0.4498506486,-6.282355785,0.3481557071,6.308056136
14.27780237,0.394815743,-6.543173313,0.2877369225,6.561386211
14.28012081,0.3774677813,-6.774080753,0.2177468538,6.788082621
14.2824393,0.3032902777,-7.01575613,0.166301176,7.024277554
14.28475779,0.261415869,-7.247261524,0.1914258152,7.254500789
14.28707628,0.204586342,-7.325626373,0.4301098585,7.341093367
14.28939472,0.1716850251,-7.290930748,0.8153542876,7.338388756
14.2917132,0.1214357466,-7.262814999,1.077966571,7.343380711
14.29403169,-0.008973085321,-7.420143127,1.225723386,7.520704912
14.29635013,-0.2380858511,-7.430312634,1.275972724,7.542833493
14.29866862,-0.4546363056,-7.382455826,1.292722464,7.508560418
14.30098711,-0.6221339107,-7.352545738,1.262213945,7.485997828
14.30330555,-0.7722834945,-7.423732281,1.223330617,7.563382879
14.30562404,-0.8859425783,-7.464410305,1.227517962,7.616371564
14.30794253,-0.9080761671,-7.51346302,1.194616675,7.661842982
14.31026102,-0.9254241586,-7.523632526,1.031904817,7.650247304
14.31257946,-0.8644071817,-7.613363266,0.8566305041,7.710013996
14.31489794,-0.7692924738,-7.760521889,0.6963114142,7.829582395
14.31721643,-0.5952146053,-7.929814339,0.4079762697,7.962580016
14.31953487,-0.4019941986,-8.103293419,0.06759724021,8.1135401
14.32185336,-0.1944168359,-8.26241684,-0.2967100143,8.270028221
14.32417185,0.04307080805,-8.512466431,-0.5647061467,8.531285534
14.32649034,0.2626122832,-8.810373306,-0.8273184299,8.853027662
14.32880878,0.4486542344,-9.136993408,-0.9714859724,9.199441513
14.33112727,0.6628118753,-9.477970123,-0.9714859724,9.550655592
14.33343284,0.7950153351,-9.792028427,-0.9062815905,9.865962519
14.33576419,0.8416753411,-10.01575756,-0.6466603279,10.07184127
14.33808268,0.8303094506,-10.2221384,-0.3690928817,10.262444
14.34038826,0.7501499057,-10.35793114,-0.03888336942,10.38513236
14.34271966,0.5850451589,-10.53858948,0.2662015259,10.55817263
14.3450381,0.2943171859,-10.61695385,0.5264210105,10.63407028
14.34735659,-0.01016949583,-10.51346493,0.6897311211,10.53607029
14.34967508,-0.2835494876,-10.33699417,0.8907282352,10.37917365
14.35199357,-0.5838487148,-10.22393322,1.073779106,10.29673207
14.35431201,-0.8530412912,-10.18684387,1.247856975,10.29837922
14.3566305,-1.140778184,-10.19761181,1.440479279,10.36183584
14.35894899,-1.36211431,-10.18804073,1.672582984,10.413888
14.36126742,-1.492523074,-10.16710377,1.847259045,10.44078494
14.36358591,-1.579861164,-10.16411209,1.960918188,10.47140564
14.3659044,-1.620539188,-10.1024971,2.04586339,10.4341819
14.36822289,-1.574477315,-10.04387283,2.04586339,10.37033834
14.37054133,-1.398006678,-9.996614456,2.004587173,10.29102002
14.37285982,-1.191027522,-9.866804123,1.890928149,10.11671782
14.37517831,-0.8739784956,-9.74477005,1.783251047,9.945067422
14.37749675,-0.5054838061,-9.544371605,1.6181463,9.693757819
14.37981524,-0.123828575,-9.328418732,1.486541033,9.446932507
14.38213373,0.2584248483,-9.128020287,1.3310076,9.228169861
14.38445222,0.6095715761,-8.995218277,1.142572761,9.08795917
14.38677065,0.87517488,-8.888139725,1.000199914,8.986954918
14.38907623,1.06660068,-8.869595528,0.8590233326,8.974702386
14.39140763,1.265205026,-8.961120605,0.7704889178,9.08273524
14.39372607,1.456630826,-9.144171715,0.6927221417,9.285338641
14.39603164,1.632503271,-9.466604233,0.6442674994,9.627914792
