Time (s),Acceleration x (m/s^2),Acceleration y (m/s^2),Acceleration z (m/s^2),Absolute acceleration (m/s^2)
20.00062353,1.262812138,-13.34357548,2.243271112,13.58962716
20.00295483,1.000798106,-13.40219975,2.446661234,13.66040651
20.00527321,0.8033902049,-13.36810207,2.573480844,13.63724285
20.00757868,0.5688936114,-13.35434341,2.571087837,13.61148855
20.00990998,0.4151547253,-13.30050468,2.502892494,13.54031939
20.01222837,0.2763710022,-13.2269249,2.338984251,13.43498308
20.01453384,0.1232303679,-13.17368507,2.227119684,13.36118356
20.01686514,0.02991028316,-13.01755333,2.067398787,13.18073318
20.01918353,-0.05443671346,-12.87039471,2.017747641,13.02771387
20.02150191,-0.1465603858,-12.61795235,1.939382792,12.76696546
20.0238203,-0.1651047617,-12.43609715,1.91365993,12.58355538
20.02613868,-0.1914258152,-12.19202995,2.02612257,12.36072048
20.02845707,-0.2117647976,-12.00479126,2.139183521,12.19573547
20.03077545,-0.2147558331,-11.75414276,2.309672117,11.9808421
20.03309384,-0.08015955985,-11.49631596,2.542374134,11.77435231
20.03541222,0.1112662554,-11.41436195,2.819941521,11.75806571
20.03773061,0.3565305769,-11.41795158,3.132204771,11.84514412
20.040049,0.718445003,-11.63450146,3.390031576,12.13960879
20.04236733,1.141376376,-11.98983574,3.544368505,12.55473812
20.04468571,1.586441398,-12.41635704,3.527618885,13.00487653
20.0470041,1.994417667,-12.82433319,3.352942705,13.40460549
20.04930957,2.401795626,-13.18086338,3.077169895,13.7467362
20.05164087,2.790629387,-13.56072426,2.816352367,14.1284357
20.05395926,3.159124136,-13.91246891,2.60279274,14.50211662
20.05626472,3.474976778,-14.2564373,2.436491728,14.87474235
20.05859603,3.77647233,-14.63390541,2.274976015,15.28360058
20.06091441,4.048655987,-14.95394516,2.083550215,15.63180324
20.06321988,4.310669899,-15.22732544,1.907079697,15.94020916
20.06555118,4.492524624,-15.3673048,1.642672777,16.09457077
20.06786957,4.764708042,-15.51984787,1.521835208,16.30595299
20.07017504,4.927420139,-15.50190163,1.399203062,16.32624245
20.07250634,5.069194794,-15.44567013,1.338186026,16.31122936
20.07482472,5.127220631,-15.28116322,1.313659668,16.17182866
20.07713019,5.106881618,-15.05085468,1.302293777,15.94692559
20.0794615,5.018347263,-14.73141289,1.222732425,15.61068254
20.08177988,4.794020176,-14.32882023,1.108475089,15.15012989
20.08409827,4.510470867,-13.81197071,0.9391828775,14.56011493
20.08641665,4.131806374,-13.3268261,0.7465606928,13.97259713
20.08873498,3.709473372,-12.81356525,0.5533402562,13.35117346
20.09104045,3.248256683,-12.42592812,0.3511467278,12.84827479
20.09337176,2.772084951,-12.22194004,0.07357929647,12.53258502
20.09569014,2.273181438,-12.18126202,-0.2464607358,12.3940002
20.09799561,1.815554142,-12.27398396,-0.6029912829,12.42217845
20.10032691,1.383649707,-12.43848991,-0.9439685345,12.55076071
20.1026453,0.9924231768,-12.69811153,-1.227517962,12.79584857
20.10495077,0.6861419082,-12.99422359,-1.403988719,13.08785016
20.10728207,0.3984049559,-13.26521015,-1.500299811,13.35572635
20.10960045,0.1304088384,-13.44885921,-1.386640668,13.52078374
20.11190592,-0.1268195957,-13.54995632,-1.115653515,13.59639961
20.11423722,-0.4007977843,-13.92084408,-0.8009973764,13.94962851
20.11655561,-0.7058826685,-14.19242954,-0.6059823632,14.22288794
20.11886108,-0.980459094,-14.49153233,-0.4731806815,14.53236764
20.12119238,-1.284945726,-14.71885014,-0.3643072546,14.77932186
20.12351077,-1.529611826,-14.73859119,-0.151944235,14.8185313
20.12581623,-1.807179332,-14.75952816,-0.005982056726,14.86975469
20.12814754,-2.003390789,-14.74457359,0.04007977992,14.88010858
20.13046592,-2.19242382,-14.76850128,-0.07178468257,14.93052261
20.13277139,-2.325823545,-14.93480206,-0.128614217,15.11536666
20.13510269,-2.411965132,-15.06700611,-0.2572284341,15.26100965
20.13742108,-2.468794823,-15.25603867,-0.3326023519,15.45808164
20.1397265,-2.558525562,-15.43609905,-0.4516452849,15.65321662
20.1420578,-2.616551638,-15.52403545,-0.670588553,15.75727477
20.14437618,-2.626122952,-15.64008713,-0.8841479421,15.88365716
20.14669457,-2.589632273,-15.88415527,-1.063609719,16.12897547
20.14901295,-2.450250387,-16.24606895,-1.17906332,16.47205736
20.15133134,-2.324627161,-16.6283226,-1.399801254,16.84827729
20.15363681,-2.18105793,-17.13859177,-1.580459356,17.34895366
20.15596811,-2.041077614,-17.66441536,-1.890329838,17.88213955
20.1582865,-1.949552298,-18.14297867,-2.248056889,18.38537976
20.16059196,-1.819741607,-18.43370819,-2.607578516,18.70594886
20.16292327,-1.664208174,-18.661026,-2.862414122,18.95249047
20.16524165,-1.555334687,-18.73101616,-3.132802963,19.05477596
20.16754712,-1.408176184,-18.5988121,-3.413361549,18.96179867
20.16987842,-1.28315115,-18.35593987,-3.691527128,18.76737536
20.17219681,-1.16769743,-18.00300026,-3.830909014,18.44308541
20.17450228,-1.07497561,-17.53041649,-3.824328899,17.9748871
20.17683358,-0.9912267923,-16.92263985,-3.746562004,17.36073146
20.17915196,-0.8733802438,-16.39143372,-3.553939819,16.79501058
20.18145743,-0.7734799385,-15.88894081,-3.323032379,16.2511309
20.18378873,-0.6723831892,-15.48754501,-3.00538516,15.79077229
20.18610712,-0.5850451589,-15.26441383,-2.720041037,15.51590251
20.18841254,-0.5700899959,-15.17707539,-2.429911375,15.38093265
20.19074384,-0.494716078,-15.24168205,-2.16131711,15.40210724
20.19306222,-0.4677968323,-15.42293835,-1.911865234,15.54802527
20.19538061,-0.4923232496,-15.66341686,-1.619342685,15.75459554
20.197699,-0.4229314029,-15.8817625,-1.28315115,15.9391257
20.20001738,-0.3876372576,-16.06720543,-0.7902296782,16.09129628
20.20232285,-0.4199403822,-16.27358627,-0.3074777126,16.28190722
20.20465415,-0.4265206456,-16.53739548,0.1764706671,16.54383604
20.20697254,-0.3870390654,-16.8041954,0.9607182741,16.83608512
20.209278,-0.3080759048,-17.06860161,2.117648125,17.20222384
20.21160931,-0.1722832322,-17.32762527,3.279961586,17.63616815
20.21392769,-0.01375873014,-17.49033737,4.213162422,17.99063168
20.21623316,0.2249253243,-17.51247025,4.92143774,18.19224436
20.21856446,0.4151547253,-17.63689804,5.376672268,18.44291546
20.22088285,0.6077769399,-17.8331089,5.77148819,18.75364609
20.22318832,0.8285148144,-17.88575172,5.821737289,18.82761739
20.22551962,1.225723386,-17.78585052,5.323431969,18.60585404
20.22783801,1.497906923,-17.64706612,4.165306091,18.19374735
20.23014347,1.590628862,-17.47956848,2.767299414,17.76860604
20.23247478,1.54217422,-17.10329819,1.628913999,17.24976727
20.23479316,1.493719578,-16.65464401,0.8093722463,16.74107072
20.23709863,1.261017561,-16.02772522,-0.1465603858,16.0779234
20.23942993,0.9397810698,-15.32602882,-1.050449133,15.39070471
20.24174827,0.5551348329,-14.67936897,-2.222932339,14.85710188
20.24405373,0.1507478207,-14.1870451,-3.388834953,14.58695225
20.24638504,-0.2781656384,-13.72762394,-4.302295208,14.38870318
20.24870342,-0.8075776696,-13.33938789,-5.631507874,14.50190787
20.25100889,-1.415354609,-12.98166084,-7.099504948,14.8637047
20.25334019,-2.016551256,-12.60419369,-8.361719131,15.2594405
20.25565858,-2.554936409,-12.37328625,-9.222537041,15.64228571
20.25796405,-2.985644341,-12.16810131,-9.72323513,15.85932101
20.26029535,-3.250649452,-12.08315659,-9.707083702,15.83656746
20.26261373,-3.303291559,-12.11665535,-8.982057571,15.44028595
20.2649192,-3.163909674,-12.13998604,-7.816753387,14.78144847
20.2672505,-2.904886723,-12.26620674,-6.387639999,14.13152998
20.26956889,-2.504088879,-12.41276741,-5.247459888,13.70704531
20.27188728,-2.145165443,-12.52403355,-5.076971531,13.6831572
20.27420566,-1.940579176,-12.40499115,-5.380859852,13.66028205
20.27652405,-1.743769526,-12.03111267,-5.587240696,13.37929979
20.27884243,-1.289133191,-11.73141098,-5.513661385,13.02644732
20.28116082,-1.067797065,-11.19781208,-5.110470772,12.35508387
20.2834792,-0.8255237937,-10.70668507,-4.820939541,11.77098351
20.28578467,-0.7728816867,-10.25264645,-4.479962349,11.21535411
20.28811597,-0.8488538265,-9.865009308,-4.035495281,10.69224876
20.29043436,-0.8991031051,-9.540184021,-4.152743816,10.44359989
20.29273983,-1.017547846,-9.134600639,-4.337589264,10.16321864
20.29507113,-1.031904817,-8.789435387,-4.273581028,9.82763943
20.29738946,-0.9726824164,-8.519046783,-4.213162422,9.553586069
20.29969493,-0.9391828775,-8.30668354,-4.319045067,9.409421141
20.30202623,-0.9649057388,-8.009973526,-4.521836758,9.248660802
20.30434462,-0.9954141974,-7.621140003,-4.329214573,8.821265396
20.30665009,-0.965503931,-7.254439831,-3.883551121,8.284990308
20.30898139,-0.9212366939,-6.906882763,-3.408575773,7.757067445
20.31129978,-0.8991031051,-6.574878216,-3.091526747,7.320857024
20.31360524,-0.8853443861,-6.276373863,-2.730808735,6.901740353
20.31593655,-0.8949156404,-5.977869034,-2.53280282,6.553692266
20.31825493,-0.9373882413,-5.753541946,-2.758924484,6.449310502
20.3205604,-1.05224371,-5.593821049,-3.195016384,6.527340993
20.3228917,-1.212562919,-5.320441246,-3.733401537,6.611784246
20.32521009,-1.264606714,-4.98963356,-3.683750391,6.329746452
20.32751556,-1.247258782,-4.671388149,-3.246462107,5.82383361
20.32984686,-1.132403374,-4.41296339,-2.408375978,5.153334662
20.33216525,-0.9846464992,-4.240081787,-1.759322882,4.695001522
20.33447071,-0.8009973764,-4.105485439,-1.296311617,4.379158743
20.33680202,-0.7004988194,-4.107878208,-1.31425786,4.369512066
20.3391204,-0.5982056856,-4.096512318,-1.618744493,4.445176818
20.34142587,-0.4582255483,-4.050450325,-1.98963201,4.535940258
20.34375717,-0.3475574851,-3.943371773,-2.438286304,4.649324386
20.34607556,-0.3361915946,-3.750749588,-2.696711063,4.631781279
20.34838103,-0.3936193287,-3.493520975,-2.885145903,4.547932702
20.35071233,-0.418743968,-3.100499868,-2.859423161,4.238484016
20.35303071,-0.4815555513,-2.721835852,-2.863012314,3.97958863
20.35533613,-0.5234299302,-2.25703001,-2.704487801,3.561238215
20.35766743,-0.5126622319,-1.853241086,-2.340180635,3.028823285
20.35998587,-0.4438686073,-1.514058471,-1.893320918,2.464560101
20.36229129,-0.4348955154,-1.196411371,-1.704886079,2.127714929
20.36462259,-0.3080759048,-0.9487541914,-1.552941918,1.845717714
20.36694097,-0.1298106313,-0.7854440212,-1.151545882,1.399939652
20.36924644,-0.04247260094,-0.6963114142,-1.027717352,1.242117733
20.37157774,0.03290131316,-0.6562315822,-1.046261668,1.235469896
20.37389613,0.162113741,-0.6819544435,-1.006780148,1.226763626
20.3762016,0.1351944804,-0.5868397355,-0.9218349457,1.101107665
20.3785329,0.1555334777,-0.5036891699,-0.769890666,0.9330729233
20.38085129,0.1495514214,-0.4701896608,-0.7226324677,0.8750095018
20.38316967,0.2009970993,-0.4689932466,-0.6215356588,0.804152395
20.38548806,0.1531406492,-0.4839483798,-0.5647061467,0.759309637
20.38780644,0.1004985496,-0.4755735099,-0.5461617708,0.7311380183
20.39012483,0.107078813,-0.5425725579,-0.5599204898,0.7869954305
20.39244321,0.03110669367,-0.5491527915,-0.5748756528,0.795624554
20.3947616,-0.09750752151,-0.5335994363,-0.6334998012,0.8340012429
20.39707998,-0.2327020019,-0.614357233,-0.7627122402,1.006635482
20.39939837,-0.3391826153,-0.7130611539,-0.8440681696,1.155833955
20.40171676,-0.498903513,-0.798604548,-0.9690931439,1.351227391
20.40403514,-0.6717849374,-0.8745766878,-1.127019525,1.576817172
20.40635353,-0.8350951076,-0.9750752449,-1.271785259,1.807095271
20.40867191,-1.026520967,-1.080359459,-1.391426325,2.038869558
20.4109903,-1.222732425,-1.205384374,-1.535593987,2.303491906
20.41330868,-1.412961721,-1.344168067,-1.717448473,2.59863
20.41562707,-1.60977149,-1.473978758,-1.822732687,2.843647671
20.41794545,-1.749153376,-1.587637782,-1.919043779,3.043494749
20.42026384,-1.892124534,-1.735992789,-1.99501586,3.251752527
20.42258222,-1.920240164,-1.938186288,-2.027318954,3.39910437
20.42490056,-1.94177556,-2.188236237,-2.092523336,3.596876988
20.42721894,-1.959721804,-2.423929453,-2.081157446,3.747954089
20.42953733,-2.01475668,-2.516651154,-2.052443504,3.82168835
20.43185571,-2.046461582,-2.589034081,-1.956730723,3.836651874
20.4341741,-2.002194405,-2.693720102,-1.826920033,3.82132794
20.43649248,-1.957927108,-2.788236618,-1.692323804,3.80416901
20.43881087,-1.850250125,-2.939582586,-1.523629785,3.79289059
20.44112926,-1.709671736,-3.094517946,-1.335195065,3.779122203
20.44344764,-1.559522152,-3.239283562,-1.118046403,3.764982748
20.44576603,-1.42971158,-3.34576416,-0.8057830334,3.726593527
20.44808441,-1.210170031,-3.483949661,-0.4073780477,3.710575915
20.4504028,-1.01874423,-3.641875982,0.01076770201,3.781694914
20.45270827,-0.7800601721,-3.803391695,0.5383850932,3.919711822
20.45503957,-0.604187727,-3.966701746,1.089930773,4.157849762
20.45735795,-0.446859628,-4.120440483,1.631306887,4.454085255
20.45966342,-0.314057976,-4.265206337,2.263610125,4.838858161
20.46199472,-0.2249253243,-4.396213531,2.88993144,5.26583218
20.46431311,-0.2171486616,-4.53918457,3.559323788,5.77235965
20.46661858,-0.2937189937,-4.726422787,4.284348965,6.385999472
20.46894988,-0.4121637046,-4.963312149,4.929214478,7.007246376
20.47126827,-0.6454638839,-5.193621635,5.592026711,7.659052947
20.47357373,-0.9780662656,-5.445466042,6.24407053,8.342549419
20.47590504,-1.426122308,-5.824130535,6.93978405,9.171418864
20.47822342,-1.907079697,-6.126822472,7.791628838,10.09377959
20.48052889,-2.45383954,-6.460022926,8.652446747,11.07330391
20.48286019,-3.050250769,-6.808178425,9.770493507,12.29300072
20.48517858,-3.70588398,-7.19581604,10.81256771,13.50647863
20.487484,-4.390231133,-7.536793232,12.13938713,14.94797985
20.4898153,-5.084748268,-7.828717709,13.48594856,16.40165524
20.49213368,-5.754140377,-8.346165657,14.84806252,17.97869776
20.49443915,-6.131010056,-9.092725754,16.00439453,19.40122651
20.49677045,-6.473183632,-9.80638504,16.4022007,20.17670641
20.49908884,-6.621538639,-10.60678482,16.14437485,20.4203207
20.50139431,-6.591030121,-11.52981567,15.2973156,20.25799082
20.50372561,-6.321238995,-12.41874981,14.25224972,19.93263734
20.506044,-6.084349632,-12.92483139,13.10369492,19.38497865
20.50834946,-5.47597456,-13.27717495,12.12383366,18.79513274
20.51068077,-4.54995203,-13.64088345,11.43410301,18.37156706
20.51299915,-3.684946775,-13.68873978,10.82154083,17.83440987
20.51530462,-2.746960402,-13.86939812,10.33998489,17.51631477
20.51763592,-1.880758643,-13.84487152,9.979865074,17.17019008
20.51995431,-1.245464206,-13.72523022,9.512666702,16.74586377
20.52225978,-0.8949156404,-13.55892944,9.195018768,16.40712686
20.52459108,-0.8524430394,-13.46740437,8.989834785,16.21464674
20.52690946,-1.019940615,-13.42313671,8.882756233,16.12836744
20.52921493,-1.329213023,-13.36870003,8.641080856,15.9736416
20.53154623,-1.849651933,-13.28973675,8.397610664,15.82902966
20.53386462,-2.446661234,-13.11266804,7.995018482,15.55148015
20.53617009,-2.965305567,-12.84227943,7.487142086,15.15831372
20.53850139,-3.483949661,-12.40379429,7.05523777,14.68905708
20.54081978,-3.823730469,-11.87019539,6.647261143,14.13182699
20.54312525,-3.961317778,-11.27797127,6.375077724,13.54718755
20.54545655,-3.99601388,-10.63071251,6.198009014,12.93814095
20.54777493,-3.965505362,-9.967302322,6.222535133,12.40130202
20.5500804,-4.016951084,-9.300901413,6.336194515,11.94947798
20.55241165,-4.134797573,-8.684151649,6.497709751,11.6073801
20.55473004,-4.24666214,-8.066802979,6.601797581,11.2557177
20.5570355,-4.362713814,-7.507481098,6.768697262,11.00957796
20.55936681,-4.606183529,-7.017550468,6.967899323,10.90937955
20.56168519,-4.786841869,-6.69511795,7.064210415,10.84626794
20.56399066,-4.889732838,-6.448058605,7.185646534,10.8222208
20.56632196,-4.957330227,-6.257231236,7.226324558,10.76790752
20.56864035,-4.972285271,-6.069993019,7.258029461,10.68865884
20.57094582,-4.841278553,-5.816951752,7.448258877,10.61844932
20.57327712,-4.68275404,-5.520241737,7.557132244,10.46477434
20.57559551,-4.396213531,-5.14397049,7.409375191,10.03423971
20.57790097,-4.039682865,-4.756931305,6.861418724,9.27504717
20.58023228,-3.936193228,-4.395017147,6.467799664,8.754554548
20.58255066,-3.969692707,-4.118047714,6.155536175,8.402821119
20.58485613,-4.211368084,-3.965505362,6.109474182,8.413473046
20.58718743,-4.604987144,-3.974478483,6.43549633,8.855393771
20.58950582,-5.082355499,-4.080958843,6.823133945,9.436086018
20.5918242,-5.628517151,-4.395615101,7.011568546,10.0081832
20.59414259,-6.188437462,-4.907679081,7.010372162,10.56065292
20.59646097,-6.491727829,-5.434698582,6.730412006,10.81558712
20.59876644,-6.649653912,-6.097510338,5.998806477,10.83435317
20.60109774,-6.774679184,-6.84646368,4.982454777,10.84413199
20.60341613,-6.86022234,-7.576274872,3.732205153,10.88080635
20.6057216,-6.73100996,-8.035696983,2.754138947,10.83809035
20.6080529,-6.684948444,-8.498707771,1.427318692,10.90659471
20.61037129,-6.628716946,-9.15733242,0.1112662554,11.30526451
20.6126767,-6.445067883,-9.639486313,-0.446859628,11.60423543
20.61500806,-6.398407936,-10.22453117,-0.8141579032,12.0889832
20.61732644,-6.588038921,-10.81017494,-0.7639086246,12.68249563
20.61963186,-6.795018196,-11.495718,-0.08853443712,13.35408713
20.62196316,-7.229315281,-12.33021545,0.8105686903,14.31622276
20.62428155,-7.945367813,-13.2963171,1.746760488,15.58756204
20.62658702,-8.746364594,-14.37368584,3.36012125,17.1578598
20.62891832,-9.589835167,-15.5042944,5.172684193,18.95005923
20.6312367,-10.32203865,-16.58884048,7.301698208,20.85782604
20.63354217,-10.84965611,-17.44307899,9.226125717,22.51882408
20.63587347,-11.08953667,-18.15195274,10.54576778,23.7420393
20.63819186,-10.82692432,-18.62573051,10.83709335,24.1160262
20.64049733,-9.837491989,-18.95354843,10.48594666,23.79008878
20.64282863,-8.286943436,-18.93380737,9.178269386,22.61422389
20.64514702,-6.599404812,-18.73400688,7.465008259,21.21889502
20.64745248,-5.057828903,-18.3601284,5.524429321,19.82915196
20.64978379,-3.70588398,-17.90908051,3.792623997,18.67759988
20.65210217,-2.577069998,-17.23191261,2.385644197,17.58611385
20.65440764,-1.689931035,-16.34896088,1.299302697,16.48734594
20.65673894,-1.105484009,-15.09272861,0.4462614357,15.13973914
20.65905733,-0.7357929349,-13.38485146,-0.09750752151,13.40541486
20.6613628,-0.4881358147,-11.62792206,-1.023529887,11.68308441
20.6636941,-0.3451646566,-10.03190899,-1.954337835,10.22632744
20.66601248,-0.111864455,-8.770293236,-3.030509949,9.279792436
20.66831795,-0.04366901144,-7.780860901,-4.105485439,8.797653894
20.67064926,-0.06819544733,-6.928418159,-4.984847546,8.53559218
20.67296764,-0.08973085135,-6.151348591,-5.453242779,8.221009544
20.67527311,-0.09990034252,-5.139184952,-5.665606022,7.649855792
20.67760441,-0.1345962733,-4.189234257,-5.644070625,7.030173045
20.6799228,-0.1172483116,-3.486342669,-5.315655708,6.358028624
20.68222821,-0.07417750359,-3.148356438,-4.664209366,5.627832582
20.68455952,-0.1914258152,-2.890529871,-3.951746702,4.899807014
20.6868779,-0.3714857101,-2.754138947,-3.309871912,4.321867078
20.68918337,-0.560518682,-2.796013355,-2.853441,4.034104289
20.69151467,-0.7136593461,-2.90967226,-2.410768747,3.84542693
20.69383306,-0.8111668825,-3.103491068,-2.094916344,3.83122996
20.69613853,-0.8051848412,-3.376870871,-1.97826612,3.995637164
20.69846983,-0.7112665176,-3.733999729,-1.827518344,4.217638834
20.70078821,-0.537786901,-4.321437836,-1.907079697,4.754050135
20.7031066,-0.2488535494,-5.03988266,-2.204387903,5.506511722
20.70542498,0.09990034252,-5.964708805,-2.900699139,6.633384257
20.70774337,0.560518682,-6.887141705,-3.858426571,7.914187113
20.71004884,0.8273184299,-7.589435101,-5.053043365,9.15517494
20.71238014,0.8632107973,-8.061419487,-6.260820389,10.2435096
20.71469853,1.089332461,-8.638688087,-7.022934437,11.18638392
20.717004,1.282552958,-9.273982048,-7.67916584,12.10872715
20.7193353,1.514058471,-9.951749802,-8.201997757,12.98470117
20.72165368,1.769492388,-10.70967579,-8.44726181,13.75443532
20.72395915,1.945963025,-11.40658569,-8.52622509,14.3733602
20.72629045,2.12183547,-12.09452248,-8.534002304,14.9535566
20.72860884,2.201396942,-12.6442728,-8.376673698,15.32620127
20.73091431,2.240878344,-13.10907841,-8.201399803,15.6247378
20.73324561,2.225325108,-13.49791241,-7.955537319,15.82517884
20.735564,2.234298229,-13.80897903,-7.461419106,15.85410879
20.73786946,2.281556368,-14.17209053,-6.857829571,15.90859755
20.74020077,2.307279348,-14.39581966,-6.335596085,15.89663296
20.74251915,2.306680918,-14.60100365,-5.623133183,15.8154896
20.74482462,2.318645239,-14.96411419,-4.728815556,15.86387487
20.74715592,2.274976015,-15.31466293,-4.077968121,16.01075391
20.74947431,2.235494614,-15.56471348,-3.623331785,16.13648893
20.75177972,2.218744755,-15.65025616,-3.093321562,16.10658202
20.75411108,2.215753794,-15.67837238,-2.563909531,16.04040391
20.75642946,2.224726915,-15.6436758,-2.024327993,15.93021991
20.75873488,2.239083767,-15.55633831,-1.748555183,15.81362081
20.76106618,2.29052949,-15.38644791,-1.567897081,15.6348203
20.76338457,2.329412937,-15.06341648,-1.493719578,15.31547841
20.76569004,2.298904419,-14.64168167,-1.463809252,14.89317096
20.76802134,2.355135679,-14.2564373,-1.366301775,14.51411207
20.77033972,2.376072884,-14.01476192,-1.200598717,14.26536755
20.77264519,2.349751949,-13.75155163,-1.178465128,14.00054593
20.7749765,2.302493572,-13.40219975,-1.143171072,13.64651145
20.77729488,2.254637241,-13.04806232,-1.070189953,13.28460109
20.77960035,2.157727718,-12.66999626,-0.8877372146,12.88303813
20.78193165,2.035095692,-12.24526978,-0.6628118753,12.43091171
20.78425004,1.839482427,-11.93719387,-0.4809573591,12.08766367
20.78655551,1.593619823,-11.67398357,-0.485144794,11.79223821
20.78888681,1.405783296,-11.39043427,-0.5270192027,11.48894985
20.79120519,1.258026481,-11.06740284,-0.4540380836,11.14792298
20.79351066,1.144965649,-10.79581738,-0.2572284341,10.85941
20.79584196,1.042074203,-10.58166027,-0.05383851007,10.63298412
20.79816035,0.9780662656,-10.50150013,-0.03589234129,10.54700938
20.80046582,0.9469595551,-10.39143085,-0.07597211748,10.4347659
20.80279712,0.9032905698,-10.33998489,-0.1244267747,10.38011096
20.8051155,0.822532773,-10.30887794,-0.3014956415,10.34603423
20.80743389,0.7363911867,-10.23410225,-0.5126622319,10.27336086
20.80975228,0.6323033571,-10.07378292,-0.5862415433,10.11061764
20.81207066,0.4857429862,-9.928419113,-0.6077769399,9.958857622
20.81438905,0.3487538993,-9.820742607,-0.566500783,9.843248335
20.81670743,0.2548356056,-9.866206169,-0.6149554253,9.888636687
20.81902582,0.1740778536,-9.887741089,-0.5533402562,9.904741914
20.8213442,0.03230310604,-9.813564301,-0.3649054468,9.820399368
20.82366254,-0.102293171,-9.643673897,-0.2051845491,9.646398852
20.82598092,-0.2715853751,-9.440283775,0.04546362907,9.444298985
20.82829931,-0.3780659735,-9.394820213,0.1298106313,9.403320239
20.83061774,-0.3894318938,-9.366106033,0.2249253243,9.376896652
20.83293608,-0.4588237405,-9.305088997,0.3242274821,9.322034323
20.83525446,-0.5479564071,-9.229715347,0.4893322289,9.258906396
20.83757285,-0.4773681164,-9.405587196,0.5485545993,9.433655865
20.83989123,-0.6873382926,-9.270991325,0.7363911867,9.325555536
20.84220962,-0.8297112584,-9.130413055,0.8153542876,9.204220008
20.844528,-0.8099704385,-9.033503532,1.039083242,9.129070718
20.84684639,-0.693320334,-8.949156761,1.039083242,9.035916877
20.84916478,-0.4791627228,-8.839086533,0.7208378315,8.881365595
20.85148316,-0.05503492057,-8.714659691,0.4426721931,8.726069049
20.85380155,0.4163511395,-8.602795601,0.1645065546,8.614435723
20.85611993,0.8781659007,-8.43948555,-0.2099701911,8.487648625
20.85843832,1.255633712,-8.219346046,-0.4654040039,8.327716754
20.8607567,1.378265858,-7.779664516,-0.5246263742,7.918208737
20.86306217,1.539781332,-7.396812916,-0.5312066078,7.57403118
20.86539347,1.600200176,-7.101897717,-0.718445003,7.315309631
20.86771186,1.584048629,-6.747759819,-1.036092162,7.00820659
20.87001733,1.649253011,-6.434898376,-1.252642632,6.759960516
20.87234863,1.683948994,-6.232704639,-1.468594909,6.621107335
20.87466702,1.618744493,-6.267998695,-1.564307809,6.659969992
20.8769854,1.408176184,-6.532405853,-1.764108539,6.911393878
20.87930379,1.266999602,-6.780661106,-1.782652855,7.124640639
20.88162217,1.148554921,-6.841079712,-1.673779488,7.135901331
20.88394056,0.9493523836,-6.763313293,-1.485344648,6.989272164
20.88625894,0.7262216806,-6.686742783,-1.278365493,6.84646955
20.88857733,0.5030909777,-6.634100914,-1.065404296,6.737913756
20.89089571,0.313459754,-6.541976929,-0.8817551732,6.608571051
20.8932141,0.1836491376,-6.54018259,-0.7112665176,6.58130803
20.89553248,0.1184447184,-6.684948444,-0.4821537733,6.703360136
20.89785087,0.07417750359,-6.882356167,-0.195015043,6.885518105
20.9001692,0.03409772366,-7.084549427,0.06879365444,7.084965477
20.90248759,-0.06400800496,-7.240083218,0.3218346536,7.247515406
20.90480597,-0.1441675574,-7.352545738,0.5796613097,7.376768964
20.90712436,-0.237487644,-7.512266636,0.8709874153,7.566318092
20.90944274,-0.3637090325,-7.697112083,1.162313581,7.792867992
20.91174821,-0.4624129832,-7.847859859,1.415354609,7.987863219
20.91407952,-0.5156532526,-8.041080475,1.554736495,8.206221972
20.9163979,-0.546759963,-8.16610527,1.645663738,8.34819926
20.91870337,-0.656829834,-8.173283577,1.759322882,8.386251061
20.92103467,-0.7256234884,-8.151150703,1.906481385,8.402526912
20.92335306,-0.7890332937,-8.137392044,2.091326952,8.438801529
20.92567144,-0.7926225066,-8.209774017,2.188236237,8.533288796
20.92798983,-0.7627122402,-8.276175499,2.222334146,8.603230783
20.93030821,-0.6885347366,-8.384450912,2.25703001,8.710182642
20.9326266,-0.6400800347,-8.42213726,2.257628202,8.74293907
20.93494498,-0.6065805554,-8.416753769,2.234298229,8.729362666
20.93726337,-0.5144568682,-8.453244209,2.167897224,8.741955268
20.93958176,-0.4797609448,-8.467002869,2.015354872,8.716763356
20.94190014,-0.4103690982,-8.480163574,1.787438512,8.676203863
20.94421853,-0.3152543902,-8.425726891,1.616351724,8.58515299
20.94653691,-0.2219343036,-8.269595146,1.396810174,8.38966849
20.9488553,-0.08015955985,-8.14696312,1.168295622,8.230695492
20.95117368,0.06699903309,-8.018946648,0.8297112584,8.062035412
20.95349207,0.1208375469,-7.79761076,0.470787853,7.812744491
20.95581045,0.3367897868,-7.725826263,0.05742774159,7.733376802
20.95812884,0.6305087805,-7.695915699,-0.3415754437,7.729251811
20.96043431,0.9002995491,-7.67138958,-0.7489534616,7.76026344
20.96276561,1.126421213,-7.618747234,-1.186241865,7.792387563
20.965084,1.355534077,-7.508079052,-1.557727575,7.786863225
20.96738946,1.526022673,-7.557730198,-1.851446509,7.929431576
20.96972077,1.695913076,-7.645068169,-1.929811478,8.065194406
20.97203915,1.723430514,-7.630113125,-1.863410592,8.041214962
20.97434462,1.65463686,-7.751548767,-1.810768485,8.130388302
20.97667587,1.49431777,-7.89870739,-1.563111424,8.189376127
20.97899431,1.317248821,-8.132605553,-1.266999602,8.33544873
20.98131264,1.098305583,-8.473583221,-0.8368897438,8.585352189
20.98363103,0.8404789567,-8.776275635,-0.3744767308,8.824378262
20.98594941,0.5353940725,-9.109476089,0.002392822644,9.125196281
20.9882678,0.1872383654,-9.381061554,0.3637090325,9.389976483
20.99058618,-0.1968096644,-9.553344727,0.6616154313,9.578249552
20.99290457,-0.5533402562,-9.662218094,0.8123632669,9.712084123
20.99521004,-0.8895317912,-9.756135941,0.7812566161,9.827706609
20.99754134,-1.136590719,-9.747760773,0.7028916478,9.83893974
20.99985972,-1.286740422,-9.785448074,0.5156532526,9.883146928
21.00216519,-1.347757339,-9.787242889,0.3337987661,9.885241264
21.0044965,-1.37048912,-9.778269768,0.1956132501,9.875781722
21.00681488,-1.269990563,-9.756733894,0.09631111473,9.839512597
21.00913327,-1.062413216,-9.675378799,0.04965107143,9.733660256
21.01145165,-0.7692924738,-9.56770134,0.05144568533,9.598716919
21.01377004,-0.394217521,-9.481559753,0.006580262445,9.489753743
21.01608842,0.09032905847,-9.39840889,-0.04725824669,9.398961769
21.01840681,0.6011967063,-9.386445045,-0.1627119333,9.4070858
21.02072519,1.127617717,-9.403194427,-0.2865405083,9.474898027
21.02303066,1.682154298,-9.433703423,-0.3720839322,9.589726263
21.02536196,2.190629244,-9.493523598,-0.4624129832,9.753956764
21.02768035,2.674577475,-9.574281693,-0.5335994363,9.955147561
21.02998582,3.026322365,-10.05105114,-0.5748756528,10.51250389
21.03231712,3.265604734,-10.11206818,-0.4624129832,10.63634913
21.0346355,3.582653761,-9.850652695,-0.394815743,10.4893587
21.03694097,3.794418573,-9.739984512,-0.3894318938,10.46023746
21.03927228,3.94815731,-9.817750931,-0.3158525825,10.58659257
21.04159066,4.046861172,-9.973284721,-0.1896311939,10.76473193
21.04389613,4.085146427,-10.18385315,-0.06819544733,10.97287277
21.04622743,4.071387768,-10.48116112,0.1387837082,11.24500768
21.04854582,4.012165546,-10.83290672,0.3361915946,11.5569185
21.0508642,3.896113396,-11.20977592,0.6053841114,11.88298219
21.05318259,3.732205153,-11.58245754,0.8829515576,12.20091314
21.05550092,3.594617844,-11.87438202,1.103689432,12.45553516
21.05780639,3.415156126,-12.16152096,1.295115232,12.69815762
21.06013769,3.229114056,-12.40977669,1.509871125,12.91160121
21.06245608,3.003590584,-12.5928278,1.63788712,13.04927364
21.06476155,2.866003275,-13.04746342,1.80658114,13.48013397
21.06709285,2.642872572,-13.13898945,1.967498422,13.54580633
21.06941123,2.44247365,-12.75912857,1.967498422,13.13895313
21.07172962,2.297109842,-12.66162109,1.951346874,13.01541843
21.074048,2.242074728,-12.75374508,1.932802439,13.09277044
21.07636639,2.207378864,-12.69272804,1.908276081,13.02380068
21.07868478,2.201995134,-12.6687994,1.902892232,12.99877916
21.08100316,2.188236237,-12.6687994,1.878963947,12.99297355
21.08332155,2.18644166,-12.59222889,1.864008784,12.91585399
21.08563993,2.154138565,-12.41575813,1.710269928,12.71677578
21.08795832,2.129612207,-12.3493576,1.566102386,12.62911549
21.0902767,2.143969059,-12.32961655,1.494915962,12.6036035
21.09259509,2.143969059,-12.30568886,1.461416483,12.57626016
21.09491347,2.130808592,-12.31107235,1.341775298,12.56595435
21.09723186,2.097309113,-12.26441288,1.155135155,12.49595399
21.09955024,2.039283037,-12.16032505,0.9535398483,12.36694865
21.10186863,1.972284079,-12.09512043,0.7519445419,12.27791771
21.10418702,1.901695848,-12.06879902,0.5222335458,12.22886277
21.1065054,1.825125456,-12.03230858,0.3828516304,12.17596436
21.10882379,1.712662816,-12.06879902,0.2201396823,12.19170149
21.11114217,1.648056626,-12.10887909,0.1100698411,12.221013
21.11346056,1.499701619,-12.0598259,0.0466600433,12.15280555
21.11577894,1.384247899,-12.01436234,-0.01674975827,12.09385485
21.11809733,1.276570916,-12.1034956,0.01196411345,12.17063606
21.12041571,1.146162033,-12.03888893,0.08135596663,12.09359967
21.1227341,1.030110121,-11.87797165,0.3128615618,11.92666004
21.12505248,0.9445667267,-11.77328587,0.5497509837,11.82390344
21.12737087,0.8584251404,-11.65065384,0.7914260626,11.70901293
21.12968926,0.8494520187,-11.54477119,0.9810572863,11.61747753
21.13200764,0.8829515576,-11.57707405,1.101296663,11.66280847
21.13432603,0.9870393276,-11.61296654,1.274178028,11.72428113
21.13664436,1.127019525,-11.72423267,1.414756417,11.86293979
21.1389628,1.281356573,-12.00000572,1.484746456,12.15921396
21.14128113,1.45782721,-12.37029457,1.493719578,12.54514432
21.14359957,1.645663738,-12.76391411,1.402792215,12.94579231
21.1459179,1.848455548,-13.17308712,1.259821177,13.36166762
21.14822337,2.012962103,-13.58225918,1.097707391,13.77442348
21.15055467,2.254039049,-13.98963737,0.9302098155,14.20056112
21.15287306,2.435295343,-14.32223988,0.7579265833,14.54756582
21.15517853,2.583052158,-14.62194061,0.5802595019,14.85967721
21.15750983,2.748156786,-14.88694572,0.4642075896,15.14559366
21.15982821,2.92402935,-15.03649712,0.3810569942,15.32290435
21.16213368,3.078964472,-15.10469341,0.3876372576,15.42018314
21.16446498,3.181855917,-15.0209446,0.3547359705,15.35834696
21.16678337,3.26440835,-14.88455296,0.3643072546,15.24267032
21.16910176,3.334996462,-14.66680622,0.3870390654,15.04616913
21.17142014,3.336791277,-14.39761353,0.456430912,14.78627
21.17373853,3.265006542,-14.03928852,0.4917250574,14.4223328
21.17605691,3.19980216,-13.72343636,0.4887340367,14.10001065
21.1783753,3.116053343,-13.41835117,0.4378865361,13.78236849
21.18069368,2.989831924,-13.12881947,0.3583251834,13.46972132
21.18301207,2.898904562,-12.92004585,0.2368894368,13.24338888
21.18533045,2.800200701,-12.75374508,0.1058823988,13.05796112
21.18764884,2.679363251,-12.62752342,-0.06281159073,12.90880632
21.18996722,2.612364054,-12.60060406,-0.1782652885,12.86978815
21.19228561,2.523829699,-12.65504074,-0.2171486616,12.90608097
21.194604,2.42273283,-12.78245831,-0.2931207716,13.01333141
21.19692238,2.295913219,-12.99302673,-0.4689932466,13.20264806
21.19924077,2.177468538,-13.30828094,-0.7351947427,13.50526646
21.20155915,2.015953064,-13.60977745,-0.9822536707,13.79329298
21.20387754,1.815554142,-13.78804207,-1.111466169,13.95140487
21.20619592,1.630110383,-13.80180073,-1.070189953,13.9388762
21.20851431,1.413560033,-13.77787304,-0.8955138922,13.87911678
21.21083269,1.175474167,-13.7108736,-0.5551348329,13.77236251
21.21315108,0.8877372146,-13.58704472,-0.1579262912,13.61693072
21.21546946,0.6191428304,-13.35733414,0.3870390654,13.37727597
21.21777493,0.3128615618,-13.11865044,1.016351461,13.16168082
21.22010623,0.0580259487,-12.8632164,1.661217093,12.97017137
21.22242462,-0.1740778536,-12.5940237,2.387438774,12.81950077
21.22473009,-0.3936193287,-12.41516018,3.037090063,12.78730052
21.22706139,-0.6197410822,-12.33799171,3.55992198,12.85624996
21.22937978,-0.8907282352,-12.32483101,3.972085476,12.97968872
21.23168519,-1.092921734,-12.33858967,4.280161381,13.10553526
21.23401655,-1.31126678,-12.60239887,4.408775806,13.41555746
21.23633488,-1.494915962,-13.00618744,4.267599106,13.76982526
21.23864035,-1.673779488,-13.36152172,3.872783422,14.01178975
21.24097165,-1.828116536,-13.67318726,3.32063961,14.1888938
21.24329004,-1.973480463,-13.95613766,2.705684185,14.35232143
21.2455955,-2.068595171,-14.30608845,2.005783558,14.59336905
21.24792681,-2.100300074,-14.6823597,1.226321578,14.88243297
21.25024519,-2.083550215,-15.06281853,0.394217521,15.21134744
21.25255066,-1.99501586,-15.43250942,-0.5611169338,15.57104003
21.25488196,-1.808973908,-15.87637806,-1.509871125,16.05027968
21.25720035,-1.568495274,-16.24188232,-2.39760828,16.49264819
21.25950582,-1.279561877,-16.63071632,-3.18843627,16.98187651
21.26183712,-0.9511470199,-16.95075607,-3.894318819,17.41833893
21.2641555,-0.7166503668,-17.14816284,-4.606183529,17.77048123
21.26646097,-0.4929214716,-17.30249977,-5.251647472,18.08865034
21.26879228,-0.3349951804,-17.33300972,-5.722435474,18.2562788
21.27111066,-0.2297109663,-17.24507332,-6.061019897,18.28062589
21.27341613,-0.2769692242,-17.14098549,-6.457630157,18.31914525
21.27574743,-0.3984049559,-16.96212196,-6.803392887,18.28000172
21.27806582,-0.5288137794,-16.69233131,-6.949953556,18.0890968
21.28037129,-0.6783652306,-16.29213142,-6.844669342,17.68454761
21.28270259,-0.9391828775,-15.88415527,-6.56829834,17.21426723
21.28502097,-1.265205026,-15.52702618,-6.287739754,16.79955228
21.28733936,-1.603191137,-15.16391563,-5.821139336,16.32177142
21.28965775,-1.916650891,-14.79542065,-5.334797859,15.84418161
21.29197613,-2.226521492,-14.46580887,-4.663012981,15.3610128
21.2942816,-2.542972326,-14.25105381,-3.903890133,14.99331855
21.2966129,-2.829512835,-14.15534019,-3.05324173,14.7547309
21.29893129,-3.088535786,-14.18405437,-2.153540373,14.67529175
21.30123676,-3.362514019,-14.21695614,-1.120439172,14.65208949
21.30356806,-3.582653761,-14.3066864,-0.1447657645,14.74915729
21.30588644,-3.743571043,-14.43410397,0.7663014531,14.9313395
21.30819191,-3.840480328,-14.50648689,1.700698733,15.10231199
21.31052321,-3.90568471,-14.58365536,2.388036966,15.28529022
21.3128416,-3.909274101,-14.77926922,2.851646423,15.55124143
21.31514707,-3.72024107,-14.95693588,3.154936552,15.73225188
21.31747837,-3.46420908,-15.0281229,2.976671457,15.70687096
21.31979676,-3.18843627,-15.05085468,2.564507723,15.59714885
21.32210222,-2.941377163,-15.02273846,1.922633052,15.42824968
21.32443353,-2.73798728,-14.89891052,1.131805062,15.19062513
21.32675191,-2.520240545,-14.71346664,0.1686939895,14.92870292
21.3290703,-2.443670034,-14.62672615,-0.7375875711,14.84778356
21.33138868,-2.365903378,-14.48674679,-1.377667665,14.74317807
21.33370707,-2.24267292,-14.37428379,-1.691725612,14.64621288
21.33601254,-2.221137524,-14.19183064,-1.99800694,14.50288042
21.33834384,-2.178664923,-13.90289783,-2.261815548,14.25317363
21.34066222,-2.209771633,-13.54397392,-2.541775942,13.95646607
21.34296769,-2.194218397,-13.23649693,-2.510669231,13.65001484
21.345299,-2.242074728,-12.88654613,-2.404188633,13.29925161
21.34761738,-2.269592285,-12.58923817,-2.339582443,13.00436899
21.3499228,-2.33300209,-12.37448215,-2.303091764,12.80136473
21.35225415,-2.364108801,-12.21236897,-2.453241348,12.67869707
21.35457254,-2.385644197,-12.08375454,-2.587837696,12.58591776
21.35687795,-2.434697151,-11.97488117,-2.78883481,12.5340787
21.35920926,-2.436491728,-11.87916756,-2.909074068,12.47051826
21.36152764,-2.359921217,-11.82951736,-3.084946632,12.45084756
21.36384603,-2.303091764,-11.71765232,-3.423531055,12.42288906
21.36616441,-2.201396942,-11.70628643,-3.662214994,12.46174583
21.3684828,-2.091925144,-11.55912781,-3.466601849,12.24773101
21.37080118,-1.947757602,-11.35872936,-3.113660574,11.93772904
21.37311957,-1.774278045,-11.12841988,-2.851048231,11.62403835
21.37543795,-1.547558069,-10.95912743,-2.52143693,11.35143401
21.37775634,-1.275972724,-10.87059307,-2.128415823,11.15024906
21.38007472,-1.080957651,-10.75035381,-1.874776483,10.96600946
21.38239311,-0.8679963946,-10.7545414,-1.677368641,10.91911828
21.3847115,-0.6502495408,-10.86461163,-1.707877159,11.01723444
21.38702988,-0.4959124923,-10.88076305,-1.897508383,11.05610564
21.38934827,-0.3206382394,-10.7617197,-2.011167526,10.95272636
21.39166665,-0.1800599098,-10.50808048,-1.97826612,10.69419066
21.39398504,0.0185443759,-10.43150997,-2.020140409,10.62533348
21.39630342,0.2715853751,-10.40159988,-2.165504456,10.62809712
21.39860889,0.522831738,-10.31426239,-2.259422779,10.57177152
21.40094019,0.6693921089,-10.2149601,-2.402393818,10.5149889
21.40325858,0.9170492887,-10.10429192,-2.677568436,10.49319147
21.40556405,1.151545882,-9.80219841,-3.163909674,10.36433674
21.40789535,1.135992527,-9.327222824,-3.415754318,9.997746856
21.41021373,1.040877819,-8.83968544,-3.238685369,9.471670826
21.4125192,1.003789067,-8.407182693,-2.965903759,8.971337606
21.4148505,0.9822536707,-8.047062874,-2.625524759,8.521351033
21.41716889,0.9529415965,-7.725826263,-2.375474691,8.138757224
21.41947436,0.8991031051,-7.409375191,-2.053041935,7.740943631
21.42180566,0.7513462901,-7.080960274,-1.91365993,7.373371954
21.42412405,0.4731806815,-6.703492641,-1.871187329,6.975819348
21.42642952,0.1579262912,-6.340980053,-1.724028707,6.573069582
21.42876082,0.2895315289,-6.086742401,-1.142572761,6.199817262
21.4310792,0.37986058,-5.983253002,-0.8757730722,6.058926392
21.43338467,0.4109672904,-5.815157413,-1.143769264,5.94080449
21.43571597,0.3792623878,-5.552545071,-1.632503271,5.799971004
21.43803436,0.3511467278,-5.237290382,-2.126621008,5.663482276
21.44033983,0.2931207716,-4.922036171,-2.425125837,5.494869897
21.44267113,0.2524427772,-4.567898273,-2.652443886,5.288183106
21.44498952,0.304486692,-4.182653904,-2.697309256,4.986259424
21.44729498,0.3164508045,-3.879961967,-2.794816732,4.792206856
21.44962629,0.3714857101,-3.600001574,-2.806182861,4.579593346
21.45194467,0.3978067636,-3.335594654,-2.803191662,4.375194328
21.45425014,0.3726821244,-3.101098061,-2.843271494,4.223729861
21.45658144,0.3445664644,-2.92402935,-2.844467878,4.093857741
21.45889983,0.3176472187,-2.823530674,-2.793022156,3.984243716
21.4612053,0.2662015259,-2.690130949,-2.727817774,3.840398102
21.4635366,0.2291127741,-2.575275421,-2.681157827,3.724666892
21.46585498,0.2267199457,-2.489133835,-2.65364027,3.645407503
21.46816045,0.166301176,-2.36111784,-2.650051117,3.553210444
21.47049176,0.111864455,-2.174477577,-2.441875458,3.27163906
21.47281014,0.09092725813,-2.02073884,-2.118844509,2.9293609
21.47511561,0.1058823988,-1.923829436,-1.866401672,2.682496223
21.47744691,0.1112662554,-1.81794703,-1.71924305,2.504617385
21.4797653,0.04307080805,-1.752742529,-1.734796405,2.46647117
21.48208368,-0.03948157281,-1.672582984,-1.807777524,2.46315899
21.48440207,-0.1992024779,-1.556531072,-1.905285001,2.468315527
21.48672045,-0.4115654826,-1.432104349,-2.003390789,2.496774653
21.48903884,-0.7004988194,-1.295115232,-2.178664923,2.629563254
21.49135722,-0.7926225066,-1.200000525,-1.674975872,2.207667518
21.49367561,-0.9349954724,-1.144965649,-1.299900889,1.968477887
21.495994,-1.104287624,-1.11984098,-1.062413216,1.897950689
21.49831238,-1.256830096,-1.142572761,-1.001396298,1.971773047
21.50063077,-1.43808639,-1.161117196,-0.9601200819,2.082814486
21.50294915,-1.552343726,-1.188036442,-0.9421738982,2.169998453
21.50526754,-1.676770449,-1.185643673,-0.8811569214,2.234669456
21.50758592,-1.828714728,-1.213759303,-0.9254241586,2.381977976
21.50990431,-1.950748682,-1.278963685,-0.9445667267,2.516619723
21.51222269,-2.119442701,-1.407577872,-0.902692318,2.699660396
21.51454108,-2.292922258,-1.531406522,-0.8506484628,2.885533092
21.51685946,-2.463410854,-1.588235974,-0.7657032609,3.029387402
21.51917785,-2.610569477,-1.644467354,-0.6951149702,3.162677773
21.52149618,-2.724228621,-1.704886079,-0.6436693072,3.277555232
21.52381457,-2.831307411,-1.81794703,-0.5862415433,3.415393419
21.52613301,-2.903690338,-1.992024899,-0.5192425251,3.559381066
21.52845134,-2.991626501,-2.128415823,-0.4474578202,3.698675647
21.53076978,-3.088535786,-2.255235434,-0.3708875179,3.84222562
21.53308816,-3.133401155,-2.395813704,-0.2751746178,3.953966006
21.5354065,-3.139383316,-2.596810818,-0.09212367237,4.07524733
21.53772488,-3.154936552,-2.769692183,0.03349951655,4.198326053
21.54004327,-3.227917671,-2.944966555,0.2009970993,4.374091944
21.54236165,-3.220739365,-3.1405797,0.5072783828,4.527000582
21.54468004,-3.260818958,-3.328416348,0.8087740541,4.729208299
21.54699842,-3.287140131,-3.501297712,1.05822587,4.917745205
21.54931681,-3.280559778,-3.644867182,1.345364571,5.084991156
21.55162228,-3.297907829,-3.807579041,1.622931957,5.292236043
21.55395358,-3.282952785,-3.951148272,2.015354872,5.5182431
21.55627196,-3.336193085,-4.03788805,2.435295343,5.776278007
21.55857743,-3.346362352,-4.152743816,2.889333248,6.065613639
21.56090873,-3.396013498,-4.229912281,3.371487141,6.386860819
21.56322712,-3.446262836,-4.292723656,3.900899172,6.746941401
21.56553259,-3.471985579,-4.402195454,4.559523582,7.226566541
21.56786389,-3.532404423,-4.503292084,5.255835056,7.770541985
21.57018228,-3.623929977,-4.65762949,5.919843197,8.358882965
21.57248774,-3.697509289,-4.797609329,6.640082836,8.98773221
21.57481905,-3.819543123,-4.928616524,7.365108013,9.650128836
21.57713743,-3.994817495,-5.03689146,8.151748657,10.3817074
21.5794429,-4.210769653,-5.218746185,8.957531929,11.18942675
21.5817742,-4.391427994,-5.523232937,9.906884193,12.16293946
21.58409259,-4.627120972,-5.863611698,10.6797657,13.03263542
21.58639806,-4.909473896,-6.177071571,11.18584728,13.68876644
21.58872936,-5.126024246,-6.574878216,11.54417324,14.23984143
21.59104774,-5.303092957,-6.977470875,11.72662544,14.6397281
21.59335321,-5.444868088,-7.412964344,11.82891846,14.98405622
21.59568452,-5.679962635,-7.855636597,11.64407349,15.1511534
21.5980029,-6.025725842,-8.167302132,11.11346436,15.05069055
21.60030837,-6.361319065,-8.498109818,10.57448101,14.98345419
21.60263967,-6.320641041,-8.983254433,10.10608673,14.92589536
21.60495806,-6.099903107,-9.473184586,9.65803051,14.8400673
21.60726353,-5.661418438,-10.01156998,9.174679756,14.71250967
21.60959483,-5.199603558,-10.58225822,8.672187805,14.63649233
21.61191321,-4.5930233,-11.07817078,8.423932076,14.65552327
21.61421868,-3.899702787,-11.55553913,8.60518837,14.92606557
21.61654998,-3.222533941,-11.98146152,8.795417786,15.20853442
21.61886837,-2.645863533,-12.18844032,9.035896301,15.40149646
21.62117384,-2.188834429,-12.3984108,9.189635277,15.58720575
21.62350514,-1.862214208,-12.52941799,9.303294182,15.7164067
21.62582353,-1.727019787,-12.5365963,9.118449211,15.59791525
21.628129,-1.73898387,-12.39302635,8.916853905,15.36624387
21.6304603,-1.900499344,-12.16211891,8.679366112,15.06188668
21.63277868,-2.168495417,-11.85703468,8.45085144,14.72102354
21.63509707,-2.465205431,-11.52802086,8.078767776,14.29122078
21.63741545,-2.762513638,-11.19960594,7.730013371,13.88581152
21.63973384,-3.037090063,-10.81735325,7.47697258,13.49607966
21.64203931,-3.26979208,-10.41476059,7.214360237,13.08456235
21.64437061,-3.541975737,-9.946365356,6.955935478,12.64360765
21.646689,-3.782454491,-9.471988678,6.764509678,12.23863239
21.64899446,-3.984647989,-9.016156197,6.692724705,11.91474113
21.65132577,-4.16710043,-8.569295883,6.605985165,11.59467972
21.65364415,-4.396213531,-8.161319733,6.495915413,11.31948542
21.65594962,-4.591826439,-7.75812912,6.37687254,11.04255138
21.65828092,-4.685146809,-7.434499741,6.288337708,10.80581224
21.66059931,-4.721637249,-7.136593342,6.285346985,10.61745777
21.66290478,-4.7844491,-6.903293133,6.221338749,10.45234257
21.66523608,-4.85982275,-6.736992359,6.1429739,10.33155707
21.66755446,-4.97467804,-6.682555676,5.974878311,10.25198238
21.66985993,-5.049454212,-6.675376892,5.726024628,10.14125251
21.67219123,-5.05423975,-6.79561615,5.531009674,10.11522646
21.67450962,-5.042873859,-7.035496712,5.508875847,10.2604339
21.676828,-5.048257351,-7.26042223,5.763711452,10.55552002
21.67914639,-5.042275429,-7.481160164,6.270989895,10.98715674
21.68146478,-5.109872818,-7.67916584,6.43848753,11.24875593
21.68378316,-5.081159115,-7.832306862,6.315855503,11.27178954
21.68610155,-4.887938499,-8.005785942,6.114260197,11.19681781
21.68841993,-4.664807796,-8.125427246,5.959324837,11.10389806
21.69073832,-4.458426952,-8.139784813,5.875576019,10.9843553
21.6930567,-4.427320004,-8.096115112,6.023332596,11.01947267
21.69537509,-4.506881237,-7.871788502,6.316453457,11.05326273
21.69769347,-4.655236244,-7.55294466,6.522834301,11.01206451
21.70001186,-4.844867706,-7.225726128,6.537789822,10.88239665
21.70233025,-5.184050083,-6.7734828,6.254838467,10.57721366
21.70463571,-5.61655283,-6.280561447,5.670989513,10.15633988
21.70696702,-6.099903107,-5.764907837,4.67976284,9.609534875
21.7092854,-6.439683914,-5.155934811,3.418147087,8.929553303
21.71159082,-6.70588541,-4.530809879,1.889133453,8.310593391
21.71392217,-6.957729816,-3.900899172,0.2943171859,7.982082507
21.71624056,-6.724429607,-3.470789194,-1.113858938,7.648856967
21.71854597,-6.520441532,-3.21894455,-2.392822742,7.655283304
21.72087733,-6.146563053,-2.903092146,-2.482553482,7.236798544
21.72319571,-5.430510998,-2.95752883,-2.318645239,6.604054983
21.72550113,-4.931009293,-3.133401155,-2.250449657,6.260797002
21.72783243,-4.685744762,-3.678366661,-1.810170293,6.22601813
21.73015087,-4.750949383,-4.572085857,-0.8931210637,6.653807508
21.7324692,-5.301896572,-5.657829285,0.5312066078,7.771957278
21.73478759,-6.288936138,-7.301698208,2.309073925,9.909456941
21.73710597,-7.480561733,-8.732605934,4.488935471,12.34373331
21.73941144,-9.10349369,-10.01097202,6.444469452,14.98747293
21.74174274,-10.94178009,-11.42752266,8.88993454,18.14777567
21.74406113,-12.60778236,-12.93739414,11.0566349,21.17974312
21.7463666,-13.80359554,-14.19601822,13.23051453,23.81412811
21.7486979,-14.58604908,-15.53240967,14.607584,25.83389417
21.75101629,-14.58126259,-17.14936066,15.09153271,27.10107284
21.75332176,-13.37887001,-18.85005951,15.26202106,27.69924536
21.75565306,-11.34018517,-20.6195507,14.23430347,27.50238292
21.75797144,-8.603992462,-22.27777672,12.69153118,27.04446312
21.76027691,-5.549553871,-23.41915321,10.85683441,26.40312744
21.76260821,-2.586641312,-23.83311081,9.145368576,25.65824722
21.7649266,-0.04426721856,-23.55075836,7.562515736,24.73523445
21.76723207,1.972284079,-22.77608299,5.838487148,23.59507985
21.76956337,3.343969584,-21.41277122,3.942175388,22.02792888
21.77188176,4.409972191,-19.9029007,1.736590981,20.45944914
21.77418722,5.215157032,-18.40858269,-0.628115952,19.14336201
21.77651853,5.594419479,-16.90110397,-2.982653379,18.05106828
21.77883691,5.719444275,-15.32244015,-5.268397331,17.18270134
21.78114238,5.4622159,-13.65583897,-7.18145895,16.36737893
21.78347368,4.976472855,-11.87797165,-8.381459236,15.36555731
21.78579207,4.356731892,-10.29392338,-8.761320114,14.20234845
21.78809754,3.603590965,-8.933005333,-8.558527946,12.8853736
21.79042884,2.837289333,-7.619345665,-7.69651413,11.19557809
21.79274722,2.034497499,-6.421139717,-6.548557281,9.394350313
21.79505269,1.229312658,-5.587240696,-5.183452129,7.71988628
21.797384,0.4701896608,-4.881956577,-3.83569479,6.226325791
21.79970238,-0.1220339537,-4.3986063,-2.284547329,4.958002236
21.80200785,-0.6149554253,-4.080958843,-0.7884350419,4.20166932
21.80433915,-1.02711916,-3.8668015,0.6083751321,4.046881258
21.80665754,-1.47457695,-3.697509289,1.786242127,4.363096728
21.80896301,-1.721037745,-3.580859184,2.933002472,4.938322278
21.81129431,-1.894517303,-3.569493294,3.789632797,5.540017592
21.81361269,-1.847259045,-3.682554007,4.191627026,5.877355452
21.81591816,-1.610369682,-3.792623997,4.094119549,5.808537008
21.81824946,-1.335793257,-3.859024763,3.443870068,5.341971246
21.82056785,-0.9625129104,-3.958326817,2.43708992,4.747019019
21.82287332,-0.5108676553,-4.113262177,1.240080357,4.326396975
21.82520462,-0.06699903309,-4.277768612,-0.0,4.278293254
21.827523,0.3864408433,-4.49970293,-1.115055323,4.651882561
21.82982847,0.8027920127,-4.794020176,-2.111067772,5.299406722
21.83215978,1.248455167,-5.198407173,-2.872583628,6.069086763
21.83447816,1.647458434,-5.684748173,-3.49531579,6.873697226
21.83678363,1.98963201,-6.225526333,-3.946362734,7.634762111
21.83911493,2.283949137,-6.799803734,-4.301696777,8.36411081
21.84143332,2.501097918,-7.390830994,-4.495515347,9.004972615
21.84373879,2.722434044,-8.01416111,-4.465605259,9.569746901
21.84607009,2.924627542,-8.700901031,-4.258625984,10.11904246
21.84838847,3.031706333,-9.408578873,-3.932604074,10.63851374
21.85069394,3.14895463,-10.17368412,-3.601796389,11.24245085
21.85302524,3.184846878,-10.91665554,-3.252444267,11.82772216
21.85534363,3.196810961,-11.63151073,-3.018545866,12.43476021
21.8576491,3.242274761,-12.38883877,-2.697907448,13.08718366
21.8599804,3.320041418,-13.07318687,-2.39162612,13.69856801
21.86229879,3.403790236,-13.65643692,-2.028515339,14.21966708
21.86460426,3.634099483,-14.37548065,-1.697109461,14.92452021
21.86693556,3.860221148,-15.09930897,-1.375274777,15.64550476
21.86925394,3.99302268,-15.74896049,-0.9541380405,16.27526854
21.87155941,4.138386726,-16.28794289,-0.5389832854,16.8140962
21.87389071,4.284348965,-16.73480415,-0.09092725813,17.27476726
21.8762091,4.405784607,-17.07219124,0.1896311939,17.63254411
21.87851457,4.434498787,-17.3060894,0.3445664644,17.86852641
21.88084587,4.43808794,-17.35394669,0.6167500615,17.92307091
21.88316426,4.413561344,-17.19542122,0.8105686903,17.77129866
21.88546972,4.368097782,-16.92323875,0.793818891,17.49589771
21.88780103,4.284946918,-16.58943939,0.6047859192,17.14456285
21.89011941,4.253242016,-16.22991753,0.3684946895,16.78201653
21.8924378,4.200600147,-15.76152229,0.08315058798,16.31188342
21.89475618,4.137788773,-15.12383556,-0.09451649338,15.6799436
21.89707457,4.065405846,-14.54477215,-0.1704886109,15.10321118
21.89939295,3.917648792,-13.97229004,-0.262014091,14.51349415
21.90171134,3.75673151,-13.45783234,-0.3098705411,13.97577556
21.90402972,3.58504653,-12.90449238,-0.3296113312,13.39728054
21.90633519,3.427718401,-12.33200932,-0.3403790295,12.80404487
21.9086665,3.265006542,-11.81216908,-0.2356930375,12.25737154
21.91098488,3.068794966,-11.28814125,-0.01674975827,11.69785946
21.91329035,2.76311183,-10.80060291,0.1441675574,11.14937642
21.91562165,2.527418852,-10.40638542,0.3535395563,10.71474189
21.91794004,2.303689957,-10.12343407,0.5784648657,10.39834248
21.9202455,2.081755638,-9.931410789,0.8614161611,10.18374512
21.92257681,1.881356835,-9.772287369,0.9966106415,10.00151672
21.92489519,1.721037745,-9.732806206,1.124028444,9.947508608
21.92720061,1.540977836,-9.770493507,1.137188911,9.956422786
21.92953196,1.383051515,-9.937392235,1.12283206,10.09580843
21.93185035,1.295115232,-10.00678444,1.031306505,10.14281279
21.93416873,1.099501967,-9.958928108,0.9050851464,10.06023522
21.93648707,0.9894321561,-9.894919395,0.7794619799,9.974766504
21.9388055,0.8763712645,-9.912267685,0.6119644046,9.96973308
21.94112389,0.7974081635,-10.06780148,0.2979064286,10.1037238
21.94344228,0.6520441771,-10.12463093,0.04905286431,10.14572418
21.94576066,0.3912265003,-10.13599682,-0.08255238086,10.14388015
21.94806613,0.04007977992,-9.985847473,-0.1537388563,9.987111283
21.95039743,-0.3008974493,-9.840482712,-0.3290131092,9.8505781
21.95271577,-0.6478567123,-9.657432556,-0.5575276613,9.695182257
21.95502123,-0.9260223508,-9.524032593,-0.7423732281,9.59769932
21.95735254,-1.241874933,-9.450452805,-0.8793623447,9.572177897
21.95967097,-1.588235974,-9.314660072,-1.011565804,9.503086401
21.96197644,-1.867598057,-9.163313866,-1.130010486,9.419722246
21.96430775,-2.118246317,-9.049057007,-1.152144074,9.364819066
21.96662613,-2.300100803,-8.894720078,-1.021137118,9.243875268
21.96893155,-2.401197433,-8.75713253,-0.7369893789,9.11022901
21.9712629,-2.394617319,-8.737391472,-0.4079762697,9.068773152
21.97358129,-2.3216362,-8.668000221,-0.1932204217,8.975608983
21.97589962,-2.340778828,-8.586046219,0.1447657645,8.900583819
21.97821801,-2.363510609,-8.571688652,0.5401797295,8.907964015
21.98053644,-2.349751949,-8.489136696,0.9212366939,8.856379233
21.98285478,-2.263610125,-8.299505234,0.8775677085,8.647302643
21.98517316,-2.182254314,-8.144570351,0.3577269912,8.439444809
21.9874916,-2.09072876,-8.071588516,-0.06640082598,8.338231047
21.98980993,-2.230708838,-7.940581799,-0.2650051117,8.252219636
21.99212832,-2.40598321,-7.776673794,-0.3631108403,8.148451386
21.9944467,-2.523829699,-7.645068169,-0.3074777126,8.056756555
21.99676509,-2.565704107,-7.511668682,-0.299701035,7.943413918
21.99908347,-2.57228446,-7.275975227,-0.2679961324,7.7219353
22.00140186,-2.580060959,-7.165905476,-0.2117647976,7.619170569
22.00372024,-2.603390932,-7.050451756,-0.06400800496,7.516023638
22.00603863,-2.631506681,-6.917052269,0.05862415582,7.400937528
22.00835702,-2.605783939,-6.820142746,0.1106680483,7.301828842
22.0106754,-2.525624275,-6.780063152,0.09690931439,7.235843126
22.01299379,-2.383251429,-6.781259537,0.1405783296,7.189237132
22.01531217,-2.20618248,-6.810571671,0.195015043,7.161644956
22.01763056,-2.011765718,-6.762714863,0.1776670814,7.05783814
22.01994894,-1.836491346,-6.725028038,0.1549352705,6.972998459
22.02226733,-1.740778446,-6.684948444,0.002991028363,6.907883485
22.02458571,-1.619940877,-6.696912289,-0.1872383654,6.89259754
22.0269041,-1.465603828,-6.698108673,-0.3433700502,6.865169872
22.02922248,-1.372882009,-6.739385128,-0.4803591371,6.894553054
22.03154087,-1.228714466,-6.918846607,-0.6257231236,7.054906593
22.03385926,-1.148554921,-7.205387115,-0.813559711,7.341570765
22.03617764,-1.092323542,-7.463811874,-0.9828519225,7.607079355
22.03849603,-1.04685986,-7.712665558,-1.147358418,7.867500042
22.04081441,-1.058824062,-7.92443037,-1.29451704,8.098980149
22.0431328,-1.112662554,-8.017151833,-1.451845169,8.223174318
22.04545118,-1.162911773,-8.066802979,-1.556531072,8.297497398
22.04776957,-1.171286702,-8.109873772,-1.589432478,8.346751508
22.05008795,-1.200000525,-8.105687141,-1.523031592,8.334374033
22.05240634,-1.26640141,-8.160123825,-1.437488198,8.381990557
22.05472472,-1.310668588,-8.141578674,-1.295115232,8.347483389
22.05704311,-1.368694544,-8.142775536,-1.200000525,8.343747326
22.0593615,-1.441077471,-8.134998322,-1.119242787,8.337122188
22.06167988,-1.555932879,-8.156534195,-1.072582722,8.372598814
22.06399827,-1.668395638,-8.231309891,-1.034895778,8.462211046
22.06631665,-1.811366796,-8.277371407,-0.9260223508,8.52369899
22.06863504,-1.932204247,-8.256434441,-0.8129615188,8.51839359
22.07095342,-2.028515339,-8.258229256,-0.6610172391,8.529370945
22.07327181,-2.09671092,-8.254639626,-0.4803591371,8.530299932
22.07559019,-2.155933142,-8.227122307,-0.337986201,8.511628742
22.07790858,-2.220539331,-8.156534195,-0.2297109663,8.456513
22.08022696,-2.266003132,-8.10449028,-0.09212367237,8.415819607
22.08254535,-2.258824587,-8.041678429,0.008374879137,8.35290073
22.08486373,-2.215753794,-8.059624672,0.06580262631,8.358914087
22.08718212,-2.17806673,-8.063214302,0.1375873089,8.353342435
22.0895005,-2.120639086,-8.071588516,0.1525424421,8.346910836
22.09181889,-2.078764677,-8.056035995,0.1956132501,8.322213833
22.09413728,-2.003390789,-8.030312538,0.2775674164,8.281095204
22.09645566,-1.89391911,-8.047062874,0.3068794906,8.272625068
22.09877405,-1.757528186,-8.149355888,0.285344094,8.341602242
22.10109243,-1.615155339,-8.275577545,0.2015953064,8.434130136
22.10341082,-1.440479279,-8.343772888,0.09391828626,8.46772385
22.1057292,-1.301097274,-8.359924316,0.004785645287,8.460568042
22.10804759,-1.161117196,-8.409575462,-0.07537391037,8.489689855
22.11036597,-0.9948160052,-8.531010628,-0.1734796464,8.590570202
22.11268436,-0.8584251404,-8.614759445,-0.2524427772,8.661102781
22.11500274,-0.6891329288,-8.711668968,-0.2835494876,8.743482185
22.11732113,-0.5252245665,-8.779266357,-0.2817548811,8.799475236
22.11963952,-0.3565305769,-8.82831955,-0.2273181528,8.838439549
22.1219579,-0.1752742529,-8.843274117,-0.1926222295,8.847108086
22.12427629,0.0382851623,-8.81874752,-0.162113741,8.820320541
22.12659467,0.2709871531,-8.808578491,-0.1124626622,8.81346339
22.12890014,0.536590457,-8.758927345,-0.08195417374,8.775730969
22.13123144,0.8219345808,-8.718847275,-0.02632104978,8.757543437
22.13354983,1.125823021,-8.697312355,0.01914258115,8.769896585
22.1358553,1.410568953,-8.637491226,0.03050848842,8.751964935
22.1381866,1.706082582,-8.611768723,-0.05742774159,8.77932664
22.14050498,1.982453585,-8.552546501,-0.1657029688,8.780867346
22.14281045,2.240280151,-8.527421951,-0.2542374134,8.820454464
22.14514176,2.431107759,-8.504091263,-0.3529413342,8.851803247
22.14746014,2.594418049,-8.534002304,-0.446859628,8.930838923
22.14976561,2.730210543,-8.626724243,-0.4163511395,9.058022358
22.15209691,2.828914642,-8.767900467,-0.342771858,9.219345378
22.1544153,2.828914642,-8.974281311,-0.2793620527,9.413741353
22.15673368,2.776870728,-9.210572243,-0.1447657645,9.621154255
22.15905207,2.69850564,-9.533603668,-0.0466600433,9.908264669
22.16137045,2.578266382,-9.892526627,0.07357929647,10.22325557
22.16367592,2.435893536,-10.29392338,0.1280160099,10.57898029
22.16600722,2.317448616,-10.69113159,0.1345962733,10.94024584
22.16832561,2.202593327,-11.0440731,0.0933200866,11.26195706
22.17063108,2.084148407,-11.41675472,0.04247260094,11.60550589
22.17296238,2.024926186,-11.70090294,0.01555334684,11.87483463
22.17528077,1.954337835,-11.90967655,-0.04067798331,12.06903006
22.17758623,1.907079697,-12.07418346,-0.1172483116,12.22442663
22.17991754,1.901695848,-12.22373486,-0.1830509305,12.37213193
22.18223592,1.928016901,-12.34756279,-0.09571290761,12.49754844
22.18454139,1.957927108,-12.41396427,-0.004187439568,12.56741839
22.18687269,1.97826612,-12.48993587,0.07776673883,12.64587216
22.18919108,1.988435626,-12.53300667,0.1495514214,12.69064608
22.19150946,2.021337032,-12.55573845,0.3122633696,12.72123735
22.19382785,2.038684845,-12.55035496,0.5126622319,12.72519029
22.19614623,2.012962103,-12.52164078,0.6598208547,12.69956171
22.19846462,1.962712765,-12.49831104,0.8883354068,12.68263222
22.200783,1.934597135,-12.41695499,1.116850019,12.61629071
22.20310139,1.847259045,-12.36132145,1.134796143,12.54999587
22.20541978,1.717448473,-12.3116703,1.061815023,12.47614949
22.20773816,1.486541033,-12.18305683,0.8817551732,12.30504653
22.21005655,1.207777262,-12.02213955,0.6490531564,12.10007584
22.21237488,0.8656035662,-11.9348011,0.1878365725,11.96762422
22.21469332,0.5150550604,-11.91506004,-0.2165504545,11.9281529
22.2170117,0.1112662554,-11.86780167,-0.5730810165,11.88215125
22.21931717,-0.3314059377,-11.78764248,-0.9014959335,11.82670876
22.22164842,-0.7238288522,-11.71944714,-1.05822587,11.78936857
22.22396681,-1.191027522,-11.69731331,-1.081555843,11.80743191
22.22627228,-1.627717614,-11.65902805,-0.9188438654,11.80790726
22.22860363,-2.032702923,-11.59621716,-0.5940182209,11.788002
22.23092202,-2.419143677,-11.53699398,-0.1495514214,11.78884438
22.23322743,-2.825923443,-11.45444202,0.2805584669,11.80122021
22.23555873,-3.189632654,-11.34736347,0.7010970116,11.80796135
22.23787712,-3.515654564,-11.20977592,1.093519926,11.79892746
22.24018259,-3.83270359,-11.06800079,1.447059512,11.80187441
22.24251389,-4.053441525,-10.93819046,1.792224169,11.80196874
22.24483228,-4.227519512,-10.75932693,2.176272154,11.76312874
22.24713774,-4.321437836,-10.55832958,2.488535643,11.6767272
22.24946905,-4.272384644,-10.53739262,2.846262455,11.72139598
22.25178743,-4.089931965,-10.69651508,3.206980467,11.89233796
22.2540929,-3.830310822,-10.89153004,3.611367464,12.09705264
22.2564242,-3.548556089,-11.02313614,4.072584152,12.27549275
22.25874259,-3.206980467,-11.12901783,4.596612453,12.46068247
22.26104806,-2.850450039,-11.39821053,5.069194794,12.7961324
22.26337936,-2.500499725,-11.75414276,5.427519798,13.18599037
22.26569774,-2.168495417,-12.1160574,5.66740036,13.55066958
22.26800321,-1.791625977,-12.53420353,5.845067501,13.94564433
22.27033452,-1.360319614,-12.98046494,5.904888153,14.32517516
22.2726529,-0.8865407705,-13.40160179,5.821737289,14.6383575
22.27495837,-0.3128615618,-13.86880016,5.419145107,14.89324122
22.27728967,0.3068794906,-14.2307148,4.826921463,15.03018927
22.27960806,0.9433703423,-14.47119331,4.14197588,15.08182176
22.28191353,1.655235052,-14.63390541,3.324826956,15.09786293
22.28424483,2.297708035,-14.60638809,2.261815548,14.9580027
22.28656321,2.913859844,-14.44068432,0.9110672474,14.75987758
22.28886868,3.4809587,-14.14158154,-0.5222335458,14.57306178
22.29119998,4.04147768,-13.70788288,-1.712662816,14.39349884
22.29351837,4.50269413,-13.21376514,-2.508874655,14.18352198
22.29582384,4.822733879,-12.75015545,-2.928814888,13.94285418
22.29815514,5.048855782,-12.61077309,-2.994617462,13.91007823
22.30047353,5.197210789,-12.66461182,-2.897708178,13.99285908
22.302779,5.344369411,-12.89611721,-2.580060959,14.19608531
22.3051103,5.406582832,-13.2203455,-2.176272154,14.44800448
22.30742868,5.401797295,-13.49851036,-1.816750646,14.65229603
22.30973415,5.304887772,-13.72104359,-1.496710539,14.78678511
22.31206545,5.139782906,-13.92084408,-1.185643673,14.88667253
22.31438384,4.875376225,-14.06680584,-0.9822536707,14.92009189
22.31670222,4.487140656,-14.20977688,-0.8895317912,14.92794216
22.31902061,4.120440483,-14.46760368,-0.6711867452,15.05789088
22.321339,3.683750391,-14.83729458,-0.3625126183,15.29204835
22.32364446,3.249453068,-15.24168205,-0.2201396823,15.58577167
22.32597577,2.784049034,-15.54018688,-0.1220339537,15.78807239
22.32829415,2.35812664,-15.71785355,0.0568295382,15.89386394
22.33059962,1.954337835,-15.83270931,0.2213360965,15.95440723
22.33293092,1.546361685,-15.91466331,0.1752742529,15.99057422
22.33524931,1.256231904,-15.89791393,0.01076770201,15.94747322
22.33755478,0.9762716293,-15.66461372,-0.27577281,15.69742909
22.33988608,0.784845829,-15.40080452,-0.4743770957,15.42808467
22.34220446,0.670588553,-15.02872086,-0.5593222976,15.05406859
22.34450993,0.6580262184,-14.72662735,-0.614357233,14.75411761
22.34684123,0.7447660565,-14.52802277,-0.6813562512,14.56304804
22.34915962,0.9535398483,-14.4753809,-0.7657032609,14.52694709
22.351478,1.163509965,-14.55254936,-1.149751306,14.64419258
22.35379639,1.421336651,-14.89711571,-1.259821177,15.01770301
22.35611478,1.684547186,-15.15015697,-1.116850019,15.28438123
22.35843316,1.845464468,-15.28116322,-1.048056364,15.42783557
22.36075155,1.899901152,-15.34696579,-1.141974568,15.50622743
22.36306993,1.871187329,-15.43908978,-1.380658627,15.61323328
22.36538832,1.79521513,-15.39841175,-1.643869162,15.58961794
22.3677067,1.684547186,-15.3098774,-1.79820621,15.50688849
22.37002509,1.594816327,-15.18724537,-1.704287887,15.36556078
22.37234347,1.49132669,-15.03051567,-1.768295884,15.20747602
22.37466186,1.383051515,-14.87976742,-1.851446509,15.05815939
22.37698025,1.185643673,-14.76012611,-2.054238319,14.94948056
22.37929863,0.9948160052,-14.71705532,-2.16131711,14.90814099
22.38161702,0.7776673436,-14.73201084,-2.388036966,14.94455187
22.3839354,0.6245267391,-14.74995708,-2.350948334,14.94918813
22.38625379,0.4731806815,-14.82533073,-2.207977057,14.99631601
22.38857217,0.2943171859,-14.771492,-2.119442701,14.92567037
22.39089056,0.1603191197,-14.53938866,-2.203191519,14.70624281
22.39320894,-0.002991028363,-14.3569355,-2.611765862,14.59256409
22.39552733,-0.1411765367,-14.36112309,-3.247060299,14.72430602
22.39784571,-0.2859423161,-14.20798302,-4.14197588,14.80217918
22.40015118,-0.4301098585,-13.9052906,-5.051846981,14.80078576
22.40248248,-0.5497509837,-13.66002655,-5.813362598,14.85576441
22.40480087,-0.8207381964,-13.48056412,-6.508477688,14.99198125
22.40710634,-1.036690354,-13.33699512,-6.854838848,15.0312668
22.40943764,-1.174277663,-13.28794193,-7.089933395,15.10680259
22.41175603,-1.166501045,-13.23948765,-7.013961315,15.0279876
22.4140615,-1.236491084,-13.21675587,-6.699903488,14.86944022
22.4163928,-1.382453322,-13.18624783,-6.357729912,14.70404837
22.41871118,-1.46321106,-13.16770267,-5.877370834,14.49389072
22.42102957,-1.615155339,-13.1324091,-5.520840168,14.33696522
22.42334795,-1.734796405,-13.07199001,-5.112265587,14.14290285
22.42566634,-1.843669891,-12.95892906,-4.942375183,13.99142714
22.42798472,-1.986042738,-12.84646702,-4.777270317,13.84912966
22.43030311,-2.19242382,-12.64487171,-4.718646049,13.67351906
22.4326215,-2.446661234,-12.43430328,-4.560121536,13.46821286
22.43493988,-2.654836655,-12.40977669,-4.295116425,13.39771399
22.43725827,-2.891726255,-12.52582836,-4.186841488,13.51991489
22.43957665,-3.18006134,-12.60419369,-4.193421841,13.65881676
22.44188212,-3.468396425,-12.5246315,-4.177269936,13.6508517
22.44421342,-3.829712629,-12.46540928,-3.985246181,13.63581
22.44653181,-4.190430641,-12.4115715,-3.798605919,13.63950963
22.44883728,-4.540380955,-12.38106251,-3.59641242,13.66894108
22.45116858,-4.858027935,-12.30628681,-3.476173162,13.67950695
22.45348696,-5.188836098,-12.12682533,-3.351148129,13.60933894
22.45579243,-5.626124382,-11.85823059,-3.132802963,13.49390095
22.45812373,-6.111268997,-11.42752266,-3.020938635,13.30646283
22.46044212,-6.617351055,-10.92502975,-2.785843849,13.07312266
22.46274759,-7.122236729,-10.49432182,-2.435893536,12.91474444
22.46507889,-7.421339512,-10.11147022,-2.10209465,12.71758279
22.46739728,-7.448856831,-9.70827961,-1.752742529,12.36156412
22.46970275,-7.261618614,-9.328418732,-1.372283816,11.90099424
22.47203405,-7.00139904,-9.03828907,-0.7615157962,11.45819201
22.47435243,-6.920641422,-8.776275635,-0.4145565331,11.18437074
22.4766579,-6.689135551,-8.521439552,-0.3475574851,10.83883124
22.4789892,-6.614958286,-8.316853523,-0.2003988922,10.62863516
22.48130759,-6.282355785,-8.285148621,-0.1692921966,10.39905485
22.48361306,-5.507679462,-8.213961601,0.02333002165,9.889602749
22.48594436,-4.933402061,-8.237890244,0.4390829504,9.612184216
22.48826274,-4.4488554,-8.164310455,0.4761717021,9.309941948
22.49056821,-4.034897327,-8.134998322,0.4935196638,9.094072564
22.49289952,-3.788436413,-8.124231339,0.6628118753,8.98858748
22.4952179,-3.570091486,-8.157132149,0.917647481,8.951337052
22.49752337,-3.287140131,-8.2701931,1.150349498,8.973554932
22.49985467,-2.966501951,-8.483752251,1.064207911,9.050233398
22.50217306,-2.603390932,-8.619544983,0.8913264275,9.048130352
22.50447853,-2.280958176,-8.800203323,0.4618147612,9.102726054
22.50680983,-1.954337835,-9.057432175,-0.1447657645,9.267009825
22.50912821,-1.576271892,-9.17886734,-0.5407779217,9.328916308
22.51143368,-1.145563841,-9.307481766,-0.2739782035,9.381716122
22.51376498,-0.8590233326,-9.372686386,-0.1280160099,9.412840128
22.51608337,-0.5820540786,-9.549157143,-0.1477568001,9.568020754
22.51838884,-0.2327020019,-9.728618622,-0.2578266263,9.73481613
22.52072014,0.1459621787,-9.869196892,-0.6729813814,9.893192416
22.52303853,0.5353940725,-9.860821724,-1.146760225,9.941705633
22.525344,0.8213363886,-9.729815483,-1.465005636,9.873709754
22.5276753,1.00737834,-9.571888924,-1.37886405,9.723020866
22.52999368,1.158724308,-9.399605751,-1.220937729,9.549131858
22.53229915,1.316650629,-9.23270607,-1.206580877,9.403843239
22.53463045,1.606182218,-9.148957253,-1.295115232,9.378729316
22.53694884,1.932204247,-9.13220787,-1.516451359,9.456757296
22.53925431,2.204986095,-9.092725754,-1.776670814,9.523454441
22.54158561,2.486740828,-9.06700325,-1.979462504,9.607949817
22.543904,2.804388046,-8.949754715,-2.087139606,9.608270058
22.54620946,3.116651535,-8.784051895,-2.295315027,9.599039304
22.54854077,3.393620729,-8.542975426,-2.500499725,9.526362877
22.55085915,3.482155085,-8.233104706,-2.706880569,9.340054579
22.55316462,3.557528973,-8.005785942,-2.679363251,9.161201252
22.55549592,3.645465374,-7.782655716,-2.503490686,8.951347016
22.55781431,3.62452817,-7.548159122,-2.429313183,8.71857059
22.56011978,3.623929977,-7.369893551,-2.344966173,8.540905443
22.56245108,3.534797192,-7.227520943,-2.389233351,8.392871152
22.56476946,3.408575773,-6.995417118,-2.277369022,8.108061366
22.56707493,3.272783279,-6.744170666,-2.227717876,7.820337288
22.56940623,2.999403238,-6.342176437,-2.157129526,7.339811274
22.57172462,2.759522676,-5.953342915,-2.062014818,6.878165625
22.57403009,2.477169752,-5.556732178,-2.081157446,6.429996796
22.57636139,2.139183521,-5.045864582,-1.954337835,5.818615977
22.57867978,1.939980984,-4.674977303,-1.544566989,5.291939737
22.58098524,1.768295884,-4.424329281,-1.21854496,4.917968253
22.58331655,1.591227055,-4.245465755,-1.087537885,4.662480206
22.58563493,1.277169108,-4.099503517,-1.039083242,4.417780439
22.5879404,0.955334425,-4.025325775,-1.018146038,4.260578929
22.5902717,0.6424728632,-3.932005882,-1.002592683,4.10836144
22.59259009,0.4725824594,-3.834498405,-0.9762716293,3.984948995
22.59489556,0.2937189937,-3.728017569,-0.9978070259,3.870401103
22.59722686,-0.008374879137,-3.49531579,-0.9499505758,3.622113845
22.59954524,-0.3397808075,-3.220141172,-0.9834501147,3.384070669
22.60185071,-0.7788637877,-2.836691141,-1.013958573,3.111520114
22.60418202,-1.088136077,-2.511865616,-0.9475577474,2.896786958
22.6065004,-1.320239902,-2.263011932,-0.798604548,2.73898259
22.60880587,-1.448255897,-2.12183547,-0.7244270444,2.669161937
22.61113717,-1.532004714,-2.022533417,-0.6783652306,2.626377591
22.61345556,-1.673181176,-1.944168448,-0.7040880919,2.659899668
22.61576103,-1.746162295,-1.917249203,-0.5712863803,2.655427535
22.61809233,-1.838884234,-1.832902193,-0.5629115105,2.656669917
22.62041071,-1.974676847,-1.754537225,-0.5647061467,2.701229823
22.6227291,-2.070389748,-1.765903115,-0.4941178858,2.76569702
22.62504748,-2.169692039,-1.797009826,-0.4803591371,2.857893063
22.62736587,-2.327618122,-1.824527264,-0.2865405083,2.971331574
22.62968426,-2.520838737,-1.79521513,-0.0783649385,3.095733575
22.63200264,-2.78883481,-1.825125456,0.09152546525,3.334225463
22.63432103,-3.017349243,-1.907079697,0.2763710022,3.580185799
22.6366265,-3.237488985,-1.940579176,0.5030909777,3.807923712
22.6389578,-3.430709362,-2.079362869,0.7076773047,4.073613118
22.64127618,-3.846462488,-2.108076811,0.8470591903,4.467300167
22.64358165,-4.186243057,-2.163111687,1.169492126,4.855038098
22.64591295,-4.402793884,-2.196611166,1.534995675,5.154212483
22.64823134,-4.617549419,-2.301297188,1.948355794,5.514872772
22.65053681,-4.768297195,-2.342573404,2.386840582,5.824200912
22.65286811,-4.796412945,-2.462812662,2.768495798,6.060989385
22.6551865,-4.736592293,-2.6620152,3.052045345,6.23190278
22.65749196,-4.609772682,-2.855833769,3.388834953,6.394528367
22.65982327,-4.50269413,-3.030509949,3.681955814,6.558585487
22.66214165,-4.435695171,-3.143570662,4.031308174,6.768225303
22.66444712,-4.427918434,-3.358924866,4.299902439,7.02694805
22.66677842,-4.435695171,-3.665804386,4.555335999,7.33925061
22.66909681,-4.57806778,-3.933202267,4.756333351,7.684496835
22.67140228,-4.761716843,-4.115056515,5.027918816,8.055284292
22.67373358,-4.94955349,-4.320241451,5.275575638,8.425809412
22.67605196,-5.185246468,-4.532006264,5.614160061,8.885080466
22.67835743,-5.488536835,-4.720440865,6.017949104,9.413942318
22.68068873,-5.78584528,-4.966901779,6.412764549,9.963416485
22.68300712,-6.093322754,-5.166104317,6.745965004,10.45587203
22.68531259,-6.521637917,-5.367101192,7.268198967,11.14290144
22.68764389,-7.151548862,-5.510670662,7.735397339,11.88900813
22.68996228,-7.801798344,-5.745765209,8.16610527,12.6715094
22.69226775,-8.441878319,-5.952744484,8.319246292,13.26311937
22.69459905,-9.078967094,-6.217749596,8.377271652,13.82992169
22.69691743,-9.617352486,-6.460621357,8.460422516,14.34614395
22.6992229,-10.0205431,-6.729215622,8.425128937,14.7199329
22.7015542,-10.1210413,-7.024729252,8.278568268,14.84307888
22.70387259,-10.0648098,-7.273582458,8.038089752,14.79244013
22.70617806,-9.887741089,-7.390830994,7.672585964,14.534799
22.70850936,-9.605986595,-7.408777237,7.127022266,14.06980472
22.71082775,-9.185447693,-7.457829952,6.596413612,13.54637772
22.71313321,-8.638688087,-7.6426754,6.178267956,13.08466332
22.71546452,-7.995616913,-7.86281538,5.904289722,12.67337337
22.7177829,-7.417750359,-8.185846329,5.602196217,12.38610927
22.72008837,-7.021738052,-8.465806961,5.344369411,12.22853128
22.72241967,-6.751947403,-8.72841835,5.239085197,12.21564957
22.72473806,-6.610172749,-9.008378983,5.142175674,12.29988806
22.72704353,-6.523432732,-9.390632629,5.0793643,12.51155855
22.72937483,-6.407381058,-9.853643417,5.221737385,12.86139036
22.73169321,-6.522834301,-10.23529911,5.38564539,13.27832412
22.73399868,-6.597609997,-10.58704376,5.707480431,13.71821002
22.73632998,-6.7734828,-10.71565819,6.074180126,14.05706455
22.73864837,-6.920042992,-10.70907784,6.549753666,14.33424627
22.74095384,-7.04387188,-10.45603657,6.90030241,14.37216077
22.74328514,-7.129415035,-10.03968525,7.249056339,14.28889976
22.74560353,-7.133602619,-9.578469276,7.532007694,14.11972025
22.747909,-6.935596466,-9.184251785,7.716853142,13.85650755
22.7502403,-6.739385128,-8.694919586,7.801199913,13.48627668
22.75255868,-6.512066841,-8.280363083,7.862216949,13.1448044
22.75487707,-6.395416737,-7.826922894,7.859824181,12.80386322
22.75719545,-6.296114445,-7.378268719,7.728219032,12.4018255
22.75951384,-6.209374905,-7.00139904,7.530810833,12.01203717
22.76181931,-6.02452898,-6.685546398,7.329813957,11.60679339
22.76415061,-5.850451469,-6.345765591,7.104888439,11.17926487
22.766469,-5.734399319,-5.959324837,6.807580471,10.71167774
22.76877446,-5.751747608,-5.561518192,6.470192432,10.2896295
22.77110577,-5.765506268,-5.125426292,6.23330307,9.917919357
22.77342415,-5.845067501,-4.570291042,5.985047817,9.532742086
22.77572962,-5.906682491,-3.924229145,5.646463394,9.064823291
22.77806092,-5.959922791,-3.263211966,5.340181828,8.642151003
22.78037931,-5.927619934,-2.590828657,5.063810825,8.215305916
22.78268478,-5.874977589,-1.898704767,4.606183529,7.703075241
22.78501608,-5.762515068,-1.171884894,4.238885403,7.249002936
22.78733446,-5.663811207,-0.4683950245,3.910470486,6.89854555
22.78963993,-5.464608669,0.2123630047,3.620938778,6.558829437
22.79197123,-5.352146149,0.9158528447,3.369094372,6.39023096
22.79428962,-5.215754986,1.418345571,3.141776085,6.251924599
22.79659509,-5.142774105,1.808973908,2.896511793,6.173353438
22.79892639,-5.25942421,1.983051777,2.556132793,6.17477548
22.80124478,-5.453841209,1.896311998,2.139183521,6.157636663
22.80355024,-5.545964718,1.581057549,2.155334949,6.156536069
22.80588155,-5.603392601,1.056431174,2.120639086,6.083680268
22.80819993,-5.727818966,0.4295116663,2.40598321,6.22745097
22.81051832,-5.956932068,-0.1124626622,2.998805046,6.670121379
22.8128367,-6.023332596,-0.8608179688,4.25802803,7.426462539
22.81515509,-6.242874146,-1.656431437,5.02552557,8.18371248
22.81746056,-6.537191391,-2.435893536,5.586642742,8.937506684
22.81979186,-6.802794933,-3.16570425,6.658029079,10.03140337
22.82211024,-6.946962357,-4.079164505,7.960920811,11.32590523
22.82441571,-7.222734928,-5.21695137,9.202198029,12.80878331
22.82674702,-7.648059368,-6.420541286,10.24726295,14.30812918
22.8290654,-8.214560509,-7.838288784,11.76969624,16.35370065
22.83137087,-8.815756798,-9.602396965,13.38903904,18.68662521
22.83370222,-9.199206352,-11.59083271,15.38465309,21.34620227
22.83602056,-9.473783493,-13.62114334,16.89512253,23.67980753
22.83832603,-9.433105469,-15.39542103,18.25843239,25.6782558
22.84065733,-8.901898384,-17.24985886,18.76272011,26.99705709
22.84297571,-7.694121361,-19.15275002,18.28654861,27.57580818
22.84528118,-5.915057659,-20.9832592,16.45962906,27.31674326
22.84761248,-4.009772778,-22.43689919,13.71147156,26.59881905
22.84993087,-2.078166485,-23.38206482,10.2723875,25.62345949
22.85223634,-0.3553341627,-23.81516647,6.150152206,24.5990404
22.85456764,1.016351461,-23.79004097,2.14995122,23.90860326
22.85688603,1.889133453,-23.31985092,-1.208973646,23.42746016
22.8591915,2.13559413,-22.54457664,-3.601796389,22.93014687
22.8615228,1.872383714,-21.54976082,-4.923232555,22.18414368
22.86384123,1.112662554,-20.39701843,-5.624927998,21.18764248
22.86614665,0.09272187948,-19.1007061,-5.753541946,19.94865449
22.86847795,-1.159322619,-17.55972862,-5.733202934,18.50831473
22.87079634,-2.581855536,-15.85424423,-5.800800323,17.07841686
22.87310181,-3.757927895,-14.08594894,-5.824130535,15.69893233
22.87543311,-4.590630054,-12.21775246,-5.639284611,14.21790738
22.8777515,-5.186442852,-10.47338486,-5.480760098,12.90851312
22.88005696,-5.594419479,-8.960522652,-5.276174068,11.80790025
22.88238832,-5.876173973,-7.569096088,-4.993222713,10.80522601
22.8847067,-5.907280922,-6.339783669,-4.453640938,9.74288163
22.88701212,-5.853442192,-5.198407173,-3.574877024,8.606158746
22.88934347,-5.717051506,-4.237090588,-2.273181438,7.470272312
22.89166186,-5.572884083,-3.476771355,-0.679561615,6.603542992
22.89396728,-5.462814331,-2.909074068,0.9625129104,6.263504087
22.89629863,-5.286941528,-2.450250387,2.583052158,6.373981184
22.89861702,-5.158925533,-2.113460541,3.960121393,6.838405484
22.90092243,-4.952544689,-1.881356835,4.862215519,7.190851284
22.90325379,-4.602594376,-1.872981906,5.246263504,7.226009754
22.90557212,-4.162314892,-2.021337032,4.965705395,6.787407364
22.90787764,-3.678964853,-2.343171597,4.032504559,5.94022967
22.91020894,-3.098705292,-2.749951363,2.490330219,4.833834046
22.91252733,-2.493919373,-3.229114056,0.6526423693,4.131918862
22.9148328,-1.914856315,-3.85244441,-1.236491084,4.476261034
22.9171641,-1.419542074,-4.531407833,-3.03948307,5.638015075
22.91948248,-0.950548768,-5.181657314,-4.743172646,7.088780024
22.9217879,-0.5126622319,-5.797809124,-6.260820389,8.54840834
22.92411926,-0.1357926875,-6.69451952,-7.47697258,10.03693929
22.92643764,0.2033899277,-7.706683636,-8.477770805,11.45892394
22.92874311,0.5216353536,-8.690134048,-9.307481766,12.74440073
22.93107441,0.8327022791,-9.649057388,-9.822537422,13.79419961
22.9333928,1.137188911,-10.61216831,-10.2281208,14.78261716
22.93569827,1.55892396,-11.55374432,-10.38903809,15.6157409
22.93802957,1.773679733,-12.3361969,-10.26221848,16.14437431
22.94034795,1.858624935,-13.05942822,-10.0839529,16.60389286
22.94265342,1.94715941,-13.71865082,-9.468399048,16.78223437
22.94498472,1.971087694,-14.50409412,-8.675178528,17.01507142
22.94730311,2.173879385,-15.44866085,-7.69352293,17.39474543
22.94960858,2.35274291,-16.41237068,-6.620940208,17.85323948
22.95193988,2.527418852,-17.39043617,-5.624927998,18.45142085
22.95425827,2.684746981,-18.21177292,-4.711467743,19.00195957
22.95656373,2.925823927,-18.83809471,-3.588635683,19.39877739
22.95889504,3.258426189,-19.43809509,-2.593819857,19.8792551
22.96121342,3.543172121,-19.93520355,-2.029113531,20.34904693
22.96351889,3.765704632,-20.29891205,-1.838884234,20.72698379
22.96585019,4.122235298,-20.47717857,-1.624726534,20.95107163
22.96816858,4.472185612,-20.55075645,-1.60678041,21.09302677
22.97047405,4.674977303,-20.41675949,-1.815554142,21.0236942
22.97280535,4.856233597,-20.11586189,-2.188236237,20.80911536
22.97512373,5.011168957,-19.74317932,-2.504687071,20.52263144
22.9774292,5.056034088,-19.15155411,-2.875574589,20.01535497
22.9797605,5.045864582,-18.30210304,-3.229712248,19.25769369
22.98207889,4.939982414,-17.29173279,-3.395415306,18.30126482
22.98438436,4.768895626,-16.16710663,-3.577269793,17.23120894
22.98671566,4.52781868,-15.0592289,-3.850051641,16.18963911
22.98903405,4.252045631,-13.97109318,-3.922434568,15.12140303
22.99133952,3.993621111,-12.92064381,-3.732205153,14.02930509
22.99367082,3.720839262,-11.99522018,-3.612564087,13.06830407
22.9959892,3.360719442,-11.07099247,-3.335594654,12.04107558
22.99829467,3.097508907,-10.25025368,-2.900699139,11.09397663
23.00062597,2.849253654,-9.631709099,-2.497508526,10.3501505
23.00294436,2.685345173,-9.15374279,-2.024926186,9.752046545
23.00524983,2.590828657,-8.81874752,-1.456032634,9.306058886
23.00758113,2.371885538,-8.481958389,-0.8350951076,8.846854976
23.00989952,2.085943222,-8.103293419,-0.2159522474,8.370254401
23.01220498,1.779063582,-7.850253105,0.261415869,8.053563143
23.01453629,1.549352646,-7.716254711,0.5401797295,7.888781562
23.01685467,1.37587297,-7.729415417,0.7818548083,7.889751964
23.01916014,1.146162033,-7.743772507,0.970289588,7.888039169
23.02149144,0.888933599,-7.81196785,1.183848977,7.951008932
23.02380983,0.6107679605,-8.019545555,1.387837172,8.161632216
23.0261153,0.2763710022,-8.190631866,1.453041553,8.323110059
23.0284466,-0.2009970993,-8.111070633,1.257428288,8.210419755
23.03076498,-0.6903293133,-8.214560509,0.6957131624,8.272821509
23.03307045,-1.205384374,-8.32403183,-0.162113741,8.412415721
23.03540176,-1.613958836,-8.440681458,-0.5988038778,8.614437455
23.03772014,-2.07098794,-8.596215248,-0.8356932998,8.881570296
23.04002561,-2.466402054,-8.763712883,-0.8709874153,9.145732429
23.04235691,-2.805584431,-8.977870941,-0.7531409264,9.436137551
23.0446753,-2.941975355,-9.172286987,-0.3714857101,9.639713129
23.04698077,-3.071786165,-9.20399189,-0.1292124242,9.703918425
23.04931207,-3.127419233,-9.204590797,0.261415869,9.724894913
23.05163045,-2.967698336,-9.285946846,0.8165507317,9.782780655
23.05393592,-2.66799736,-9.595816612,1.32263267,10.04725154
23.05626722,-2.286940336,-9.806983948,1.551745534,10.18896189
23.05858561,-1.746760488,-9.952347755,1.853241086,10.27301808
23.06089108,-1.101894855,-9.902696609,2.235494614,10.21151353
23.06322238,-0.4935196638,-9.883553505,2.422134638,10.18797957
23.06554077,-0.1058823988,-9.966106415,1.939382792,10.15360496
23.06784623,0.1322034448,-9.904491425,1.173081279,9.97459512
23.07017754,0.3391826153,-9.775876999,0.5108676553,9.795090694
23.07249592,0.5718846321,-9.617950439,0.09690931439,9.635424957
23.07480139,0.6801598072,-9.442676544,-0.27577281,9.471156652
23.07713269,0.851246655,-9.155537605,-0.4959124923,9.208388508
23.07945108,1.060020447,-8.747561455,-0.4875376225,8.825030747
23.08175655,1.232901812,-8.474181175,-0.3589234054,8.570917073
23.08408785,1.431506157,-8.127820015,-0.08793623,8.253387235
23.08640623,1.610967875,-7.805985451,0.2596212626,7.974711879
23.0887117,1.737787485,-7.606184959,0.4695914388,7.816295229
23.09104301,1.887338877,-7.366902828,0.7549355626,7.642200797
23.09336139,2.021337032,-7.107879639,1.049850941,7.463909388
23.09566686,2.152942181,-6.898507595,1.159920812,7.31915182
23.09799816,2.23130703,-6.79561615,1.174277663,7.248314145
23.10031655,2.362314224,-6.86022234,1.085145116,7.336260557
23.10263493,2.43708992,-6.968497753,1.067198873,7.459107296
23.10495332,2.455035925,-7.074379921,0.9152546525,7.543987257
23.1072717,2.496312141,-6.996613503,0.9104689956,7.484191914
23.10959009,2.57766819,-7.046862602,1.045065284,7.575936066
23.11190847,2.57766819,-6.897909641,1.115653515,7.447832804
23.11422686,2.511865616,-6.693921566,0.9272187948,7.209562365
23.11654524,2.470589399,-6.455237389,0.5485545993,6.933600354
23.11886363,2.470589399,-6.187241077,0.2506481707,6.666977474
23.12118202,2.600399971,-6.304489613,-0.0765703246,6.820156325
23.1235004,2.631506681,-6.333203316,-0.3290131092,6.866042621
23.12581879,2.543570518,-6.345167637,-0.6011967063,6.862385941
23.12813717,2.383251429,-6.354140759,-0.8075776696,6.834264689
23.13045556,2.21754837,-6.372684956,-0.9284151793,6.811063725
23.13277394,2.05124712,-6.405586243,-0.8721838593,6.78231926
23.13509233,1.847857237,-6.140581131,-0.7423732281,6.455418732
23.13741071,1.658226132,-6.034698486,-0.6640082598,6.29350512
23.1397291,1.466800332,-6.02452898,-0.6514459848,6.234647907
23.14204748,1.360319614,-6.099305153,-0.7944171429,6.299451674
23.14436587,1.261017561,-6.125626087,-0.7956135273,6.30447945
23.14668426,1.174875975,-6.146563053,-0.7244270444,6.299632169
23.14900264,1.068993568,-6.110671043,-0.6448656917,6.236898236
23.15132103,0.9720842242,-6.059823513,-0.626919508,6.169233082
23.15363941,0.9044869542,-6.023332596,-0.6753742099,6.128194068
23.1559578,0.8542376757,-6.044270039,-0.8422735929,6.162170649
23.15827618,0.8416753411,-6.07836771,-0.9756734371,6.213445908
23.16059457,0.8003991842,-6.079564095,-1.190429211,6.246507836
23.16291295,0.8045865893,-6.151947021,-1.472184181,6.37660866
23.16523134,0.8003991842,-6.292525291,-1.728814363,6.574595995
23.16754972,0.8446664214,-6.440282345,-1.960918188,6.784975916
23.16986811,0.912861824,-6.650252342,-2.053640127,7.019730101
23.1721865,1.013958573,-6.882954121,-2.022533417,7.245261268
23.17450488,1.101894855,-7.173682213,-1.972284079,7.521023418
23.17682327,1.152742267,-7.518248558,-1.840678811,7.825661288
23.17914165,1.244267821,-7.827520847,-1.541576028,8.074326082
23.18146004,1.268794179,-8.143373489,-1.200598717,8.328613794
23.18377842,1.270588875,-8.49332428,-0.8063812256,8.625613259
23.18608389,1.181456208,-8.8977108,-0.3086741269,8.981112179
23.18841519,1.052842021,-9.274580956,0.2943171859,9.338787439
23.19073358,0.8386843204,-9.638887405,0.8578268886,9.713259431
23.19303905,0.5270192027,-9.94277668,1.453639746,10.06228731
23.19537035,0.2398804724,-10.25085258,1.992024899,10.44536665
23.19768873,-0.1190429255,-10.51765156,2.429911375,10.79535246
23.1999942,-0.4025924206,-10.74018478,2.805584431,11.10787801
23.2023255,-0.6089733839,-10.94178009,3.034099102,11.37097874
23.20464389,-0.7028916478,-11.05364418,3.191427231,11.52659161
23.20694936,-0.6861419082,-11.1445713,3.192623615,11.61314367
23.20928066,-0.5557330847,-11.16132164,3.041277647,11.58159358
23.21159905,-0.3260220885,-11.08893871,2.770888567,11.43453872
23.21391743,0.02213360928,-10.98544884,2.39162612,11.24279554
23.21623582,0.4498506486,-10.79880905,1.969292998,10.98611658
23.2185542,0.9517452121,-10.51825047,1.542772412,10.67331057
23.22085967,1.529013634,-10.21256733,1.121037364,10.38706594
23.22319097,2.066800594,-9.86022377,0.6891329288,10.09804841
23.22550936,2.580659151,-9.507282257,0.2949153781,9.855718779
23.22781483,3.093919754,-9.145368576,-0.01316052489,9.654547065
23.23014613,3.56530571,-8.86122036,-0.2404786795,9.554604181
23.23246452,3.995415688,-8.682954788,-0.3714857101,9.565304595
23.23476998,4.399204254,-8.611170769,-0.3726821244,9.676990857
23.23710129,4.731806755,-8.598608017,-0.2554338276,9.817907182
23.23941967,5.073382378,-8.590232849,-0.07178468257,9.976796189
23.24172514,5.351547718,-8.674580574,0.09870393574,10.19299532
23.24405644,5.502295494,-8.838488579,0.2919243574,10.41534233
23.24637483,5.562714577,-9.004789352,0.4366901219,10.59342829
23.2486803,5.600401402,-9.219545364,0.5868397355,10.80318904
23.2510116,5.602196217,-9.516854286,0.7316055298,11.06753652
23.25332998,5.548357487,-9.897911072,0.9008977413,11.38264166
23.25564837,5.469992638,-10.22572803,1.089332461,11.64787442
23.25796676,5.288137913,-10.41715336,1.203589797,11.74436525
23.26028514,5.050052166,-10.66780186,1.308275819,11.87504143
23.26260353,4.804189682,-10.9806633,1.460818172,12.07431964
23.26492191,4.497908592,-11.33779144,1.575075507,12.2986812
23.2672403,4.185645103,-11.81157112,1.609173179,12.63417095
23.26954577,3.844069481,-12.28475189,1.6713866,12.9801977
23.27187707,3.529413462,-12.65683556,1.743171334,13.25484409
23.27419545,3.200400352,-13.07318687,1.862214208,13.58744344
23.27650092,2.860619545,-13.45543957,2.005185366,13.90153828
23.27883222,2.602194548,-13.82572937,2.177468538,14.23599587
23.28115061,2.412563324,-14.10389519,2.321038008,14.49577658
23.28345608,2.229512453,-14.25224972,2.440080881,14.63049358
23.28578738,2.154736757,-14.32104397,2.506481647,14.69753861
23.28810577,2.160120726,-14.37368584,2.578266382,14.76199254
23.29041123,2.207977057,-14.38206005,2.598007202,14.78067845
23.29274254,2.223530531,-14.26660633,2.639881611,14.67818514
23.29506092,2.255833626,-14.0494585,2.676970243,14.47902757
23.29737931,2.281556368,-13.75095367,2.670390129,14.19243495
23.29969769,2.285145521,-13.52004623,2.649452925,13.96542663
23.30201608,2.280958176,-13.3525486,2.643470764,13.80149492
23.30433446,2.267199516,-13.21795273,2.728415966,13.68571232
23.30665285,2.201396942,-13.08993626,2.821736097,13.57036382
23.30897123,2.091326952,-12.93380451,2.958127022,13.43158453
23.31128962,1.977667928,-12.81117249,3.056232691,13.31832832
23.31360801,1.828116536,-12.63171101,3.182454109,13.15409241
23.31592639,1.631905079,-12.46840096,3.351746321,13.01377501
23.31824478,1.421336651,-12.29073334,3.482155085,12.85331583
23.32056316,1.205384374,-12.07956696,3.593421459,12.66023567
23.32288155,1.019342422,-11.91087246,3.60478735,12.4860896
23.32519993,0.7884350419,-11.64706421,3.5766716,12.20935356
23.32751832,0.5928218365,-11.46939754,3.535395384,12.01655268
23.3298367,0.3822534084,-11.2438736,3.536591768,11.79314599
23.33215509,0.2015953064,-11.07518005,3.486342669,11.61270163
23.33447347,0.07776673883,-11.05424213,3.413361549,11.56950102
23.33679186,-0.03110669367,-11.0811615,3.384049416,11.58641007
23.33911024,-0.07896314561,-11.22114182,3.28414917,11.6921296
23.34142863,-0.08853443712,-11.32283688,3.041875839,11.72465274
23.34374702,-0.0484546572,-11.52383423,2.84805727,11.87065851
23.3460654,0.03349951655,-11.84447193,2.560320139,12.11808057
23.34838379,0.1220339537,-12.24646664,2.353939295,12.47124162
23.35070217,0.2626122832,-12.81954765,2.149353027,13.00113402
23.35300764,0.3571287692,-13.44706535,1.916052699,13.5875813
23.35533894,0.456430912,-14.08893967,1.716850281,14.20049735
23.35765733,0.5509474277,-14.73021603,1.493121386,14.81594475
23.3599628,0.6789634228,-15.36670685,1.298704505,15.43642783
23.3622941,0.8201399446,-15.93500233,1.080359459,15.99262659
23.36461248,0.9966106415,-16.41655731,0.8321040869,16.46781661
23.36691795,1.131805062,-16.7784729,0.5641079545,16.82606173
23.36924926,1.267597795,-16.93939018,0.2518445849,16.98861883
23.37156764,1.369292736,-16.91306877,-0.06699903309,16.96853991
23.37387311,1.521237016,-16.80000687,-0.3577269912,16.87253275
23.37620446,1.698305845,-16.57089424,-0.6059823632,16.66871301
23.3785228,1.86580348,-16.16770363,-0.7124629617,16.29059442
23.38082827,2.02612257,-15.71785355,-0.77108711,15.86665271
23.38315957,2.200798512,-15.26740456,-0.8590233326,15.4491125
23.38547801,2.365903378,-14.79781342,-0.9367900491,15.01500437
23.38779634,2.527418852,-14.39043522,-0.9912267923,14.64428224
23.39011478,2.64227438,-14.01296806,-1.135992527,14.30508185
23.39243311,2.745764017,-13.71326637,-1.290329576,14.04485119
23.39473858,2.81395936,-13.53440285,-1.500898004,13.90507542
23.39706993,2.840878725,-13.38544941,-1.73060894,13.79260146
23.39938832,2.839682341,-13.28495121,-1.941177368,13.72304245
23.40169373,2.740380049,-13.24487114,-2.180459738,13.70002551
23.40402504,2.681157827,-13.28495121,-2.367099762,13.7579685
23.40634342,2.599801779,-13.25324631,-2.492124796,13.73383388
23.40866181,2.475374937,-13.22273827,-2.502892494,13.6833022
23.41098024,2.236690998,-13.18564892,-2.581855536,13.62094351
23.41329863,1.957328916,-13.2400856,-2.669791937,13.64766618
23.41561702,1.703689694,-13.38544941,-2.756531715,13.77211972
23.4179354,1.420140266,-13.46441269,-2.791825771,13.82394656
23.42025379,1.081555843,-13.66899967,-2.745764017,13.98393847
23.42257217,0.7740781307,-13.93041515,-2.770290375,14.22428107
23.42489056,0.5126622319,-14.18644714,-2.699103832,14.45002653
23.42720894,0.2709871531,-14.25464249,-2.638685226,14.49934227
23.42951441,0.0239282269,-14.32283783,-2.550150633,14.54811068
23.43184571,-0.1435693651,-14.50409412,-2.469393015,14.71350605
23.4341641,-0.2919243574,-14.689538,-2.39760828,14.88678179
23.43646957,-0.409172684,-14.77867126,-2.379063845,14.97452809
23.43880087,-0.5078766346,-14.99761391,-2.444866419,15.20406963
23.44111926,-0.6023930907,-15.17827225,-2.572882652,15.40657493
23.44343764,-0.6329016089,-15.43789387,-2.724228621,15.68918586
23.44575603,-0.6059823632,-15.69213104,-2.874378204,15.96471864
23.44807441,-0.5599204898,-15.95534134,-3.034099102,16.25091338
23.45037988,-0.5054838061,-16.19402504,-3.06999135,16.49020339
23.45271118,-0.4594219327,-16.30888176,-3.107080221,16.60857129
23.45502957,-0.3894318938,-16.43211174,-3.048455954,16.71702836
23.45734795,-0.3026920557,-16.51107407,-2.88993144,16.76481115
23.45966634,-0.261415869,-16.50987816,-2.670390129,16.72648793
23.46198472,-0.2147558331,-16.36929893,-2.432304144,16.55041302
23.46430311,-0.1782652885,-16.18505287,-2.160718918,16.32961791
23.4666215,-0.1878365725,-16.0887413,-1.904088616,16.20211198
23.46893988,-0.199800685,-15.90569019,-1.562513232,15.98350238
23.47125827,-0.2183450609,-15.6801672,-1.163509965,15.72479168
23.47357665,-0.2171486616,-15.49651718,-0.7214360237,15.51482092
23.47589504,-0.2578266263,-15.33380604,-0.3601198196,15.34020106
23.4782005,-0.2410768867,-15.16451359,0.02512463741,15.16645053
23.48053181,-0.1968096644,-15.14836216,0.3643072546,15.15402026
23.48285019,-0.1250249892,-15.20878029,0.5653043389,15.21979626
23.48515566,-0.0568295382,-15.31765461,0.6765705943,15.33269448
23.48748696,0.03409772366,-15.50249958,0.6783652306,15.51737205
23.48980535,0.1100698411,-15.67837238,0.680758059,15.69353075
23.49212373,0.1531406492,-15.85962868,0.6915257573,15.87543643
23.49444212,0.2356930375,-15.91586018,0.6687939167,15.93164906
23.4967605,0.3008974493,-15.85185146,0.6263213158,15.86707322
23.49907889,0.3469592929,-15.78844166,0.6263213158,15.80466859
23.50139728,0.3726821244,-15.66760445,0.5826523304,15.68286341
23.50371566,0.342771858,-15.60120392,0.5772684813,15.61564264
23.50603405,0.3308077157,-15.51984787,0.5910272002,15.5346202
23.50835243,0.3367897868,-15.45225048,0.7908278704,15.47613909
23.51067082,0.3511467278,-15.30269909,0.9086744189,15.33367512
23.5129892,0.3882354796,-15.06640816,0.8931210637,15.09784908
23.51530759,0.485144794,-15.10229969,0.822532773,15.13246119
23.51762597,0.5443671346,-15.1974144,0.8715856671,15.23211743
23.51994436,0.6293123364,-15.32543087,0.8159525394,15.36003398
23.52226275,0.6771687865,-15.49711609,0.7507480979,15.53006076
23.52458113,0.7842476368,-15.60479259,0.8907282352,15.64985601
23.52689952,0.8464609981,-15.66999722,1.088136077,15.73052285
23.5292179,0.8327022791,-15.58445358,0.7100701332,15.62282901
23.53153629,0.7920243144,-15.37029648,0.3505485058,15.39468092
23.53385467,0.7214360237,-15.10828209,-0.06221338734,15.12562488
23.53617306,0.5772684813,-14.78584957,-0.4618147612,14.80431894
23.53849144,0.3008974493,-14.35095406,-0.6723831892,14.36984762
23.54079691,-0.05742774159,-14.0045929,-1.150349498,14.05187618
23.54312821,-0.4953143001,-13.7611227,-1.523629785,13.85407096
23.5454466,-0.9906286001,-13.55833149,-2.230110645,13.7761784
23.54775207,-1.409372568,-13.34836102,-3.003590584,13.75451305
23.55008337,-1.750947952,-13.07438278,-3.667000771,13.69131836
23.55240176,-2.151745796,-12.81117249,-4.468596458,13.73770376
23.55470722,-2.503490686,-12.498909,-5.042275429,13.70819949
23.55703853,-2.772683144,-12.20877934,-5.800201893,13.7979856
23.55935691,-2.951546669,-11.91206932,-6.428916454,13.85424087
23.56166238,-2.78883481,-11.70269775,-7.22094059,14.03113386
23.56399368,-2.516052961,-11.58185959,-7.66779995,14.11613085
23.56631207,-2.307279348,-11.47179031,-7.948358536,14.14573838
23.56861754,-1.939382792,-11.42512989,-8.174480438,14.18157005
23.57094884,-1.512862086,-11.18405342,-7.923832417,13.78981228
23.57326722,-1.179661512,-10.78205872,-7.427919865,13.14604066
23.57557269,-0.9373882413,-10.33340454,-6.937989235,12.48173228
23.57790405,-0.8937192559,-9.875777245,-6.749554634,11.99525731
23.58022238,-0.902692318,-9.578469276,-6.599404812,11.66679352
23.5825279,-0.8721838593,-9.614959717,-6.083751678,11.41140612
23.5848592,-0.8883354068,-9.522835732,-5.578866005,11.07236587
23.58717759,-0.7507480979,-9.408578873,-5.273182869,10.81163432
23.58948306,-0.5491527915,-9.163313866,-5.001597404,10.4538924
23.59181436,-0.5946164131,-8.938388824,-4.812564373,10.16902843
23.59413275,-0.8967102766,-8.700901031,-4.841278553,9.997386964
23.59643821,-1.24366951,-8.362317085,-4.817948341,9.730759842
23.59876952,-1.399801254,-7.870592117,-4.226323128,9.042536757
23.6010879,-1.549352646,-7.537391186,-3.924827337,8.638114906
23.60339337,-1.563709617,-7.408178806,-3.763910055,8.455372251
23.60572467,-1.427318692,-7.166503906,-2.428714991,7.700303461
23.60804306,-1.296311617,-7.133602619,-1.640878081,7.433787125
23.61034853,-1.185643673,-7.163512707,-1.061815023,7.338195716
23.61267983,-1.091127157,-7.198806763,-0.793818891,7.324174063
23.61499821,-1.063609719,-7.183851719,-0.7507480979,7.300863912
23.61730368,-0.9690931439,-7.19581604,-0.5832505226,7.284167157
23.61963498,-0.7070791125,-7.241877556,-0.409172684,7.287809938
23.62195337,-0.5479564071,-7.123433113,-0.4277170599,7.157268852
23.62425884,-0.4486542344,-6.963113785,-0.8237292171,7.026006976
23.62659014,-0.3619144261,-6.813562393,-1.410568953,6.967447116
23.62890853,-0.2733799815,-6.697510719,-2.087737799,7.02068626
23.63122691,-0.1381855011,-6.556334019,-2.793620348,7.128037994
23.6335453,0.0185443759,-6.198009014,-3.28115797,7.012963515
23.63586368,0.1058823988,-5.836094379,-3.450450182,6.780620558
23.63816915,0.1597209126,-5.368896008,-3.391227961,6.352242296
23.64050045,0.1722832322,-4.945366383,-3.355933666,5.979015048
23.64281884,0.1579262912,-4.619344234,-3.210569859,5.627702967
23.64512431,0.1513460279,-4.36989212,-3.212364435,5.425693322
23.64745561,0.1489532143,-4.138985157,-3.047259569,5.141903935
23.649774,0.1848455518,-3.984049797,-2.6620152,4.795116848
23.65207946,0.2841476798,-3.922434568,-2.145763636,4.480015003
23.65441077,0.3690928817,-3.823730469,-1.783849239,4.235476639
23.65672915,0.3792623878,-3.65563488,-1.837089539,4.108820306
23.65903462,0.3834498227,-3.555136204,-2.09072876,4.142121913
23.66136592,0.327816695,-3.403192043,-2.163709879,4.046087037
23.66368431,0.3152543902,-3.273979664,-2.221735716,3.969186033
23.66598978,0.3451646566,-3.133999348,-2.251646042,3.874403238
23.66832108,0.2350948304,-2.906681299,-2.321038008,3.727101178
23.67063946,0.1106680483,-2.692523718,-2.347957134,3.574189991
23.67294493,0.001794616925,-2.513062,-2.435893536,3.499865877
23.67527623,-0.2129612118,-2.283350945,-2.592025042,3.460872409
23.67759462,-0.3768695593,-2.066202402,-2.44247365,3.221319693
23.67990009,-0.3218346536,-2.016551256,-2.351546526,3.114454619
23.68223139,-0.3230310678,-1.963909149,-2.419143677,3.132657713
23.68454978,-0.4073780477,-1.79820621,-2.478366137,3.088980601
23.68686816,-0.5066801906,-1.674975872,-2.470589399,3.027553628
23.68918655,-0.6873382926,-1.506281853,-2.477767944,2.980042438
23.69150493,-0.8255237937,-1.341775298,-2.461018085,2.922064425
23.69382332,-0.8703892231,-1.390828133,-2.647060156,3.114306947
23.69614176,-1.071984529,-1.444068432,-2.910868645,3.421642988
23.69846014,-1.408176184,-1.436890006,-2.603989124,3.290649239
23.70077847,-1.740180254,-1.262213945,-2.297708035,3.146565361
23.70309691,-2.106282234,-1.015753269,-2.011765718,3.084701097
23.7054153,-2.27078867,-1.013958573,-1.741376638,3.035948907
23.70773368,-2.355733871,-1.125823021,-1.441077471,2.982224644
23.71005207,-2.359323025,-1.25503552,-1.220937729,2.938061985
23.71237045,-2.351546526,-1.403390527,-1.080957651,2.94410351
23.71468884,-2.350350142,-1.490130305,-0.9756734371,2.948995214
23.71700722,-2.285145521,-1.631905079,-0.8973084688,2.947908874
23.71932561,-2.268395901,-1.7138592,-0.8871390224,2.978245955
23.721644,-2.222932339,-1.818545222,-0.8668000102,2.999979528
23.72396238,-2.130808592,-1.935793519,-0.7316055298,2.970334738
23.72628077,-2.005185366,-2.05722928,-0.5060819983,2.917032679
23.72859915,-1.951346874,-2.175673962,-0.27577281,2.935534441
23.73091754,-1.884347796,-2.269592285,0.002991028363,2.949885541
23.73323592,-1.783849239,-2.386840582,0.352343142,3.000545244
23.73554139,-1.622931957,-2.47358036,0.7310073376,3.047438213
23.73787269,-1.470987678,-2.574677229,1.225125194,3.208379547
23.74019108,-1.345962763,-2.603989124,1.831705689,3.456518603
23.74249655,-1.197009563,-2.6620152,2.439482689,3.803975895
23.74482785,-1.015154958,-2.690130949,3.108874798,4.234671961
23.74714623,-0.9188438654,-2.734996319,3.677768469,4.674447542
23.7494517,-0.7752745152,-2.773281336,4.342374802,5.210408704
23.751783,-0.560518682,-2.815753937,5.060221672,5.817945926
23.75410139,-0.4731806815,-2.860619545,5.686542988,6.383088225
23.75640686,-0.4205385745,-2.906083107,6.354738712,7.000348264
23.75873816,-0.366101861,-2.956332445,7.013961315,7.620340244
23.76105655,-0.2985046208,-3.020340443,7.725826263,8.300599548
23.76336202,-0.3547359705,-3.09272337,8.37428093,8.934167926
23.76569332,-0.5712863803,-3.230908871,9.046664238,9.623267329
23.7680117,-0.7842476368,-3.503690481,9.73340416,10.37449025
23.77031717,-1.192223907,-3.747160196,10.28495026,11.01103125
23.77264847,-1.663011789,-4.021736622,10.95972633,11.79218279
23.77496686,-2.375474691,-4.329812527,11.63330555,12.63819428
23.77727233,-3.241676569,-4.670191765,12.49651623,13.72887745
23.77960363,-4.000799656,-5.161916733,13.58106327,15.06973994
23.78192202,-4.926821709,-5.767899036,14.47837162,16.34519734
23.78422748,-5.817550182,-6.513263226,15.01974773,17.37409882
23.78655879,-6.605386734,-7.314260483,15.28116322,18.18360497
23.78887717,-7.190432072,-8.264211655,15.13520145,18.68351762
23.79118264,-7.604390144,-9.239884377,14.64287853,18.91074045
23.79351394,-7.901100159,-10.01755238,13.74856091,18.75637668
23.79583233,-7.825128078,-10.74676514,13.11984634,18.67768611
23.7981378,-7.388438225,-11.50110245,12.25125217,18.3564037
23.8004691,-6.547360897,-12.386446,11.35932732,18.03680394
23.80278748,-5.463412285,-13.08754349,10.50568771,17.6494233
23.80509295,-4.143770695,-13.73001671,9.830313683,17.38733049
23.80742426,-2.641077995,-14.32044506,9.375677109,17.31917322
23.80974269,-1.526022673,-14.65005684,8.806185722,17.16105526
23.81204811,-0.9218349457,-14.75713539,8.130212784,16.87374246
23.81437941,-0.7573283911,-14.71585941,7.65404129,16.60465033
23.81669785,-0.8835497499,-14.60399437,7.618747234,16.49553337
23.81900332,-1.306481123,-14.35394478,7.795217991,16.38621516
23.82133462,-1.827518344,-14.0488596,8.09312439,16.31591069
23.823653,-2.268395901,-13.68395424,8.363512993,16.19705446
23.82597139,-2.772683144,-13.27298737,8.617751122,16.06628768
23.82828978,-3.10408926,-12.87637711,8.831310272,15.91943776
23.83060816,-3.287738323,-12.41037464,8.855237961,15.59621305
23.83292655,-3.345165968,-11.802598,8.697312355,15.03777567
23.83524493,-3.262613773,-11.20499039,8.350951195,14.3504301
23.83756332,-3.146561861,-10.58345413,7.908876896,13.58163049
23.83986879,-3.107678413,-9.93559742,7.441080093,12.79622734
23.84220009,-3.095116138,-9.21535778,7.11685276,12.04791086
23.84451847,-3.202194929,-8.474181175,6.781259537,11.31597454
23.84682394,-3.278765202,-7.664809227,6.502495766,10.5727032
23.84915525,-3.34875536,-6.884150982,6.181259155,9.839393373
23.85147363,-3.361317635,-6.087938786,5.717649937,9.002942613
23.8537791,-3.184248686,-5.282754421,5.426921844,8.215741882
23.8561104,-3.128615618,-4.52781868,4.95015192,7.402255178
23.85842879,-3.124428272,-3.822534084,4.530211449,6.700495103
23.86073426,-3.270390272,-3.063411236,4.193421841,6.137159576
23.86306556,-3.527020693,-2.263011932,3.827918053,5.675742647
23.86538394,-3.989433527,-1.448255897,3.465405464,5.479239002
23.86768941,-4.66839695,-0.7064808607,3.086143017,5.640684711
23.87002071,-5.359922886,-0.1076770201,2.913261652,6.101431073
23.8723391,-6.005984783,0.3996013701,2.756531715,6.620423066
23.87464457,-6.586842537,0.6502495408,2.349153519,7.023378199
23.87697587,-6.868597507,0.7866404653,1.91066885,7.172662713
23.87929426,-6.877570629,0.4534398913,1.135992527,6.985489569
23.88159972,-6.772286415,-0.01136590727,0.2195414752,6.775853521
23.88393103,-6.613761902,-0.6586244106,-0.8333004713,6.69850896
23.88624941,-6.212964058,-1.341775298,-1.649851203,6.566832747
23.88855488,-5.817550182,-2.131406784,-2.523231506,6.68980435
23.89088618,-5.639883041,-2.839682341,-3.427120209,7.184513167
23.89320457,-5.435894966,-3.877569199,-4.033700943,7.800976879
23.89551004,-5.263611794,-5.291727066,-4.317250252,8.622449431
23.89784134,-5.298307419,-6.775875568,-4.073182583,9.517109203
23.90015972,-5.976074696,-8.596215248,-3.407379389,11.00993277
23.90246519,-7.098308563,-10.19940662,-1.564906001,12.52448844
23.9047965,-8.146365166,-12.13579845,0.9918249846,14.65007121
23.90711488,-9.555737495,-14.35813236,3.733999729,17.64683649
23.90942035,-11.04048347,-16.58704567,7.004988194,21.12089532
23.91175165,-12.3607235,-18.80100632,10.6295166,24.8847734
23.91407004,-13.27478218,-20.94796562,14.43410397,28.69460686
23.9163755,-13.51107311,-22.95494652,17.74756622,32.00710504
23.91870681,-13.00798225,-24.91945267,19.13600159,34.00548897
23.92102525,-11.49990559,-26.97010231,17.99522209,34.40148638
23.92333066,-9.195617676,-29.07279587,15.23031616,34.08444476
23.92566202,-6.540780544,-30.85006332,12.2859478,33.84453768
23.9279804,-3.729812384,-31.96512032,9.756733894,33.62847415
23.93028582,-0.8853443861,-32.12005615,7.059424877,32.89859148
23.93261712,1.739582062,-31.01157951,4.41236496,31.37217197
23.93493556,3.795614958,-28.9890461,1.959721804,29.30208177
23.93724103,5.060221672,-26.63331223,0.1459621787,27.11015434
23.93957233,5.258227825,-24.04726982,-1.369292736,24.65350093
23.94189071,4.734797955,-19.941185,-2.434098721,20.63962227
23.94419618,3.835096598,-15.6682024,-4.758127689,16.81785692
23.94652748,3.034697294,-12.3738842,-7.832306862,14.95551499
23.94884587,2.470589399,-9.69811058,-10.49491978,14.50174134
23.95115134,2.006979942,-7.699504852,-12.15434265,14.52716038
23.95348264,1.661815286,-5.970092297,-12.89013577,14.3024205
23.95580103,1.377069473,-4.406383038,-12.78963661,13.59732828
23.9581065,1.078564763,-3.287738323,-11.81755257,12.31369457
23.9604378,0.7286145091,-2.390429735,-10.31067276,10.60919442
23.96275618,0.2967100143,-1.599601984,-8.421539307,8.577242426
23.96506165,-0.1974078715,-0.9738788009,-6.464808464,6.540730713
23.96739295,-0.6819544435,-0.5162515044,-4.646263599,4.724335182
23.96971134,-1.154536963,-0.3074777126,-2.839084148,3.080243001
23.97201681,-1.607378602,-0.3104687333,-1.086939692,1.965068625
23.97434811,-2.044068813,-0.7070791125,0.5335994363,2.227758188
23.9766665,-2.362912416,-1.374078393,2.05722928,3.421058145
23.97897196,-2.509472847,-1.980658889,3.353540897,4.633217042
23.98130327,-2.531606436,-2.575275421,3.857828379,5.284308322
23.98362165,-2.284547329,-3.080160856,3.262613773,5.034997123
23.98592712,-1.788634896,-3.503690481,1.605584025,4.248877716
23.98825842,-1.121037364,-3.9625144,-0.4462614357,4.142148526
23.99057681,-0.2793620527,-4.532006264,-2.480758905,5.174097861
23.99288228,0.4492524564,-5.119443893,-4.636094093,6.921264479
23.99521358,1.155733347,-5.855237007,-6.479763508,8.809475302
23.99753196,1.82632184,-6.855436802,-7.787441254,10.53454823
23.99983743,2.34137702,-7.84845829,-8.677571297,11.9323337
24.00216873,2.631506681,-8.760123253,-9.221938133,12.98879247
24.00448712,2.756531715,-9.491728783,-9.415757179,13.65092911
24.00679259,2.859423161,-10.13838959,-9.433703423,14.14065078
24.00912389,2.953939438,-10.72163963,-9.218947411,14.44535586
24.01144228,3.068794966,-11.3760767,-8.840881348,14.73070964
24.01374774,3.128615618,-11.95514011,-8.416753769,14.95176762
24.01607905,3.120838881,-12.55932808,-7.896913052,15.16039554
24.01839743,3.101098061,-13.1204443,-7.177869797,15.27365976
24.0207029,3.060420275,-13.67677593,-6.238687038,15.34084705
24.0230342,3.040679455,-14.30967808,-5.203791142,15.52713948
24.02535259,3.005983353,-15.1100769,-4.263411522,15.9852131
24.02765806,3.028715372,-15.87637806,-3.370290756,16.51034091
24.02998936,3.036491871,-16.48953819,-2.340778828,16.9293945
24.0323078,3.100499868,-17.0291214,-1.448854089,17.36960717
24.03461321,3.220141172,-17.43829346,-0.6861419082,17.74638494
24.03694452,3.36012125,-17.76431465,0.109471634,18.079637
24.03926295,3.485744476,-17.80379677,0.6448656917,18.15327644
24.04156842,3.678366661,-17.61596107,1.045663476,18.02625524
24.04389972,3.719642878,-17.10987854,1.36211431,17.5624327
24.04621811,3.708276987,-16.68754578,1.40697968,17.15240782
24.04852358,3.753142357,-16.39861107,1.453041553,16.88525547
24.05085488,3.749552965,-15.87518215,1.344168067,16.36726439
24.05317327,3.632902861,-15.32662678,1.01874423,15.78421083
24.05547873,3.521636724,-14.83430386,0.8141579032,15.26831193
24.05781004,3.366701365,-14.42632771,0.3762713671,14.81874452
24.06012842,3.241078377,-14.06979752,0.0382851623,14.43832597
24.06243389,3.054438114,-13.57508087,-0.3391826153,13.91860114
24.06476519,2.871387243,-13.06600761,-0.6305087805,13.39264578
24.06708358,2.770290375,-12.63589859,-0.6915257573,12.95448377
24.06938905,2.663809776,-12.23510075,-0.6095715761,12.53655257
24.07172035,2.532204628,-11.9407835,-0.6035895348,12.22123935
24.07403873,2.448455811,-11.85583782,-0.5431707501,12.11820369
24.0763442,2.343171597,-11.67099285,-0.5168496966,11.91510222
24.07867551,2.226521492,-11.46162033,-0.328414917,11.68049635
24.08099389,2.078764677,-11.17208862,-0.1124626622,11.36439504
24.08329936,1.829911113,-10.84666538,0.06939185411,11.0001609
24.08563066,1.588834286,-10.45244789,0.3601198196,10.57864583
24.08794905,1.269392371,-10.2969141,0.4229314029,10.38348053
24.09025452,0.9230313301,-10.18983555,0.4618147612,10.24197287
24.09258582,0.5587241054,-9.953543663,0.4378865361,9.978825016
24.0949042,0.2949153781,-9.811170578,0.1818545163,9.817286502
24.09720967,0.05862415582,-9.663414001,0.05443671346,9.663745149
24.09954097,-0.1944168359,-9.46720314,0.01316052489,9.46920833
24.10185936,-0.3774677813,-9.375677109,-0.04187439755,9.383365955
24.10416483,-0.4265206456,-9.232108116,0.2237289101,9.244663042
24.10649613,-0.3696911037,-9.138788223,0.6717849374,9.170900539
24.10881452,-0.6185446382,-8.899505615,1.088136077,8.987092844
24.11111998,-0.6329016089,-8.755337715,1.239482164,8.865259104
24.11345129,-0.4001995921,-8.611170769,0.9200403094,8.669423043
24.11576967,-0.01016949583,-8.41077137,0.3738785386,8.4190833
24.11807514,0.4342973232,-7.992625713,0.0652044192,8.004681853
24.12040644,0.9517452121,-7.573283672,-0.3439682424,7.640599367
24.12272483,1.343569875,-7.15573597,-0.6155536175,7.306753282
24.1250303,1.570888042,-6.642475605,-0.9320043921,6.889035026
24.1273616,1.500898004,-5.982056618,-1.45782721,6.337425058
24.12967998,1.462612867,-5.412564754,-2.120040894,5.994136052
24.13198545,1.496112347,-4.869992256,-2.691327333,5.761806969
24.13431676,1.456630826,-4.291527271,-3.277568817,5.592981051
24.13663514,1.317248821,-3.906282902,-3.744767427,5.569333322
24.13894061,1.203589797,-3.62153697,-4.191627026,5.668676702
24.14127191,1.024726272,-3.597608805,-4.608576298,5.935640533
24.14359035,0.7788637877,-3.969094515,-4.822733879,6.29437067
24.14589577,0.5006981492,-4.454837322,-4.272384644,6.192700925
24.14822712,0.2817548811,-4.761716843,-3.943371773,6.18898328
24.1505455,0.06340979785,-5.03988266,-3.728615999,6.269530708
24.15286389,-0.1657029688,-5.231906891,-3.094517946,6.080818079
24.15518228,-0.3858426511,-5.365904808,-2.51844573,5.940065476
24.15750066,-0.6957131624,-5.563910961,-1.985444546,5.948370536
24.15980613,-1.037886858,-5.787041664,-1.381256819,6.039447885
24.16213743,-1.310668588,-6.113661766,-0.7130611539,6.293104841
24.16445582,-1.543968797,-6.516852379,-0.107078813,6.698109468
24.16676129,-1.776670814,-6.905686378,0.394815743,7.141494452
24.16909259,-1.960319996,-7.332206726,0.9020941257,7.64315928
24.17141097,-2.13559413,-7.690532207,1.34237349,8.093640374
24.17371644,-2.216351986,-8.032107353,1.853839397,8.536022796
24.17604774,-2.310868502,-8.383852005,2.309073925,8.997828075
24.17836613,-2.392822742,-8.688339233,2.845066071,9.450250804
24.1806716,-2.394019127,-8.961120605,3.256631613,9.830496404
24.1830029,-2.410170555,-9.190832138,3.692723513,10.19394548
24.18532129,-2.423929453,-9.311071396,3.965505362,10.40657087
24.18762676,-2.401795626,-9.458827972,4.080958843,10.57791444
24.18995806,-2.361716032,-9.482157707,3.967299938,10.54649165
24.19227644,-2.232503414,-9.46002388,3.805784464,10.43839637
24.19458191,-2.132004976,-9.386445045,3.501297712,10.24255249
24.19691321,-2.008774519,-9.239884377,3.142972469,9.964382284
24.1992316,-1.890928149,-9.05563736,2.689532757,9.63399002
24.20154998,-1.810170293,-8.886942863,2.154736757,9.321875371
24.20386837,-1.676172256,-8.755337715,1.621137381,9.060550665
24.20618676,-1.49431777,-8.607581139,1.18743825,8.816657431
24.20849222,-1.305284739,-8.426324844,0.7962117195,8.563916845
24.21082353,-1.1395818,-8.297710419,0.4677968323,8.388651784
24.21314191,-0.9762716293,-8.092526436,0.2632105052,8.155450336
24.21544738,-0.7854440212,-7.86281538,0.07238288224,7.902279879
24.21777868,-0.5742774606,-7.632505894,-0.2189432681,7.657210783
24.22009707,-0.3475574851,-7.441080093,-0.5521438122,7.469627297
24.22240254,-0.05204389244,-7.319644451,-0.8937192559,7.374187248
24.22473384,0.3098705411,-7.238886833,-1.158126116,7.337489927
24.22705222,0.6538388133,-7.173682213,-1.403988719,7.338964914
24.22935769,0.9535398483,-7.075576782,-1.583450437,7.313025388
24.231689,1.210170031,-7.016952515,-1.700698733,7.320827158
24.23400738,1.447657704,-6.958926678,-1.761117458,7.3228347
24.23631285,1.624726534,-6.983452797,-1.744965911,7.379244901
24.23864415,1.773081541,-7.05164814,-1.633101463,7.452286899
24.24096254,1.845464468,-7.10249567,-1.489532113,7.487983024
24.24328092,1.812563181,-7.203592777,-1.274178028,7.536621513
24.24559931,1.799402595,-7.334001541,-1.001396298,7.617625801
24.24791769,1.694118381,-7.407580853,-0.7202396393,7.63289174
24.25023608,1.524227977,-7.545766354,-0.4588237405,7.711833765
24.25255446,1.317847013,-7.737192154,-0.2446661144,7.852434316
24.25487285,1.078564763,-7.948956966,-0.09212367237,8.022325447
24.25719123,0.8123632669,-8.180462837,0.03649054468,8.220780855
24.25950967,0.5832505226,-8.406583786,0.08853443712,8.427257589
24.26182806,0.3672982752,-8.738588333,0.1603191197,8.747773219
24.26414644,0.1848455518,-9.069396019,0.1800599098,9.073066383
24.26646483,0.06640082598,-9.451051712,0.1483550072,9.452449246
24.26878321,-0.0239282269,-9.799804688,0.07896314561,9.800152022
24.27108868,-0.05922235921,-10.0648098,0.02333002165,10.06501107
24.27341998,-0.02153540403,-10.2029953,-0.0951147005,10.20346136
24.27573837,0.1639083475,-10.31904793,-0.2309073806,10.32293245
24.27804384,0.4612165689,-10.3411808,-0.3906283081,10.35882868
24.28037514,0.8620143533,-10.29870892,-0.5252245665,10.34805948
24.28269353,1.342971683,-10.22512913,-0.6598208547,10.33403126
24.28501191,1.899901152,-10.1210413,-0.8368897438,10.3317707
24.2873303,2.508276224,-9.991828918,-0.9948160052,10.3497707
24.28964868,3.145365477,-9.881160736,-1.118644595,10.42986228
24.29195415,3.72024107,-9.76211834,-1.224527001,10.51848917
24.29428545,4.321437836,-9.729216576,-1.300499082,10.72491389
24.29660384,4.876572609,-9.840482712,-1.232901812,11.05152059
24.29890931,5.306682587,-10.0462656,-1.174277663,11.42222661
24.30124061,5.618347645,-10.5475626,-0.9583254457,11.98896554
24.303559,5.733202934,-10.29033375,-0.6921239495,11.7999839
24.30586446,5.810371399,-10.22991467,-0.3822534084,11.77105295
24.30819577,5.854040623,-10.52602673,-0.0933200866,12.04473905
24.31051415,5.806184292,-10.98784161,0.2626122832,12.43034209
24.31281962,5.701498032,-11.4699955,0.6227321029,12.82402713
24.31515092,5.571089268,-11.90967655,1.034895778,13.18895145
24.31746931,5.390431404,-12.23450184,1.465603828,13.4494528
24.31977478,5.157729149,-12.38824081,1.817348838,13.54154486
24.32210608,4.923830986,-12.48933792,2.154736757,13.59671151
24.32442446,4.708476543,-12.73340607,2.465205431,13.79806578
24.32672993,4.694717884,-13.74676609,2.734398127,14.78143725
24.32906123,4.222733974,-13.10907841,3.011367321,14.09779245
24.33137962,3.85244441,-12.71845055,3.248854876,13.68047405
24.33368509,3.527020693,-12.6879425,3.303291559,13.57702085
24.33601639,3.160918713,-12.71067429,3.251846075,13.49544926
24.33833478,2.902493954,-12.85603809,3.231507063,13.56999722
24.34064025,2.64825654,-12.9637146,3.172882795,13.60655519
24.34297155,2.408974171,-13.07498074,3.043072224,13.63886236
24.34528993,2.145763636,-13.14856052,2.821736097,13.61804465
24.3475954,1.909472466,-13.17847061,2.63389945,13.5740782
24.34992676,1.687538147,-13.26102352,2.523231506,13.60401511
24.35224509,1.552941918,-13.36989689,2.417947292,13.67524188
24.35455056,1.435693622,-13.46381474,2.484348059,13.76617262
24.35688191,1.32263267,-13.51406384,2.517249346,13.80998996
24.3592003,1.240678549,-13.48295784,2.48733902,13.76649159
24.36151868,1.150349498,-13.49910927,2.491526604,13.77522994
24.36383707,1.106680512,-13.45723438,2.452643156,13.72360585
24.36615545,1.061815023,-13.36211967,2.432304144,13.62313462
24.36847384,1.073180914,-13.23709488,2.407777786,13.49702901
24.37079222,1.028315544,-13.18564892,2.421536446,13.44554235
24.37311061,1.002592683,-13.10907841,2.46819663,13.37703717
24.375429,0.9840483069,-12.97029495,2.500499725,13.24573143
24.37774738,0.9589236975,-12.9134655,2.514258385,13.19085369
24.38006577,0.9296116233,-12.72622681,2.574677229,13.01729578
24.38238415,0.9146564603,-12.56770229,2.706880569,12.88840331
24.38470254,0.9164510965,-12.46660614,2.801397085,12.81030745
24.38702092,0.9308080077,-12.33200932,2.924627542,12.70819828
24.38933931,0.9589236975,-12.32602787,2.996412039,12.7212021
24.39165769,1.086939692,-12.36132145,3.183650494,12.81090693
24.39397608,1.265205026,-12.45763302,3.285943747,12.94568617
24.39629446,1.479362607,-12.65863037,3.370888948,13.18303186
