Time (s),Acceleration x (m/s^2),Acceleration y (m/s^2),Acceleration z (m/s^2),Absolute acceleration (m/s^2)
20.00213841,2.504088879,-15.09990692,0.03469592705,15.30617045
20.0044569,2.669791937,-15.02872086,0.007178467698,15.26401949
20.00677544,2.833101988,-14.89532089,-0.02572284266,15.16237821
20.00909393,3.001197815,-14.86780357,-0.1680957973,15.16861983
20.01141242,3.12921381,-14.79302788,-0.3631108403,15.12473148
20.01373091,3.157927752,-14.71585941,-0.5826523304,15.06215488
20.0160494,3.176471949,-14.64885998,-0.7639086246,15.00875175
20.01836789,3.19382,-14.53340626,-0.8985049129,14.9073034
20.02068643,3.180659533,-14.41376495,-0.87517488,14.78645144
20.02300492,3.12921381,-14.27079391,-0.8291130662,14.63335117
20.02532341,3.06999135,-14.07518101,-0.6831508875,14.42228354
20.0276419,2.938984394,-13.86580944,-0.4905286431,14.18234533
20.02996039,2.812762976,-13.67617798,-0.2787638307,13.96521353
20.03227893,2.659024239,-13.47817135,-0.123828575,13.73851689
20.03459742,2.420340061,-13.14257812,0.0005982056609,13.36358508
20.036903,2.099103689,-12.74596786,0.1525424421,12.91856038
20.0392344,1.746162295,-12.45643616,0.299701035,12.58180056
20.04155289,1.348355532,-12.26859951,0.5521438122,12.35481523
20.04385852,0.8991031051,-12.15853024,0.9577272534,12.22928802
20.04618992,0.484546572,-12.12443256,1.311864972,12.20482036
20.04850841,0.04007977992,-12.16331577,1.551147223,12.26188871
20.05081399,-0.4289134443,-12.16451168,1.723430514,12.29347485
20.05314539,-0.7842476368,-12.11964703,1.929811478,12.29735991
20.05546388,-1.088136077,-12.06879902,2.155933142,12.30804605
20.05776951,-1.324427366,-12.03051376,2.430509567,12.34482669
20.06010091,-1.437488198,-12.0227375,2.796611547,12.42713264
20.0624194,-1.421336651,-12.05025482,3.287738323,12.57131904
20.06472498,-1.377069473,-12.06760311,3.732205153,12.7064047
20.06705638,-1.268794179,-12.12203979,4.110270977,12.86265972
20.06937492,-1.133599758,-12.2482605,4.341178417,13.04418505
20.0716805,-0.9822536707,-12.41216946,4.386641979,13.20111362
20.0740119,-0.8620143533,-12.59701443,4.274777889,13.33047513
20.07633039,-0.7256234884,-12.81057453,3.986442566,13.43611081
20.07864888,-0.6251249313,-13.06840134,3.626920938,13.5767614
20.08096742,-0.6011967063,-13.29930782,3.132802963,13.67653028
20.08328591,-0.6538388133,-13.4650116,2.499303341,13.71060027
20.0856044,-0.7106683254,-13.62114334,1.79820621,13.75769388
20.08792289,-0.8165507317,-13.71625805,0.9726824164,13.77492654
20.09024138,-0.8775677085,-13.84427357,0.08614161611,13.87232699
20.09254696,-0.9523434043,-13.94357586,-0.9583254457,14.00887766
20.09487841,-0.9559326172,-14.05185127,-1.963909149,14.22059318
20.0971969,-0.9230313301,-14.31207085,-2.901895761,14.63244196
20.09950248,-0.8380861282,-15.07956791,-3.839882135,15.58333891
20.10183388,-0.709471941,-15.774683,-4.563711166,16.43689246
20.10415237,-0.5599204898,-16.36810303,-5.268397331,17.20419478
20.106458,-0.4965106845,-16.78505325,-5.870790482,17.78906171
20.1087894,-0.5330012441,-17.0416832,-6.436692715,18.2245458
20.11110789,-0.5922235847,-17.22592926,-6.793821812,18.52672077
20.11341346,-0.6969096065,-17.37787437,-6.941578388,18.72596356
20.11574487,-0.7435696125,-17.63809395,-6.777669907,18.91010479
20.11806341,-0.8213363886,-17.91267014,-6.304489613,19.00749679
20.12036899,-0.9631111026,-18.06880188,-5.922834396,19.03914787
20.12270039,-1.075573802,-18.13281059,-5.384449005,18.94592225
20.12501888,-1.236491084,-18.159729,-4.856233597,18.83846258
20.12732446,-1.512862086,-18.11725616,-4.377070904,18.69979872
20.12965586,-1.787438512,-18.00300026,-3.922434568,18.51184615
20.1319744,-2.02612257,-17.72483444,-3.544966698,18.18905488
20.13429289,-2.175075769,-17.27558136,-3.077169895,17.68178838
20.13661138,-2.32701993,-16.9040947,-2.609373093,17.26187322
20.13892987,-2.478964329,-16.53201103,-2.083550215,16.8461816
20.14123544,-2.55254364,-16.25384521,-1.537986755,16.52478038
20.1435669,-2.632104874,-16.25504303,-1.127617717,16.5053301
20.14588539,-2.77746892,-16.42672729,-0.9182456732,16.68516941
20.14819096,-2.854039192,-16.63370705,-0.2069791555,16.87805054
20.15052237,-3.010769129,-16.71745491,0.589232564,16.99662391
20.15284086,-3.337389469,-16.84008789,0.7160521746,17.18253355
20.15514649,-3.578466177,-16.94656754,0.8195417523,17.33964302
20.15747789,-3.789632797,-16.88315773,1.318445325,17.35340398
20.15979638,-4.015156269,-16.51825333,1.504487276,17.06568647
20.16210196,-4.287938118,-16.24247932,0.7028916478,16.81364341
20.16443336,-4.576273441,-15.87278938,-0.8524430394,16.54129319
20.1667519,-4.82333231,-15.4552412,-2.956332445,16.45809578
20.16905748,-4.909473896,-14.94736481,-5.279164791,16.59506642
20.17138888,-4.884349346,-14.49033546,-7.476374149,17.02124733
20.17370737,-4.816751957,-14.23310757,-9.634101868,17.84932406
20.17601294,-4.631308079,-14.02014637,-11.44666576,18.68260356
20.17834435,-4.356731892,-13.9298172,-12.71366501,19.35608943
20.18066289,-4.006781578,-13.90409374,-13.65045452,19.89253704
20.18296847,-3.544966698,-13.93220997,-14.03270817,20.08955355
20.18529987,-3.012563705,-13.98664665,-13.63669586,19.76515365
20.18761836,-2.502294302,-14.054842,-12.73938751,19.1335322
20.18992393,-1.868794441,-13.95972729,-11.16491032,17.9728017
20.19225539,-1.344766378,-13.68993664,-9.526425362,16.73246969
20.19457388,-1.071386337,-13.24427319,-8.143971443,15.58470121
20.19687946,-1.076770186,-12.62273788,-7.098906517,14.52196335
20.19921086,-1.246062398,-11.91446209,-6.11784935,13.45121404
20.20152935,-1.399203062,-11.301301,-5.041079044,12.45349957
20.20383498,-1.560120344,-10.57268715,-4.069592953,11.43578925
20.20616638,-1.794616938,-9.833304405,-3.323630571,10.5338049
20.20848487,-1.983649969,-9.235696793,-2.514258385,9.775196043
20.21079044,-2.06261301,-8.659625053,-1.660020709,9.055338053
20.2131219,-2.132603168,-8.05424118,-0.8063812256,8.370725652
20.21544039,-2.276172638,-7.408178806,0.1465603858,7.751358271
20.21774597,-2.61714983,-6.918846607,1.241874933,7.500810953
20.22007737,-2.933600664,-6.544968128,2.55254364,7.613021719
20.22239586,-2.995215654,-6.467799664,3.529413462,7.953647508
20.22470143,-2.863610506,-6.747161865,4.013959885,8.356813527
20.22703289,-2.542972326,-7.166503906,4.15334177,8.664625459
20.22935138,-2.181656122,-7.572087288,3.826123476,8.759871585
20.23165696,-1.718046665,-7.916653633,3.594019651,8.862396197
20.23398836,-1.207777262,-8.231309891,3.505485058,9.027824429
20.2363069,-0.7519445419,-8.403593063,3.090928555,8.985523707
20.23861248,-0.3882354796,-8.372486115,2.273779631,8.684429995
20.24094388,-0.007178467698,-8.215756416,1.794018745,8.409352429
20.24326237,0.37986058,-7.967501163,1.442872047,8.106000777
20.24556794,0.9684949517,-7.771289825,1.265205026,7.932948492
20.24789935,1.591227055,-7.811369419,0.4169493318,7.982690179
20.25021789,2.098505497,-7.897511005,-0.708275497,8.20219846
20.25252347,2.538784742,-8.032705307,-1.65762794,8.585890339
20.25485487,2.94377017,-8.221140862,-2.205584288,9.00652774
20.25717336,3.116053343,-8.309076309,-2.595016241,9.245790763
20.25947893,3.141776085,-8.169096947,-2.653042078,9.145683909
20.26181039,2.998805046,-7.923233986,-2.899502754,8.954193695
20.26412888,2.535793781,-7.422535896,-3.927818298,8.772231519
20.26643446,2.125424623,-6.743572235,-3.077768087,7.711410553
20.26876586,1.909472466,-6.37687254,-1.713261008,6.873561796
20.27108435,1.78684032,-6.263213158,-1.137787223,6.611746906
20.27340289,1.759322882,-6.254838467,-1.324427366,6.63116348
20.27572138,1.616949916,-6.1429739,-1.77009058,6.594230511
20.27803987,1.492523074,-5.969494343,-2.249253273,6.551459999
20.28035836,1.377069473,-5.781059742,-2.781656265,6.561599169
20.28267685,1.213759303,-5.449055195,-3.071187973,6.37162536
20.28499539,1.080957651,-5.111667156,-3.113062143,6.08183907
20.28730096,0.9637092948,-4.773082733,-3.230908871,5.84378529
20.28963237,0.8267202377,-4.478765965,-3.153141975,5.539414701
20.29195086,0.7040880919,-4.193421841,-3.156731367,5.295798306
20.29425643,0.6693921089,-3.992424488,-3.000599623,5.038961915
20.29658789,0.685543716,-3.813561201,-2.672782898,4.70712095
20.29890638,0.6885347366,-3.563511133,-2.632104874,4.483376824
20.30121196,0.6741777658,-3.381656647,-2.666800737,4.359121874
20.30354336,0.6993024349,-3.246462107,-2.657827854,4.25353841
20.3058619,0.7800601721,-3.177668571,-2.72961235,4.26108613
20.30818039,0.8063812256,-3.220739365,-2.891128063,4.402503176
20.31049888,0.8249256015,-3.239283562,-2.82831645,4.378679502
20.31281737,0.8087740541,-3.253640652,-2.537588358,4.204717307
20.31513586,0.7770691514,-3.239283562,-2.189432621,3.98627767
20.3174544,0.7663014531,-3.262613773,-1.898704767,3.851875692
20.31977289,0.680758059,-3.268595695,-1.451246977,3.640503694
20.32209138,0.5503492355,-3.252444267,-1.228116274,3.519878915
20.32440987,0.4354937077,-3.288336515,-1.06660068,3.484314684
20.32672836,0.2865405083,-3.296113253,-0.9008977413,3.429006383
20.3290469,0.1938186288,-3.288336515,-0.6490531564,3.357378844
20.33136539,0.1082752272,-3.337987661,-0.5300102234,3.381537519
20.33368388,-0.04426721856,-3.336791277,-0.5647061467,3.384527832
20.33600237,-0.2560320199,-3.293720484,-0.4097708762,3.328972693
20.33832091,-0.4289134443,-3.302095175,-0.3302095234,3.346167601
20.3406394,-0.5072783828,-3.414557934,-0.2679961324,3.462420998
20.34295789,-0.7016952634,-3.457628727,-0.3122633696,3.541903594
20.34527638,-0.8703892231,-3.533600807,-0.418145746,3.663162285
20.34759487,-1.036690354,-3.528217077,-0.5006981492,3.711299135
20.34991341,-1.203589797,-3.503690481,-0.5976074338,3.752547139
20.3522319,-1.361516118,-3.459423304,-0.6520441771,3.774453251
20.35455039,-1.502094388,-3.366701365,-0.6634100676,3.74580813
20.35686888,-1.649253011,-3.370290756,-0.7836494446,3.833145148
20.35918737,-1.962712765,-3.401995659,-0.8434699774,4.017120544
20.36150591,-2.093121529,-3.3852458,-0.6735795736,4.036676393
20.3638244,-2.147558212,-3.199203968,-0.4893322289,3.884116159
20.36614289,-2.190629244,-3.055634499,-0.3236292601,3.773657983
20.36846138,-2.145763636,-2.963510752,-0.2380858511,3.666521843
20.37077987,-2.134397745,-2.881556749,-0.1674975902,3.589857724
20.37309841,-2.078764677,-2.831905603,-0.1333998591,3.515501024
20.3754169,-1.932204247,-2.789433002,-0.06041877344,3.393817932
20.37773539,-1.872981906,-2.68713975,-0.05623133108,3.275964471
20.38005388,-1.800000787,-2.598605394,0.05862415582,3.161675129
20.38237237,-1.751546144,-2.496910334,0.2009970993,3.056611677
20.38469091,-1.694118381,-2.379662037,0.3768695593,2.945311386
20.3870094,-1.677368641,-2.326421738,0.5437689424,2.919158838
20.38932789,-1.683948994,-2.30189538,0.6915257573,2.934725614
20.39164638,-1.643869162,-2.257628202,0.9200403094,2.940351185
20.39396492,-1.64626193,-2.247458696,1.135394335,3.008383159
20.39628341,-1.670788407,-2.267199516,1.307079315,3.104864552
20.3986019,-1.759322882,-2.268395901,1.630110383,3.301226564
20.40092039,-1.805384636,-2.245065928,1.948953986,3.478240409
20.40323888,-1.85443759,-2.288734913,2.273779631,3.721198743
20.40554451,-1.889133453,-2.337189436,2.626721144,3.99135862
20.40787591,-1.935195327,-2.365903378,3.112463951,4.362328689
20.4101944,-2.003988981,-2.453241348,3.652045488,4.834439078
20.41249998,-2.079362869,-2.45383954,4.199403763,5.289619116
20.41483143,-2.189432621,-2.440679073,4.804787636,5.816916173
20.41714992,-2.367099762,-2.400599241,5.413163185,6.377175995
20.4194555,-2.460419893,-2.348555326,6.208776474,7.079426776
20.4217869,-2.580659151,-2.340778828,6.909275532,7.738031762
20.42410539,-2.684148788,-2.418545485,7.533204079,8.354829781
20.42641097,-2.959323406,-2.477169752,8.142177582,9.010495035
20.42874242,-3.367897987,-2.514258385,8.715856552,9.676279632
20.43106091,-3.81296277,-2.620140791,9.161520004,10.26339474
20.43336649,-4.127619267,-2.775076151,9.674181938,10.87787133
20.43569789,-4.271188259,-2.993421078,10.48116112,11.70719254
20.43801643,-4.636094093,-3.288934708,11.19601727,12.55632361
20.44032201,-5.067399979,-3.614358664,11.84746265,13.38299303
20.44265341,-5.347958565,-3.97627306,12.32004547,14.00696001
20.4449719,-5.713462353,-4.450051785,12.53001595,14.47231538
20.44727748,-6.185446739,-4.907081127,12.74417305,14.99176918
20.44960893,-6.583851337,-5.488536835,12.58265781,15.22479598
20.45192742,-6.780661106,-6.145965099,12.4618206,15.46115212
20.454233,-6.908079147,-6.831508636,12.20279694,15.59805503
20.4565644,-7.017550468,-7.445267677,11.73440266,15.56837278
20.45888289,-7.067201614,-8.085946083,11.08475113,15.43371538
20.46118852,-6.851847649,-8.798408508,10.30050373,15.18091518
20.46351992,-6.591628075,-9.39840889,9.543772697,14.92860501
20.46583841,-6.260222435,-9.819545746,8.828917503,14.61381702
20.46814399,-5.848058701,-10.21914768,8.115856171,14.30027592
20.47047544,-5.480162144,-10.58166027,7.353144169,14.00258692
20.47279393,-5.10508728,-10.91964626,6.906284332,13.89234875
20.47509951,-4.739583492,-11.15174961,6.696912289,13.84463092
20.47743091,-4.24367094,-11.46221828,6.531209469,13.85813437
20.4797494,-3.756133318,-11.83549881,6.437889099,13.98692195
20.48205503,-3.367299557,-12.28235817,6.406184196,14.25602415
20.48438643,-3.09272337,-12.74596786,6.407381058,14.59723147
20.48670492,-3.067000389,-13.01516056,6.385845661,14.81822933
20.4890105,-3.092125177,-13.14018536,6.415157318,14.94590087
20.49134196,-3.122035265,-13.10728455,6.42413044,14.92707152
20.49366044,-3.107678413,-12.92961693,6.485147476,14.7949247
20.49596602,-3.135195971,-12.6125679,6.496513367,14.52965962
20.49829742,-3.148356438,-12.29611778,6.498906136,14.25981913
20.50061596,-3.194418192,-11.99462128,6.496513367,14.00999404
20.50293446,-3.23330164,-11.7649107,6.480361938,13.81529783
20.50525294,-3.29551506,-11.56032467,6.378068924,13.6081332
20.50757143,-3.333800077,-11.3258276,6.256632805,13.36166336
20.50988992,-3.372683525,-11.06321526,6.106483459,13.07894744
20.51220846,-3.44446826,-10.80120182,5.866004944,12.76480851
20.51452696,-3.504886866,-10.41356373,5.571687698,12.3195067
20.51683253,-3.643072367,-9.937990189,5.218147755,11.80104619
20.51916393,-3.823730469,-9.32303524,4.887938499,11.19963587
20.52148242,-3.9625144,-8.688339233,4.629513741,10.61231155
20.52378805,-4.236492634,-7.97467947,4.34476757,10.02099734
20.52611946,-4.507479668,-7.207779884,4.160520554,9.464639195
20.52843794,-4.771886349,-6.407381058,4.209573269,9.03027898
20.53074352,-5.098506927,-5.665007591,4.444668293,8.822820418
20.53307492,-5.380261898,-5.172086239,4.643870354,8.789950285
20.53539347,-5.716453075,-4.622334957,4.994419098,8.887521496
20.53769904,-6.0927248,-4.206582069,5.928217888,9.484745412
20.54003044,-6.505486488,-4.027718544,6.848258495,10.26852061
20.54234893,-6.897311211,-4.11685133,7.866404533,11.24285049
20.54465456,-7.107879639,-4.518247128,8.692526817,12.1035752
20.54698596,-7.080960274,-5.175076962,9.260822296,12.7547736
20.54930446,-6.857231617,-6.110072613,9.379266739,13.12727151
20.55161003,-6.34875679,-7.0151577,9.576076508,13.46181234
20.55394149,-5.784050465,-7.920242786,9.330213547,13.53655681
20.55625998,-5.212764263,-8.651848793,8.848658562,13.42855752
20.55856555,-4.630710125,-9.532406807,8.145168304,13.36615212
20.56089696,-4.085146427,-10.55832958,7.637291908,13.65631622
20.56321544,-3.552145243,-11.57827091,7.534998417,14.26360033
20.56552107,-3.266801119,-12.55693531,7.244270325,14.86028487
20.56785248,-3.024527788,-13.40160179,7.128817081,15.47807262
20.57017097,-2.911466837,-14.4317112,7.108478069,16.34874269
20.57247654,-3.120838881,-15.1471653,6.982854843,16.96869216
20.574808,-3.457030535,-16.07737541,6.738786697,17.77200907
20.57712649,-3.914059639,-17.05364609,6.7704916,18.76129698
20.57943206,-4.497310162,-18.05205154,6.662814617,19.76095803
20.58176346,-5.24506712,-18.97807503,6.519843578,20.74093588
20.58408196,-5.995815277,-19.83590126,6.614359856,21.75229956
20.58638758,-6.640082836,-20.48854446,6.957729816,22.63362893
20.58871899,-7.022336483,-21.0203495,7.630113125,23.43900444
20.59103748,-7.139584541,-21.52104759,8.43948555,24.1940917
20.59334305,-7.117451191,-21.79681969,9.571888924,24.84714304
20.59567451,-6.607181549,-22.03131676,11.53400326,25.73066259
20.597993,-5.706283569,-22.15933228,13.86580944,26.75552934
20.60029857,-4.078566074,-22.1754837,15.5736866,27.40303803
20.60262998,-2.499303341,-21.70948219,16.42852211,27.33943074
20.60494852,-1.20179522,-20.53639984,16.1886425,26.1774746
20.60725409,-0.1962114573,-18.90210342,14.57348633,23.86869323
20.6095855,0.5718846321,-16.97288895,11.71825027,20.63306571
20.61190399,1.185045362,-14.97727489,7.883752346,16.96692803
20.61420956,1.621735573,-12.84706497,3.483351469,13.40935651
20.61654102,1.918445587,-10.62473106,-0.9044869542,10.83436386
20.61885951,1.969292998,-8.263014793,-4.875974178,9.794419461
20.62116508,1.853839397,-6.019145489,-7.936992645,10.13225963
20.62349649,1.613958836,-3.704089403,-10.01635551,10.80057958
20.62581503,1.230509043,-1.953141451,-11.35394382,11.58623987
20.6281206,0.6789634228,-0.6664010882,-12.24586773,12.28276672
20.63045201,-0.04247260094,0.2715853751,-12.693326,12.69630211
20.6327705,-0.879960537,1.092323542,-12.66341591,12.74086354
20.63507612,-1.737189293,1.832303882,-12.28534985,12.54212841
20.63740753,-2.469991207,2.421536446,-11.42333508,11.93554689
20.63972602,-3.125026464,2.81695056,-10.11027431,10.95073731
20.64203159,-3.692723513,3.108874798,-8.657830238,9.912584622
20.644363,-4.107878208,3.370290756,-7.084549427,8.855753144
20.64668154,-4.306482315,3.470191002,-5.24566555,7.622665058
20.64898711,-4.447061062,3.394218922,-2.870789051,6.287965009
20.65131852,-4.590032101,3.059223652,-0.5419743061,5.542651007
20.65363701,-4.692923546,2.536990166,1.512263894,5.544979044
20.65594263,-4.698905468,1.872383714,3.272184849,6.024344533
20.65827404,-4.501497746,0.9912267923,4.768895626,6.632373482
20.66059253,-4.090530396,-0.1208375469,5.896512985,7.177458186
20.6628981,-3.471985579,-1.320239902,6.488138676,7.476206306
20.66522956,-2.678166628,-2.555534601,6.026922226,7.072985586
20.66754805,-1.72223413,-3.754936934,4.91366148,6.419479022
20.66985362,-0.6586244106,-4.977669239,2.876172781,5.786479675
20.67218503,0.4737788737,-6.311667919,-0.1812563092,6.332019598
20.67450352,1.630708575,-7.750352383,-3.600001574,8.69983815
20.67680914,2.771486759,-9.127422333,-7.023532867,11.84571616
20.67914055,3.783052683,-10.53081226,-10.26281643,15.18337563
20.68145904,4.699503899,-11.91745281,-13.03490162,18.27620526
20.68376461,5.41136837,-13.19103336,-14.96052551,20.66648476
20.68609607,5.780461311,-14.24088383,-16.00379562,22.18869035
20.68841456,5.977869034,-15.18305779,-16.15275002,22.96021548
20.69072013,5.805585861,-15.86740494,-15.64307785,23.02575192
20.69305154,5.445466042,-16.45065498,-14.58784294,22.6513203
20.69537008,4.929812908,-16.92084503,-13.0390892,21.92340984
20.69767565,4.227519512,-17.24567032,-11.16790104,20.97634572
20.70000706,3.459423304,-17.51964951,-9.040681839,20.01598502
20.70232555,2.568695068,-17.72363663,-6.699903488,19.12104067
20.70463112,1.899302959,-18.21954918,-4.222135544,18.79855719
20.70696258,1.365703583,-18.99123573,-1.850250125,19.12996619
20.70928107,0.793818891,-19.65943146,0.3248256743,19.67813267
20.71158664,0.1441675574,-19.83889198,2.237887383,19.96523377
20.71391805,-0.3924229145,-19.73420715,3.443870068,20.03629628
20.71623659,-0.6580262184,-19.40280151,3.925425529,19.80683394
20.71854216,-0.7770691514,-18.80579185,3.767499208,19.19519977
20.72087357,-0.7537391186,-18.04786491,3.108276606,18.32907346
20.72319206,-0.6358926296,-17.22951889,2.379063845,17.40461506
20.72549768,-0.5766702294,-16.25025749,1.32263267,16.31418935
20.72782909,-0.3996013701,-15.23031616,0.3487538993,15.23954858
20.73014758,-0.2985046208,-14.24028587,-0.6167500615,14.25676076
20.73245315,-0.1926222295,-13.36451244,-1.232901812,13.42264292
20.73478461,-0.1423729509,-12.58146191,-1.724626899,12.69991306
20.7371031,-0.1782652885,-11.94497108,-2.258824587,12.15797686
20.73940867,-0.2823530734,-11.47238827,-2.745165825,11.79963352
20.74174008,-0.3367897868,-11.0997057,-3.086741209,11.52583469
20.74405862,-0.4247260094,-10.80957603,-3.270988464,11.30162341
20.74636419,-0.5347958803,-10.59063339,-3.330809116,11.11493642
20.7486956,-0.6556333899,-10.3728857,-3.266801119,10.89488883
20.75101409,-0.7680960894,-10.13479996,-3.07836628,10.61981548
20.75331966,-0.8638089895,-10.0265255,-2.79421854,10.44437824
20.75565112,-0.9906286001,-9.976275444,-2.557329178,10.34636889
20.75796961,-1.067797065,-9.996614456,-2.414956331,10.33946349
20.76027518,-1.13419795,-10.03190899,-2.304886341,10.35558323
20.76260659,-1.168295622,-10.02772141,-2.248056889,10.34281736
20.76492513,-1.166501045,-9.960124016,-2.105085611,10.24676439
20.76723071,-1.136590719,-9.887143135,-1.905285001,10.13299308
20.76956211,-1.027717352,-9.74477005,-1.652842283,9.937234721
20.7718806,-0.9080761671,-9.524630547,-1.228714466,9.646394591
20.77418623,-0.7908278704,-9.372686386,-0.8853443861,9.44756548
20.77651763,-0.7513462901,-9.265607834,-0.8285148144,9.33286915
20.77883612,-0.7956135273,-9.156734467,-0.9678967595,9.24205665
20.78115461,-0.8207381964,-9.052047729,-1.198205948,9.167817449
20.78347315,-0.8632107973,-8.991030693,-1.447059512,9.147554156
20.78579164,-0.9475577474,-8.959924698,-1.710269928,9.170776385
20.78811013,-0.8829515576,-9.020941734,-1.823929071,9.245740126
20.79042862,-0.7704889178,-9.138788223,-1.82632184,9.351286266
20.79274716,-0.6711867452,-9.289535522,-1.824527264,9.490777713
20.79506565,-0.6245267391,-9.446864128,-1.794616938,9.636074172
20.79738414,-0.6233302951,-9.687342644,-1.759322882,9.865513933
20.79970263,-0.537786901,-10.04566765,-1.765304923,10.21376301
20.80202117,-0.3230310678,-10.63190937,-2.140978098,10.85014438
20.80433966,-0.03948157281,-11.13021469,-2.635694027,11.43809953
20.80665815,0.1794617027,-11.42812061,-2.779263496,11.762587
20.80896373,0.72323066,-11.62612724,-2.70149684,11.95775825
20.81129513,1.352542996,-11.69731331,-2.509472847,12.03968293
20.81361367,1.717448473,-11.52503014,-2.158924341,11.85060771
20.81591925,1.999203324,-11.31625652,-1.624128342,11.60569983
20.81825065,2.36111784,-10.86520958,-1.204786181,11.18387976
20.82056914,2.71286273,-10.34237766,-1.028315544,10.74159359
20.82287477,2.98863554,-9.864411354,-0.6005984545,10.32469236
20.82520617,3.399004459,-9.556933403,-0.4223332107,10.15217084
20.82752466,3.628117323,-9.205786705,-0.446859628,9.905020328
20.82983024,3.84107852,-8.922237396,-0.5569294691,9.729870235
20.83216169,3.921238184,-8.714061737,-0.5335994363,9.570564728
20.83448018,3.957130432,-8.511270523,-0.3487538993,9.392669293
20.83678576,3.940979004,-8.347361565,-0.01615155302,9.230927444
20.83911716,3.955934048,-8.250452042,0.1740778536,9.151484917
20.84143571,3.955335855,-8.21216774,0.1453639716,9.11622243
20.84375419,3.876372576,-8.032107353,-0.1244267747,8.919444764
20.84607268,3.682554007,-7.831110477,-0.4085744619,8.663395894
20.84839117,3.503690481,-7.705487251,-0.4683950245,8.4776043
20.85070972,3.286541939,-7.652844906,-0.35174492,8.33613325
20.8530282,2.988037348,-7.5924263,-0.1734796464,8.161090583
20.85534669,2.659622431,-7.49910593,-0.03349951655,7.956840042
20.85766518,2.358724833,-7.356733322,0.1962114573,7.728105003
20.85998373,2.087737799,-7.295117855,0.5132604837,7.605315901
20.86230222,1.845464468,-7.266404152,0.8494520187,7.545060446
20.8646207,1.633101463,-7.265805721,1.129412293,7.532232425
20.86693919,1.407577872,-7.295117855,1.394417405,7.559392825
20.86925774,1.120439172,-7.335197926,1.687538147,7.609750163
20.87156331,0.8392825127,-7.442276478,1.991426587,7.749687359
20.87389472,0.6221339107,-7.64327383,2.29651165,8.005039113
20.87621321,0.3792623878,-7.898109436,2.539382935,8.304964678
20.87851883,0.06939185411,-7.948358536,2.71824646,8.400600125
20.88085024,-0.2183450609,-8.123034477,2.888735056,8.624161055
20.88316873,-0.4534398913,-8.305487633,2.959323406,8.828608473
20.8854743,-0.6957131624,-8.325826645,2.92402935,8.851742979
20.88780576,-0.8668000102,-8.334799767,2.931805849,8.87782152
20.89012425,-0.985244751,-8.395217896,2.97427845,8.960843879
20.89242982,-1.097707391,-8.460422516,2.964108944,9.031591914
20.89476123,-1.176670551,-8.539385796,2.96889472,9.117017013
20.89707977,-1.221535921,-8.626724243,2.926422119,9.191108072
20.89939826,-1.26640141,-8.75713253,3.002992392,9.343934181
20.90171675,-1.288534999,-8.854042053,3.074777126,9.460900459
20.90403524,-1.359721422,-8.883952141,3.145963669,9.522107718
20.90635373,-1.347159147,-8.859425545,3.241676569,9.52957112
20.90867227,-1.323230863,-8.877969742,3.342773199,9.578278515
20.91099076,-1.260419369,-8.929415703,3.410370588,9.641252477
20.91330925,-1.262812138,-9.015557289,3.401397467,9.718254599
20.91562774,-1.237687469,-9.096913338,3.473780155,9.815948814
20.91794628,-1.260419369,-9.159127235,3.569493294,9.910577737
20.92026477,-1.300499082,-9.169296265,3.793222189,10.00778829
20.92258326,-1.276570916,-9.043673515,4.00199604,9.971641603
20.9249018,-1.15094769,-8.958727837,4.155136585,9.942265591
20.92722029,-1.138385415,-8.746963501,4.268197536,9.799122514
20.92953878,-1.17068851,-8.459824562,4.380061626,9.598129144
20.93185727,-1.121037364,-8.141578674,4.31126833,9.280574481
20.93417581,-0.9613165259,-7.825726509,4.110270977,8.891594478
20.9364943,-0.7250252366,-7.465606689,3.790230989,8.403974999
20.93881279,-0.4384847581,-7.142575741,3.30927372,7.884158145
20.94111836,0.01076770201,-6.778268337,2.661417007,7.282044911
20.94344977,0.4671986103,-6.303293228,1.807777524,6.574027657
20.94576831,1.005583763,-5.941378593,0.7890332937,6.077314525
20.94807388,1.514656782,-5.749354839,-0.328414917,5.954588365
20.95040529,1.994417667,-5.523830891,-1.408774376,6.039458153
20.95272378,2.418545485,-5.376672268,-2.441277266,6.381050198
20.9550294,2.587837696,-5.220541,-3.318246841,6.705349684
20.95736081,2.660220623,-5.109274387,-3.790829182,6.895784539
20.9596793,2.630310297,-5.201398373,-3.905086517,7.015894668
20.96198487,2.355135679,-5.33240509,-3.615555048,6.859551474
20.96431633,1.880160451,-5.577669621,-3.059821844,6.633845901
20.96663482,1.405783296,-5.961717606,-2.178664923,6.501144848
20.96895331,0.7932206988,-6.517450809,-1.264606714,6.686224216
20.97127185,0.1381855011,-7.077969551,-0.4169493318,7.091586208
20.97359034,-0.5928218365,-7.622934818,0.2392822653,7.649694698
20.97589591,-1.221535921,-8.126624107,0.6616154313,8.244507527
20.97822732,-1.785643935,-8.668000221,0.7555337548,8.882205996
20.98054586,-2.331805706,-9.031708717,0.4869394004,9.340566909
20.98285143,-2.790629387,-9.36550808,-0.2069791555,9.774619907
20.98518284,-3.031706333,-9.560523033,-1.04685986,10.08418363
20.98750133,-3.008974552,-9.80638504,-1.855633974,10.42413032
20.98980696,-2.818146944,-10.15813065,-2.586043119,10.85436269
20.99213836,-2.389831543,-10.50449181,-3.066402197,11.20082432
20.99445685,-1.89391911,-10.76291656,-3.417548895,11.45019402
20.99676242,-1.28315115,-10.91665554,-3.502494097,11.53634734
20.99909388,-0.5820540786,-10.94776154,-3.423531055,11.48533127
21.00141237,0.2081755698,-10.92921734,-3.240479946,11.40139636
21.00371794,0.965503931,-10.78086281,-2.986840963,11.22855377
21.00604935,1.701895118,-10.61396313,-2.595614433,11.05847524
21.00836789,2.35274291,-10.4536438,-2.156531334,10.92999063
21.01067346,2.91804719,-10.35793114,-1.60378933,10.87997597
21.01300487,3.39960289,-10.33101177,-1.003190875,10.9221562
21.01532336,3.681357622,-10.32802105,-0.4336991012,10.97308105
21.01762899,3.839882135,-10.35673428,0.1076770201,11.0461864
21.01996039,3.915256023,-10.47458076,0.6287141442,11.20006042
21.02227888,3.8668015,-10.59482002,1.106680512,11.33256842
21.02458446,3.754338741,-10.79880905,1.497906923,11.53052737
21.02691591,3.64426899,-11.05484104,1.827518344,11.78261559
21.0292344,3.509672642,-11.29292679,2.104487419,12.01153049
21.03153998,3.342175007,-11.49332523,2.300698996,12.18851404
21.03387138,3.117249727,-11.68534946,2.419143677,12.33356778
21.03618992,2.822932482,-11.77388382,2.455634356,12.35408548
21.0384955,2.399402857,-11.76969624,2.375474691,12.24441765
21.0408269,1.880160451,-11.75833035,2.256431818,12.11960479
21.04314539,1.396810174,-11.85224915,2.080559254,12.1142732
21.04545102,0.87517488,-11.89831066,1.880758643,12.07778874
21.04778242,0.3056831062,-11.95035458,1.680957913,12.07186962
21.05010091,-0.242273286,-11.9348011,1.551745534,12.03769446
21.05240649,-0.6843472719,-11.9593277,1.424327731,12.06327317
21.05473794,-1.012762189,-11.94377422,1.31126678,12.05814457
21.05705643,-1.231705427,-11.91984558,1.180858016,12.04135551
21.05936201,-1.328614831,-11.98983574,1.012762189,12.10566255
21.06169346,-1.320239902,-12.10050392,0.8805587292,12.20412276
21.06401196,-1.243071318,-12.30030441,0.8536394835,12.39239345
21.06633044,-1.101296663,-11.87916756,0.8093722463,11.9575315
21.06864893,-0.9122636318,-11.57228851,0.6370890141,11.62565993
21.07096748,-0.6376872063,-11.44606686,0.4145565331,11.4713098
21.07328596,-0.3571287692,-11.51665497,0.2410768867,11.52471261
21.07560446,-0.07357929647,-11.54417324,0.03409772366,11.54445808
21.07792294,0.1465603858,-11.71167088,-0.1112662554,11.71311636
21.08024149,0.3894318938,-12.01914787,-0.2931207716,12.02902708
21.08255998,0.6346961856,-12.05204964,-0.4576273263,12.07742367
21.08487847,0.9218349457,-12.00718403,-0.6556333899,12.06035253
21.08719696,1.173679471,-12.09272766,-0.8721838593,12.18081649
21.0895155,1.387837172,-12.19861031,-1.074377418,12.32422299
21.09183399,1.621735573,-12.32782269,-1.281356573,12.49988452
21.09413956,1.832902193,-12.44387436,-1.579262972,12.6768928
21.09647096,2.047657967,-12.58804131,-1.786242127,12.87797919
21.09878951,2.252244234,-12.68854046,-1.931606054,13.030839
21.10109508,2.423331022,-12.80997562,-2.081755638,13.20233749
21.10342649,2.61415863,-12.95055389,-2.236092806,13.39965606
21.10574498,2.730808735,-13.18804169,-2.362912416,13.67351875
21.10806352,2.833101988,-13.44945812,-2.393420935,13.95144632
21.11038201,2.988037348,-13.67617798,-2.423929453,14.20709841
21.1127005,3.131008387,-13.87418365,-2.387438774,14.42206814
21.11500607,3.276372433,-14.15474224,-2.34137702,14.71643267
21.11733753,3.326621771,-14.47478199,-2.233101845,15.01907021
21.11965602,3.290729284,-14.81157207,-2.006979942,15.30488599
21.12196159,3.246462107,-15.04247952,-1.728814363,15.48562253
21.12429305,3.19382,-15.26919937,-1.489532113,15.670598
21.12661154,3.12921381,-15.43370628,-1.217348576,15.79472084
21.12891711,3.090330362,-15.51087475,-0.8967102766,15.84113211
21.13124852,2.95752883,-15.46541119,-0.5551348329,15.75544651
21.13356706,2.761915445,-15.36850166,-0.3002992272,15.61759264
21.13588555,2.523829699,-15.2536459,-0.0933200866,15.46131101
21.13820404,2.25703001,-15.12443352,0.0568295382,15.2920209
21.14052258,1.957328916,-15.02573013,0.2632105052,15.1549656
21.14282815,1.572084427,-14.9718914,0.4642075896,15.06135686
21.14515956,1.184447169,-14.97129345,0.6179464459,15.03078176
21.14747805,0.7836494446,-14.98505211,0.7531409264,15.02441727
21.14978362,0.4630111754,-14.99282837,0.8548358679,15.0243145
21.15211508,0.1878365725,-15.05683613,0.8817551732,15.0838022
21.15443357,0.06101697683,-15.12204075,0.8428717852,15.14563542
21.15673914,0.06819544733,-15.18006706,0.7573283911,15.19909974
21.1590706,0.1423729509,-15.27936935,0.6873382926,15.29548403
21.16138909,0.2165504545,-15.34517193,0.6125625968,15.35892016
21.16370758,0.3864408433,-15.43250942,0.5383850932,15.44673241
21.16602607,0.4971089065,-15.44925976,0.4438686073,15.46362712
21.16834461,0.5545366406,-15.43849182,0.3349951804,15.45207955
21.1706631,0.6011967063,-15.3607254,0.2440679073,15.37442329
21.17298159,0.5814558864,-15.15015697,0.1992024779,15.16261946
21.17530013,0.4977070987,-14.68056488,0.262014091,14.69133585
21.17761862,0.4594219327,-14.04287815,0.5431707501,14.06088652
21.17993711,0.3990031779,-13.39561939,0.628115952,13.41627191
21.1822556,0.2859423161,-12.99063396,0.3385843933,12.99819115
21.18456123,0.1974078715,-12.80519009,0.05503492057,12.80682989
21.18689263,0.1357926875,-12.79741383,-0.02213360928,12.79815339
21.18921112,0.0143569354,-12.86261845,-0.08973085135,12.86293944
21.19152961,-0.09750752151,-12.94277763,-0.171086818,12.94427562
21.19384815,-0.2338984162,-12.84945774,-0.08255238086,12.85185152
21.19616664,-0.3355933726,-12.5246315,0.2195414752,12.53105006
21.19847222,-0.3649054468,-12.26560879,0.7136593461,12.2917706
21.20080367,-0.3930211067,-12.06341553,1.184447169,12.12779349
21.20312216,-0.498903513,-11.84925747,1.677966833,11.97787043
21.20542774,-0.6646065116,-11.67398357,2.204986095,11.89897298
21.20775914,-0.9146564603,-11.57348537,2.745165825,11.92971481
21.21007768,-1.162911773,-11.53938675,3.267399311,12.04930324
21.21238326,-1.394417405,-11.59681511,3.77647233,12.27567773
21.21471466,-1.576271892,-11.72064304,4.223930359,12.55785388
21.2170332,-1.791625977,-12.14297676,4.497310162,13.07239867
21.21933878,-1.959721804,-12.80459213,4.438685894,13.69306473
21.22167018,-2.067398787,-13.25922871,4.503292084,14.15489043
21.22398867,-2.167299032,-13.65942764,4.562514782,14.56343674
21.2262943,-2.240280151,-13.94955826,4.506881237,14.82973396
21.22862571,-2.365305185,-14.20319748,4.239483356,15.00995358
21.23094419,-2.45383954,-14.52742481,3.850649834,15.22809589
21.23324977,-2.574677229,-14.8337059,3.288336515,15.41041695
21.23558123,-2.672184706,-15.12563038,2.593819857,15.57732862
21.23789972,-2.74396944,-15.42652798,1.84606266,15.77704285
21.24020529,-2.846262455,-15.67538071,1.107876897,15.97016473
21.24253675,-3.008974552,-15.80040646,0.3535395563,16.0882492
21.24485524,-3.160918713,-15.92543125,-0.5054838061,16.24396139
21.24716081,-3.236292601,-16.04866219,-1.378265858,16.42963069
21.24949222,-3.231507063,-16.21316719,-2.121237278,16.66760558
21.25181076,-3.256033421,-16.4656105,-2.959323406,17.04334703
21.25411633,-3.296113253,-16.68395615,-3.826123476,17.43152248
21.25644774,-3.333201885,-16.8161602,-4.70787859,17.77800888
21.25876628,-3.396611691,-16.88136292,-5.537590027,18.0881809
21.26107185,-3.497110367,-16.8035965,-6.340980053,18.29750432
21.26340326,-3.630510092,-16.8035965,-7.009773731,18.56551606
21.26572175,-3.798007727,-16.79402542,-7.593024254,18.81802779
21.26802737,-4.025924206,-16.68993759,-8.106883049,18.98640659
21.27035878,-4.269991875,-16.552351,-8.453244209,19.07014661
21.27267727,-4.522434711,-16.48176193,-8.718249321,19.18616072
21.27498284,-4.802993298,-16.5026989,-8.715856552,19.27106564
21.2773143,-5.062016487,-16.51346779,-8.555537224,19.27474634
21.27963279,-5.333003521,-16.44228172,-8.301300049,19.17553486
21.28193836,-5.55493784,-16.30768394,-7.759923935,18.89482229
21.28426982,-5.783452511,-16.19103432,-7.038487911,18.5778962
21.28658831,-6.043671608,-15.98884106,-6.192625046,18.18014328
21.28889388,-6.248856544,-15.87697601,-5.303092957,17.86755077
21.29122529,-6.535397053,-15.74776363,-4.476373196,17.62785838
21.29354383,-6.788437843,-15.6801672,-3.439682484,17.42934156
21.2958494,-7.054041386,-15.6556406,-2.488535643,17.35083261
21.29818081,-7.36151886,-15.64726543,-1.661217093,17.37206141
21.30049935,-7.578667641,-15.62154293,-0.8183453679,17.38213151
21.30280492,-7.660621643,-15.63171196,-0.08015955985,17.40810065
21.30513633,-7.67138958,-15.59761429,0.5395814776,17.39042661
21.30745482,-7.60319376,-15.58086491,0.9595218897,17.36354194
21.30976044,-7.441080093,-15.4612236,1.103689432,17.19410476
21.31209185,-7.195217609,-15.22493267,1.228116274,16.88425304
21.31441034,-6.828517437,-15.00479221,1.196411371,16.52887897
21.31671591,-6.416353703,-14.65902996,1.030110121,16.03489573
21.31904737,-6.033502102,-14.27139282,0.7926225066,15.5146399
21.32136586,-5.65304327,-13.89332676,0.3068794906,15.00251984
21.32367143,-5.257629395,-13.54397392,-0.2027917206,14.53007299
21.32600289,-4.816751957,-13.26580906,-0.7208378315,14.13160984
21.32832138,-4.369294167,-13.10728455,-1.113858938,13.86118038
21.33062696,-3.925425529,-13.03968716,-1.411167145,13.69064642
21.33295836,-3.481556892,-13.01037502,-1.50269258,13.55172246
21.3352769,-3.052643538,-12.94217968,-1.070189953,13.34031311
21.33758248,-2.605783939,-12.93978691,-0.2458625287,13.20184243
21.33991393,-2.334796667,-12.87876987,0.2380858511,13.09086223
21.34223242,-2.094317913,-12.91705513,0.107078813,13.08617387
21.344538,-1.985444546,-12.95833111,-0.2452643216,13.1118454
21.3468694,-1.975873351,-12.93440247,-0.3260220885,13.08851149
21.34918794,-2.003390789,-12.80519009,-0.3128615618,12.96473487
21.35149352,-2.079362869,-12.6245327,-0.3535395563,12.79951429
21.35382492,-2.240280151,-12.47019482,-0.4223332107,12.67686788
21.35614341,-2.268994093,-12.45165062,-0.456430912,12.66492268
21.35846196,-2.183450699,-12.18963718,-0.07597211748,12.38387998
21.36078044,-1.942971945,-11.91864967,0.6209374666,12.09193588
21.36309893,-1.509871125,-11.72423267,1.33399868,11.89608739
21.36540451,-0.9786644578,-11.47059345,2.061416626,11.69537245
21.36773596,-0.4025924206,-11.21575832,2.575873613,11.51479224
21.37005446,0.08494520187,-11.23310566,2.503490686,11.50901143
21.37236003,0.5018945336,-11.20499039,2.1302104,11.41672037
21.37469149,0.8446664214,-11.14995575,1.5224334,11.28506881
21.37700998,1.180858016,-11.05723381,0.8566305041,11.15305613
21.37931555,1.575075507,-10.96271706,0.1728814393,11.0766383
21.38164701,1.904686809,-10.78804111,-0.4127618968,10.96266552
21.3839655,2.205584288,-10.60379314,-1.112064362,10.88768654
21.38627107,2.50169611,-10.42552853,-1.792822361,10.87034224
21.38860248,2.84805727,-10.19282627,-2.355135679,10.84213086
21.39092102,2.997010469,-9.882955551,-2.803789854,10.70122048
21.39322659,3.092125177,-9.545567513,-3.311068296,10.5660906
21.395558,3.114258766,-9.128020287,-3.857828379,10.38759846
21.39787654,3.030509949,-8.573483467,-4.177269936,10.00690729
21.40018211,2.983849764,-8.008178711,-4.35852623,9.593280804
21.40251352,2.951546669,-7.466803074,-4.505684853,9.206843752
21.40483201,2.958725214,-6.957131863,-4.585844517,8.842268294
21.40713763,2.685345173,-6.488736629,-4.825725079,8.520704447
21.40946904,2.410768747,-6.014957905,-4.812564373,8.071697491
21.41178753,2.469393015,-5.614160061,-4.494917393,7.604010614
21.4140931,2.443071842,-5.495117188,-4.572684288,7.554757079
21.41642456,2.193022013,-5.352744102,-4.804787636,7.519787178
21.41874305,1.892124534,-5.076971531,-5.018945694,7.385498701
21.42104862,1.605584025,-4.761118889,-4.909473896,7.024890538
21.42338008,1.454237938,-4.505086899,-4.664807796,6.646130282
21.42569857,1.308275819,-4.229912281,-4.563112736,6.358124044
21.42800414,1.090528965,-3.932604074,-4.552345276,6.113793891
21.4303356,0.9110672474,-3.638885021,-4.560719967,5.90522602
21.43265409,0.7962117195,-3.44446826,-4.520640373,5.738859127
21.43495966,0.685543716,-3.288336515,-4.41296339,5.545933024
21.43729112,0.6484549642,-3.131008387,-4.428516388,5.46218498
21.43960961,0.6592226624,-2.97726965,-4.52482748,5.456443238
21.44191518,0.3254238665,-2.537588358,-4.111467361,4.842460039
21.44424659,0.04007977992,-2.130808592,-3.74536562,4.309259248
21.44656513,-0.1645065546,-1.861017823,-3.482155085,3.95168999
21.4488707,-0.3194418252,-1.652842283,-3.288934708,3.694728976
21.45120211,-0.5012963414,-1.484148264,-3.181855917,3.546575978
21.45352065,-0.7316055298,-1.264008522,-3.152543783,3.47440592
21.45582623,-0.8817551732,-1.041476011,-2.979064226,3.27673437
21.45815763,-0.9409775138,-0.8835497499,-2.6087749,2.910636584
21.46047617,-0.9936196208,-0.7549355626,-2.467000246,2.764651491
21.46278175,-1.096511006,-0.6376872063,-2.483151674,2.78837293
21.46511315,-1.164108157,-0.537786901,-2.660818815,2.953695875
21.46743164,-1.316052437,-0.3547359705,-2.801995277,3.115928298
21.46973727,-1.473380566,-0.1471585929,-2.82831645,3.192472378
21.47206867,-1.65762794,0.08374879509,-2.693720102,3.163996245
21.47438716,-1.835294962,0.2673979402,-2.539382935,3.144562759
21.47669279,-1.974078655,0.4037888348,-2.32701993,3.078157519
21.47902419,-2.160120726,0.5724828243,-2.219342947,3.149498571
21.48134268,-2.303689957,0.7136593461,-2.050050735,3.165281203
21.48364831,-2.421536446,0.7878368497,-1.870589137,3.159688177
21.48597972,-2.542374134,0.8045865893,-1.724028707,3.175421358
21.48829821,-2.604587555,0.7794619799,-1.590628862,3.149847216
21.49061669,-2.672184706,0.7351947427,-1.405185103,3.107350573
21.49293524,-2.74396944,0.6951149702,-1.224527001,3.084156204
21.49525373,-2.787638426,0.665802896,-1.085743308,3.064809949
21.49757222,-2.809772015,0.5886343718,-0.980459094,3.033580266
21.49989076,-2.815155745,0.5449653864,-0.793818891,2.975271008
21.50220925,-2.800200701,0.4833501875,-0.6358926296,2.911891276
21.50452774,-2.694318295,0.3756731451,-0.4582255483,2.758704775
21.50684628,-2.598605394,0.3206382394,-0.2183450609,2.62740051
21.50916477,-2.513062,0.1878365725,-0.3266202807,2.541150134
21.51148326,-2.39760828,-0.01076770201,-0.4432703853,2.438263735
21.5138018,-2.243271112,-0.2380858511,-0.4827519655,2.30694595
21.51612029,-2.047059774,-0.4827519655,-0.4414757788,2.149047241
21.51843878,-1.814357758,-0.813559711,-0.394217521,2.027111474
21.52075727,-1.651047587,-1.092921734,-0.2715853751,1.99854814
21.52307581,-1.524826288,-1.377667665,-0.08673982322,2.056839129
21.5253943,-1.463809252,-1.572682738,0.04905286431,2.149063681
21.52771279,-1.344766378,-1.7670995,0.1136590764,2.223500762
21.53003133,-1.282552958,-1.981855392,0.2111666054,2.370081058
21.5323369,-1.268195987,-2.21156621,0.3128615618,2.56850706
21.53466831,-1.293320656,-2.408375978,0.524028182,2.783443678
21.53698685,-1.399203062,-2.588435888,0.6675975323,3.017193401
21.53929242,-1.526022673,-2.720639229,0.8769695163,3.240323833
21.54162383,-1.670190215,-2.810370207,1.229910851,3.492906634
21.54394237,-1.899901152,-2.920439959,1.652842283,3.856226336
21.54624794,-2.139781713,-2.982653379,2.094317913,4.226234078
21.54857935,-2.414956331,-3.055634499,2.732005358,4.757391044
21.55089784,-2.727817774,-3.181257725,3.455235958,5.431394484
21.55320347,-3.080160856,-3.312862873,4.445864677,6.342567623
21.55553487,-3.448057413,-3.467798233,5.697908878,7.508720936
21.55785336,-3.79621315,-3.574278831,7.193423271,8.884370648
21.56015899,-4.216751575,-3.691527128,8.868997574,10.49130518
21.56249039,-4.712066174,-3.867399693,10.63131142,12.2550043
21.56480888,-5.25942421,-4.051048756,12.26381397,13.94538175
21.56711446,-5.863611698,-4.317250252,13.59183121,15.41941852
21.56944591,-6.544968128,-4.62891531,14.48913956,16.5589441
21.5717644,-7.202396393,-4.97527647,14.84866047,17.23689669
21.57407003,-7.710272789,-5.2707901,14.97966766,17.6527612
21.57640143,-8.289336205,-5.678168297,14.71526146,17.81835037
21.57871992,-8.67816925,-6.211767673,14.39103317,17.91643142
21.5810255,-9.061619759,-6.768697262,14.0057888,18.00250914
21.58335696,-9.355338097,-7.256234646,13.59661674,18.02895668
21.58567544,-9.471988678,-7.639086246,13.28315639,18.01434018
21.58798102,-9.393623352,-7.998009682,12.95773315,17.89165076
21.59031248,-9.127422333,-8.319246292,12.39003563,17.49378976
21.59263096,-8.69551754,-8.729017258,11.54297638,16.8833667
21.59493654,-8.355138779,-9.313464165,10.25264645,16.17608475
21.597268,-8.011768341,-10.11924744,9.340981483,15.93240521
21.59958649,-7.449455261,-11.14875889,9.129216194,16.2213377
21.60189206,-6.905087948,-12.1537447,9.370293617,16.82843285
21.60422352,-6.384050846,-13.20718479,9.687342644,17.57926173
21.60654201,-5.950351715,-14.16192055,9.941579819,18.29758696
21.60884758,-5.635097504,-14.87438393,9.744172096,18.65343161
21.61117904,-5.437091351,-15.19322777,9.271589279,18.61070929
21.61349753,-5.077569485,-15.47857189,8.766105652,18.49898667
21.6158031,-4.788038254,-15.45284843,8.353941917,18.20725626
21.61813456,-4.636692047,-15.12323761,8.004590034,17.72807634
21.62045305,-4.467400074,-14.72602844,7.616354465,17.17039407
21.62275862,-4.356731892,-14.13380527,7.350750923,16.51602566
21.62509003,-4.296313286,-13.45065403,7.046264648,15.78062886
21.62740857,-4.351347923,-12.68854046,6.739983082,15.01201718
21.62971414,-4.354937077,-11.9216404,6.400202274,14.21455507
21.63204555,-4.312464714,-11.22473145,5.980261803,13.42964926
21.63436409,-4.209573269,-10.52602673,5.761917114,12.716817
21.63666966,-4.025325775,-9.850054741,5.538786411,11.99604022
21.63900107,-3.938585997,-9.224330902,5.191228867,11.29378579
21.64131961,-3.944568157,-8.571688652,4.991427898,10.67463427
21.64362518,-3.988237143,-7.934001446,4.800002098,10.09427732
21.64595659,-3.865604877,-7.470990658,4.683351994,9.627688631
21.64827513,-3.814159393,-7.070790768,4.657031059,9.28610964
21.65058071,-3.836891174,-6.796812534,4.864608288,9.19689123
21.65291211,-3.89730978,-6.62991333,5.273182869,9.32476444
21.6552306,-4.037290096,-6.488138676,5.65304327,9.505395994
21.65753623,-4.368097782,-6.332605362,5.958726406,9.730806199
21.65986763,-4.814359188,-6.284748554,6.163911343,10.03344018
21.66218612,-5.376672268,-6.2841506,6.025725842,10.23271838
21.66449175,-5.933601856,-6.225526333,5.776872158,10.36036008
21.66682315,-6.589235306,-6.227321148,5.384449005,10.54465939
21.66914164,-7.120441914,-6.225526333,5.055436134,10.7245189
21.67144727,-7.354938507,-6.279963017,4.648656368,10.73047352
21.67377867,-7.261618614,-6.427719593,4.144967079,10.54644187
21.67609716,-6.809374809,-6.668198586,3.349353552,10.10201103
21.67840279,-6.275775433,-7.027122021,2.134995937,9.66043523
21.68073419,-5.69611454,-7.319046497,1.016351461,9.329905293
21.68305268,-5.084149837,-7.853243828,0.1154536903,9.356032693
21.68535826,-4.707280159,-8.431110382,-0.3068794906,9.66107053
21.68768972,-4.648656368,-9.06341362,-0.2398804724,10.18886721
21.6900082,-4.680959225,-9.65444088,0.3511467278,10.73512515
21.69231378,-5.172086239,-10.28794098,1.210170031,11.57828645
21.69464524,-5.792425632,-11.06979561,2.059023857,12.66223317
21.69696373,-6.749554634,-11.63749313,3.052045345,13.79502501
21.69926935,-7.745566845,-12.09571838,4.491926193,15.04917306
21.70160076,-8.611768723,-12.48754311,6.104090691,16.35118395
21.70391925,-9.341579437,-12.87099266,8.013563156,17.80855842
21.70622482,-9.832108498,-13.2777729,9.848259926,19.23428799
21.70855628,-9.693324089,-13.76172161,11.37009525,20.31316272
21.71087477,-9.039485931,-14.29651737,12.48694515,21.02442661
21.71318034,-8.385048866,-14.63091373,12.82373428,21.18539219
21.7155118,-7.810173035,-14.89233017,12.19621658,20.77325202
21.71783029,-7.373483181,-15.12921906,10.81854916,20.0075618
21.72013586,-7.004988194,-15.27398491,8.81456089,18.97527228
21.72246732,-6.703492641,-15.30030632,6.336792469,17.8659208
21.72478581,-6.407381058,-15.01914978,3.470789194,16.69358469
21.72709138,-6.150750637,-14.47119331,0.5688936114,15.73438303
21.72942284,-5.919245243,-13.634902,-1.849053741,14.97888569
21.73174133,-5.816951752,-12.57906818,-3.778266907,14.36472015
21.7340469,-5.804987907,-11.41854954,-4.945366383,13.73090699
21.73637836,-5.880959988,-10.32682419,-5.52622366,13.10603434
21.73869685,-6.062814236,-9.38465023,-5.630311489,12.51118635
21.74100242,-6.350551128,-8.459824562,-5.420341492,11.88605204
21.74333388,-6.403193474,-7.110272408,-5.006382942,10.79910786
21.74565237,-6.172286034,-6.245266914,-4.547559261,9.888415897
21.74795794,-5.782256126,-5.730810165,-4.175475597,9.149386183
21.7502894,-5.354538918,-5.431707382,-3.806980848,8.524531382
21.75260789,-4.917250633,-5.315655708,-3.451048374,8.021551239
21.75491346,-4.50269413,-5.213960648,-3.023331404,7.523308636
21.75724487,-4.237689018,-5.153541565,-2.401795626,7.091235513
21.75956341,-4.130012035,-5.096712112,-1.689931035,6.774167157
21.76186899,-4.019941807,-5.126622677,-1.097109199,6.60649989
21.76420039,-3.953541279,-5.249254704,-0.6095715761,6.599753108
21.76651893,-3.800400496,-5.56630373,-0.2338984162,6.743996561
21.76882451,-3.64426899,-5.941378593,0.02811566554,6.970040642
21.77115591,-3.413361549,-6.239284992,0.09930214286,7.112634898
21.77347446,-3.035893679,-6.479763508,0.2237289101,7.159192704
21.77578003,-2.525026083,-6.823133945,0.1351944804,7.276619483
21.77811143,-1.962114573,-7.266404152,-0.2338984162,7.530287602
21.78042998,-1.308275819,-7.804789066,-0.8967102766,7.964320894
21.78273555,-0.6000002623,-8.231309891,-1.669592023,8.420332556
21.78506696,0.1674975902,-8.676374435,-2.508874655,9.033381472
21.7873855,0.917647481,-9.010771751,-3.352942705,9.658069644
21.78969107,1.658824325,-9.253643036,-4.060619831,10.24061722
21.79202248,2.505883455,-9.864411354,-4.759324074,11.23553421
21.79434102,3.260818958,-10.60140038,-5.462814331,12.36385743
21.79664659,3.975076675,-11.3449707,-5.93778944,13.40771935
21.798978,4.597210407,-12.06102276,-6.208776474,14.32311135
21.80129654,5.085346222,-12.61615753,-6.448058605,15.05342608
21.80360211,5.475376606,-13.05404377,-6.598806858,15.61832448
21.80593352,5.742774487,-13.40339565,-6.746563435,16.06694097
21.80825206,5.956333637,-13.7294178,-6.747161865,16.41642521
21.81055763,6.072983742,-14.00997639,-6.70588541,16.67721407
21.81288904,6.12921524,-14.34556961,-6.66939497,16.96595049
21.81520758,6.006583214,-14.57886982,-6.673582554,17.12189216
21.81751315,5.904289722,-14.72483253,-6.521039963,17.15241361
21.81984456,5.862415314,-14.88335705,-6.086144447,17.11500466
21.82216305,5.781059742,-15.03290844,-5.599205017,17.05168862
21.82446867,5.612963676,-15.14178181,-5.094319344,16.93313341
21.82680008,5.542973518,-15.2291193,-4.350151539,16.78018023
21.82911862,5.474778175,-15.2291193,-3.559323788,16.57009525
21.83142419,5.327021599,-15.26979733,-2.849253654,16.42139202
21.8337556,5.124827862,-15.19203091,-2.292922258,16.19626982
21.83607409,4.715056896,-14.95035553,-1.902892232,15.79132328
21.83837972,4.307679176,-14.71526146,-1.807777524,15.4390116
21.84071112,3.950550079,-14.40658665,-1.761117458,15.04187885
21.84302961,3.635295868,-14.0057888,-1.819143414,14.58378479
21.84533524,3.372085333,-13.60379505,-1.847857237,14.13678803
21.84766664,3.111865759,-13.22632694,-2.115255117,13.75113585
21.84998513,2.779861689,-12.83569908,-2.450848579,13.35999479
21.85229076,2.519043922,-12.46780205,-2.703291416,13.00382462
21.85462216,2.248655081,-11.95095253,-2.743371248,12.46626656
21.85694071,1.956132531,-11.51605701,-2.734398127,11.99678944
21.85924628,1.636690736,-11.04287624,-2.540579557,11.44894828
21.86157768,1.323829174,-10.66062355,-2.273779631,10.98050509
21.86389617,1.026520967,-10.30708313,-1.969292998,10.54361526
21.8662018,0.8261220455,-10.08036327,-1.485942841,10.22273092
21.86853321,0.626919508,-9.920642853,-1.016351461,9.992254649
21.87085169,0.4121637046,-9.689735413,-0.5766702294,9.71562658
21.87315732,0.3361915946,-9.479166985,-0.05862415582,9.485308024
21.87548873,0.2829512656,-9.416953087,0.3792623878,9.428833799
21.87780722,0.2650051117,-9.359525681,0.6837490797,9.388208641
21.88011284,0.237487644,-9.339784622,1.070189953,9.403897262
21.88244425,0.1405783296,-9.346963882,1.288534999,9.436409197
21.88476274,0.102293171,-9.395418167,1.450648785,9.507298687
21.88706836,-0.01136590727,-9.450452805,1.554736495,9.577494086
21.88939977,-0.09152546525,-9.533603668,1.716850281,9.687391326
21.89171826,-0.1627119333,-9.732806206,1.765304923,9.892941589
21.89402388,-0.2817548811,-9.936794281,1.818545222,10.1057594
21.89635529,-0.3774677813,-10.11206818,1.813759565,10.28037589
21.89867378,-0.4486542344,-10.24367332,1.556531072,10.37096537
21.90099232,-0.6167500615,-10.47876835,1.271187067,10.57359368
21.90331081,-0.7674978375,-10.67019463,1.051047325,10.74927006
21.9056293,-1.014556766,-10.85862923,0.9499505758,10.94721701
21.90794784,-1.228714466,-10.9746809,0.7154539824,11.06640115
21.91026633,-1.432104349,-10.97527885,0.4803591371,11.07873701
21.91258482,-1.764706731,-10.87238789,0.4905286431,11.02558962
21.91489044,-1.897508383,-10.8424778,0.3415754437,11.01256267
21.91722185,-1.857428551,-10.861022,0.1848455518,11.02025442
21.91954034,-1.782652855,-10.89811039,-0.1393819153,11.04382581
21.92185888,-1.496710539,-10.96391296,-0.4743770957,11.07576469
21.92417737,-1.013360381,-10.90528965,-0.8428717852,10.98465632
21.92649586,-0.7788637877,-10.77488041,-0.8368897438,10.8353616
21.9288144,-0.5198407173,-10.78325558,-0.9822536707,10.84037165
21.93113289,-0.3756731451,-10.59721375,-1.077368379,10.65846106
21.93345138,-0.2273181528,-10.2723875,-1.016949654,10.32510558
21.93576992,-0.0765703246,-9.803394318,-1.090528965,9.864160207
21.93808841,-0.01734796353,-9.268598557,-1.289731383,9.357917888
21.9404069,-0.07956135273,-8.69910717,-1.318445325,8.798812058
21.94271253,-0.03349951655,-8.197212219,-0.9822536707,8.255921067
21.94504393,0.02512463741,-7.64327383,-0.5569294691,7.663578572
21.94736242,-0.1585244983,-7.099504948,-0.262014091,7.106106663
21.94966805,-0.1495514214,-6.781857491,0.03170489892,6.783580312
21.95199946,0.06340979785,-6.622735023,0.290129751,6.629390264
21.95431794,0.1561316848,-6.423532486,0.546759963,6.448650491
21.95662352,0.1202393398,-6.15433979,0.6305087805,6.187721477
21.95895498,0.08075776696,-5.88694191,0.4755735099,5.906672247
21.96127346,0.08015955985,-5.618347645,0.2685943544,5.625335434
21.96357904,0.102293171,-5.310869694,0.09032905847,5.312622717
21.9659105,0.1220339537,-5.11884594,-0.01136590727,5.120313001
21.96822899,0.1088734269,-4.917250633,-0.2039881349,4.922684062
21.97053461,0.01375873014,-4.886143684,-0.3577269912,4.899240554
21.97286602,-0.1531406492,-5.039284706,-0.4582255483,5.06239203
21.97518451,-0.3188436031,-5.048855782,-0.5838487148,5.092493031
21.97750305,-0.4289134443,-5.05124855,-0.613160789,5.106372961
21.97982154,-0.4253242314,-5.171487808,-0.6215356588,5.226039937
21.98214003,-0.394815743,-5.438885689,-0.5383850932,5.479709437
21.98445857,-0.337387979,-5.408975601,-0.6478567123,5.458073472
21.98677706,-0.2650051117,-5.196612358,-0.8536394835,5.272922157
21.98909555,-0.1322034448,-5.160121918,-0.9002995491,5.239739997
21.99141409,-0.008374879137,-5.387440205,-0.7357929349,5.437460192
21.99373258,0.02751746029,-5.764907837,-0.4510470629,5.782591377
21.99605107,0.01016949583,-6.279364586,-0.17587246,6.281835253
21.99836961,-0.0185443759,-6.692126751,0.05623133108,6.692388685
22.0006881,-0.1441675574,-7.083353043,0.3296113312,7.092483221
22.00300659,-0.2973082066,-7.350750923,0.6927221417,7.389302759
22.00532513,-0.4319044948,-7.439883709,1.021137118,7.522043081
22.00764362,-0.628115952,-7.496713161,1.335195065,7.640548654
22.00996211,-0.7621139884,-7.557132244,1.596610904,7.761458102
22.01226774,-0.8368897438,-7.659425259,1.715653777,7.89370937
22.01459914,-0.8865407705,-7.785048485,1.783251047,8.035727643
22.01691763,-0.9092726111,-7.833503246,1.816750646,8.092659186
22.01923617,-0.9074779749,-7.915457249,1.826920033,8.174082
22.02155466,-0.9050851464,-8.001599312,1.803590059,8.252133528
22.02387315,-0.8871390224,-8.102097511,1.685145378,8.32290302
22.02619169,-0.8171489239,-8.201399803,1.596012712,8.395114512
22.02851018,-0.7064808607,-8.35274601,1.411765337,8.5006213
22.03082867,-0.6634100676,-8.46819973,1.160519004,8.573058027
22.03314722,-0.5910272002,-8.620741844,0.8805587292,8.685728914
22.0354657,-0.5144568682,-8.743971825,0.6628118753,8.784135058
22.03778419,-0.4217349887,-8.929415703,0.4121637046,8.94886608
22.04010274,-0.304486692,-9.119047165,0.1908276081,9.126124507
22.04242123,-0.1830509305,-9.32303524,-0.08853443712,9.325252387
22.04473972,-0.0652044192,-9.513264656,-0.4534398913,9.524288098
22.04704534,0.04426721856,-9.574281693,-0.8620143533,9.613110748
22.04937675,0.1746760458,-9.663414001,-1.34237349,9.757768622
22.05169524,0.2506481707,-9.724431038,-1.713261008,9.877380564
22.05400086,0.342771858,-9.751350403,-1.87417829,9.935737088
22.05633227,0.3451646566,-9.693324089,-1.731805444,9.8528585
22.05865076,0.2961117923,-9.574281693,-1.360917926,9.675052957
22.0609693,0.2536391914,-9.506684303,-0.9894321561,9.561399232
22.06328779,0.1740778536,-9.531808853,-0.546759963,9.54906433
22.06560633,0.03170489892,-9.664610863,-0.1609173268,9.666002416
22.06792482,-0.06699903309,-9.886545181,0.3601198196,9.893328599
22.07024331,-0.1692921966,-10.13779163,0.8997012973,10.17904423
22.0725618,-0.2937189937,-10.47577763,1.435693622,10.57777878
22.07486742,-0.4833501875,-10.85444164,1.899302959,11.02995388
22.07719883,-0.6885347366,-11.30010509,2.17806673,11.52867859
22.07951737,-0.9032905698,-11.66979599,2.240878344,11.91728191
22.08182294,-1.080359459,-11.9724884,2.117049932,12.20612779
22.08415435,-1.111466169,-12.19442272,1.898704767,12.39130269
22.08647289,-1.053440213,-12.32303619,1.623530149,12.47408544
22.08877846,-0.8656035662,-12.30030441,1.344168067,12.40377144
22.09110987,-0.6119644046,-12.10229874,1.163509965,12.17349131
22.09342841,-0.2847459018,-11.77747345,1.015753269,11.82462328
22.0957469,0.1776670814,-11.41137123,0.9840483069,11.45509974
22.09806539,0.6400800347,-11.03569794,1.004387259,11.09978041
22.10038393,1.164706469,-10.66839981,1.044467092,10.78249541
22.10268951,1.728814363,-10.35673428,1.037288666,10.55114741
22.10502091,2.313859463,-10.07916737,0.9308080077,10.38315771
22.10733946,2.904886723,-9.83509922,0.8057830334,10.28673077
22.10964503,3.465405464,-9.678369522,0.5952146053,10.29728858
22.11197643,3.934996843,-9.518648148,0.3738785386,10.30672828
22.11429498,4.371088982,-9.335597992,0.1477568001,10.30929876
22.11660055,4.686941147,-9.136993408,-0.03708875179,10.26905261
22.11893196,4.920839787,-8.939585686,-0.1369891018,10.20537223
22.1212505,5.074578762,-8.772686005,-0.1992024779,10.13661931
22.12355607,5.09073019,-8.657232285,-0.195015043,10.04496071
22.12588748,5.020740032,-8.567501068,-0.1387837082,9.931221775
22.12820602,4.842474937,-8.519046783,-0.04486542568,9.799272143
22.13052451,4.560719967,-8.52981472,0.08614161611,9.672917148
22.132843,4.179064751,-8.577073097,0.2452643216,9.544156311
22.13516154,3.748954773,-8.629714966,0.509073019,9.42262159
22.13748003,3.209373474,-8.704490662,0.8428717852,9.31550689
22.13979852,2.645863533,-8.807980537,1.230509043,9.278753552
22.14211706,2.112264156,-8.930612564,1.545763373,9.30628202
22.14442263,1.636690736,-9.089735031,1.881356835,9.425579189
22.14675409,1.269392371,-9.347561836,2.123031855,9.669308844
22.14907258,1.009771109,-9.675378799,2.248056889,9.984305303
22.15137815,0.8721838593,-10.06780148,2.273181438,10.35802515
22.15370961,0.793818891,-10.50150013,2.199602127,10.75871288
22.1560281,0.8057830334,-10.88614655,1.948953986,11.0885479
22.15833367,0.7926225066,-11.20379353,1.612762451,11.34699266
22.16066508,0.8356932998,-11.46281719,1.224527001,11.55828827
22.16298362,0.9260223508,-11.71107197,0.8446664214,11.77795336
22.16528919,1.03549397,-11.94975662,0.5186443329,12.00574542
22.16762065,1.115653515,-12.19322586,0.1920240223,12.24566506
22.16993914,1.208973646,-12.40259838,-0.06759724021,12.46156624
22.17224472,1.307677627,-12.47737408,-0.2578266263,12.54836082
22.17457617,1.374078393,-12.55334568,-0.5521438122,12.64038931
22.17689466,1.43808639,-12.53779221,-0.8805587292,12.6506802
22.17920024,1.533799291,-12.46899891,-1.176072359,12.61790871
22.18153169,1.552343726,-12.35414314,-1.444068432,12.53475
22.18385018,1.617548108,-12.22313595,-1.668395638,12.44206809
22.18615576,1.638485312,-12.0598259,-1.850848317,12.31055134
22.18848722,1.586441398,-11.85045433,-2.01475668,12.12473953
22.19080571,1.500299811,-11.61176968,-2.146361828,11.90340135
22.19311128,1.35074842,-11.34197903,-2.21156621,11.63426124
22.19544274,1.193420291,-11.15354443,-2.24267292,11.43920395
22.19776123,0.9966106415,-10.93280697,-2.174477577,11.19141875
22.20007977,0.7806583643,-10.7359972,-2.087139606,10.96481715
22.20239826,0.5048855543,-10.61216831,-1.999801517,10.81074613
22.20471675,0.2135594189,-10.4793663,-1.822134495,10.63874522
22.20703529,-0.07118647546,-10.39442158,-1.610967875,10.51875872
22.20935378,-0.3565305769,-10.33819008,-1.32801652,10.42923372
22.21167227,-0.6155536175,-10.39143085,-1.048056364,10.46227335
22.21397789,-0.8255237937,-10.46321487,-0.7585247755,10.52310386
22.2163093,-0.9499505758,-10.55653572,-0.4157529473,10.60734194
22.21862779,-1.043270707,-10.717453,-0.0765703246,10.76838315
22.22093341,-1.078564763,-10.91904831,0.2303091735,10.97460524
22.22326482,-1.123430252,-11.12124157,0.5126622319,11.18959035
22.22558331,-1.100698471,-11.35573769,0.7860422134,11.43600358
22.22788893,-1.065404296,-11.67577839,1.02711916,11.76919118
22.23022034,-0.9517452121,-12.08136177,1.246062398,12.18268413
22.23253883,-0.8105686903,-12.60598755,1.389631748,12.70822647
22.23484446,-0.6197410822,-13.17308712,1.43808639,13.26583566
22.23717586,-0.4121637046,-13.7730875,1.411167145,13.85132524
22.23949435,-0.1728814393,-14.33958817,1.307677627,14.40012839
22.24179998,-0.001794616925,-14.8205452,1.193420291,14.86851758
22.24413138,0.1668993831,-15.2351017,1.121635556,15.27724601
22.24644992,0.3050848842,-15.59163189,1.073180914,15.63149958
22.2487555,0.499501735,-15.90868092,1.03848505,15.95036306
22.2510869,0.7549355626,-16.15753555,0.9661021233,16.20398828
22.25340544,0.9786644578,-16.28256035,0.8404789567,16.33358382
22.25571102,1.217348576,-16.25264931,0.6897311211,16.31276421
22.25804242,1.505085468,-16.13061523,0.6580262184,16.21403801
22.26036096,1.826920033,-15.83988762,0.6017948985,15.95624748
22.26266654,2.214557409,-15.5042944,0.6215356588,15.67398213
22.26499794,2.547159672,-15.08315754,0.6119644046,15.30895699
22.26731649,2.804388046,-14.54895973,0.6532405615,14.83116802
22.26962206,3.081955671,-14.0434761,0.7854440212,14.39911783
22.27195347,3.340978622,-13.60917854,0.9230313301,14.04364147
22.27427201,3.525225878,-13.22991657,1.103689432,13.73593973
22.27657758,3.698107481,-12.94756317,1.255633712,13.52375713
22.27890904,3.840480328,-12.76570892,1.307677627,13.39487343
22.28122753,4.006183147,-12.70409393,1.265803218,13.38079833
22.2835331,4.159324169,-12.63829136,1.080957651,13.34896458
22.28586456,4.323232174,-12.64965725,0.8434699774,13.3946111
22.28818305,4.51346159,-12.73220921,0.5976074338,13.52174624
22.29048862,4.731208801,-12.97747326,0.3870390654,13.81842785
22.29282008,4.939982414,-13.24188042,0.1764706671,14.13442482
22.29513857,5.077569485,-13.49791241,-0.06879365444,14.42151461
22.29744414,5.16969347,-13.66421413,-0.3481557071,14.6136132
22.2997756,5.207380295,-13.75035572,-0.5288137794,14.71287654
22.30209409,5.176273346,-13.66481209,-0.5533402562,14.62282738
22.30441263,5.151747227,-13.52064419,-0.3684946895,14.4735658
22.30673112,5.055436134,-13.25384426,0.07716853172,14.18547769
22.30904961,4.861019135,-12.91167068,0.6406782866,13.81127132
22.31136815,4.586442947,-12.62333584,1.241874933,13.48800652
22.31368664,4.228715897,-12.44806194,1.886142492,13.28133343
22.31600513,3.793222189,-12.23151112,2.562713146,13.06008796
22.31831076,3.320041418,-12.05444241,3.282354355,12.92695273
22.32064216,2.753540754,-11.92223835,3.872783422,12.83433697
22.32296065,2.14157629,-11.97906876,4.29691124,12.90534321
22.32526628,1.595414519,-12.15494061,4.503292084,13.06015192
22.32759768,1.11445713,-12.39183044,4.606183529,13.26711736
22.32991617,0.7501499057,-12.6687994,4.619344234,13.50553754
22.3322218,0.4486542344,-12.98883915,4.51406002,13.7581965
22.33455321,0.162113741,-13.26939774,4.317250252,13.95499362
22.33687175,-0.1274178028,-13.74736404,3.903291941,14.29132399
22.33917732,-0.4055834413,-14.25464249,3.318246841,14.64138287
22.34150873,-0.7208378315,-14.58485222,2.602194548,14.83269827
22.34382727,-1.015753269,-14.88634777,1.68574357,15.01588612
22.34613284,-1.247258782,-15.03290844,0.7160521746,15.10154699
22.34846425,-1.439282775,-15.2033968,-0.3577269912,15.27556145
22.35078279,-1.551147223,-15.33739471,-1.516451359,15.49004064
22.35308836,-1.677966833,-15.28953838,-2.567498684,15.59415295
22.35541977,-1.742573142,-15.3607254,-3.769891977,15.91227613
22.35773831,-1.765304923,-15.43968773,-4.856831551,16.28155617
22.36004388,-1.755733609,-15.50848198,-5.858228207,16.67076638
22.36237529,-1.746760488,-15.65384579,-6.538986206,17.05439535
22.36469383,-1.762912035,-15.80878067,-6.976872444,17.36957553
22.3669994,-1.795813441,-15.97747517,-7.119245529,17.58375146
22.36933086,-1.818545222,-16.18445396,-7.141379356,17.78322119
22.37164935,-1.893320918,-16.45065498,-7.054639339,17.99935137
22.37395492,-2.009372711,-16.82752609,-6.842874527,18.27643688
22.37628638,-2.136192322,-17.18525314,-6.540780544,18.51156539
22.37860487,-2.201995134,-17.52264023,-6.099903107,18.68423188
22.38091044,-2.359921217,-17.67398643,-5.565705299,18.67929603
22.3832419,-2.505285263,-17.78644943,-4.889134884,18.61552786
22.38556039,-2.679363251,-17.75534248,-4.132404804,18.42574133
22.38786597,-2.868396044,-17.59980965,-3.071187973,18.09456247
22.39019742,-3.045464993,-17.3563385,-1.929811478,17.72685859
22.39251591,-3.214159012,-17.0799675,-0.7980063558,17.39807237
22.39482149,-3.364906788,-16.8029995,0.4336991012,17.14209686
22.39715294,-3.468396425,-16.49073601,1.709073544,16.93797745
22.39947143,-3.521038532,-16.29332733,2.852244616,16.91169794
22.40177706,-3.463012457,-16.26999664,3.878167391,17.08055703
22.40410846,-3.319443226,-16.36212158,4.710271358,17.34717217
22.40642696,-3.120240688,-16.47159195,5.203791142,17.55359466
22.40873258,-2.874976397,-16.5661087,5.287539959,17.62553618
22.41106399,-2.615953445,-16.62353706,4.765904427,17.48996975
22.41338248,-2.554936409,-16.45603943,3.672982693,17.05343765
22.41570102,-2.574677229,-16.00259972,2.27677083,16.36752412
22.41801951,-2.626122952,-15.58804321,1.404586911,15.86998668
22.42033805,-2.697309256,-15.19262886,0.5569294691,15.44025969
22.42264362,-2.733799934,-14.92523098,0.06819544733,15.17368882
22.42497503,-2.669791937,-14.71765423,-0.2811566591,14.96048743
22.42729357,-2.65364027,-14.53161144,-1.059422255,14.80985865
22.42959914,-2.676372051,-14.55853081,-2.357528448,14.98905357
22.43193055,-2.629712105,-14.49751377,-3.597608805,15.16694038
22.43424909,-2.533401012,-14.28515148,-4.408775806,15.16314537
22.43655466,-2.450250387,-13.97647667,-5.069194794,15.06792497
22.43888607,-2.382055044,-13.68814182,-5.590231895,14.97631815
22.44120461,-2.302493572,-13.48056412,-6.111268997,14.97914198
22.44351018,-2.200798512,-13.31067371,-6.306882381,14.89276046
22.44584164,-2.047657967,-13.16770267,-6.211169243,14.70237805
22.44816013,-1.866999865,-12.89312649,-5.830112457,14.27265254
22.45046571,-1.57028985,-12.60658646,-5.142774105,13.70547182
22.45279716,-1.415354609,-12.18903828,-4.295116425,13.0009195
22.45511565,-1.314856052,-11.70927715,-3.487539053,12.28816286
22.45742123,-1.105484009,-11.32881927,-2.867797852,11.73833487
22.45975268,-0.8201399446,-10.97527885,-2.190030813,11.2216581
22.46207117,-0.536590457,-10.68395329,-1.565504193,10.81136395
22.46437675,-0.3714857101,-10.39083195,-1.088734269,10.45431645
22.4667082,-0.4743770957,-9.961320877,-0.9924231768,10.02186864
22.46902669,-0.509073019,-9.448060036,-1.273579836,9.547093766
22.47133227,-0.3601198196,-8.974281311,-1.141974568,9.053812305
22.47366373,-0.3086741269,-8.909674644,-0.5790630579,8.933806356
22.47598222,-0.2255235314,-8.921041489,-0.2015953064,8.926168426
22.47828784,0.04187439755,-8.967700958,-0.1561316848,8.969157767
22.48061925,0.3320041299,-9.004789352,-0.5156532526,9.02564991
22.48293774,0.626919508,-9.093922615,-0.7363911867,9.14520249
22.48524336,0.9768698215,-9.244669914,-1.032503009,9.353302034
22.48757477,1.322034478,-9.415757179,-1.939382792,9.703889119
22.48989326,1.793420553,-9.613762856,-2.959323406,10.21755296
22.49219888,2.168495417,-9.664012909,-3.742972851,10.58798204
22.49453029,2.41136694,-9.53898716,-4.12821722,10.67001143
22.49684878,2.578266382,-9.222537041,-4.000201225,10.37806614
22.4991544,2.657229662,-8.994620323,-3.839283943,10.13430636
22.50148581,2.619542599,-8.683553696,-3.746562004,9.81340079
22.50380435,2.525026083,-8.391629219,-3.568296671,9.461920461
22.50610992,2.421536446,-8.033304214,-3.122633457,8.952578124
22.50844133,2.34676075,-7.741379261,-2.510669231,8.469929095
22.51075987,2.411965132,-7.512865067,-1.838884234,8.101988184
22.51306544,2.581257343,-7.143173695,-1.534995675,7.7488084
22.51539685,2.650649309,-6.815357208,-1.737189293,7.51617338
22.51771539,2.603390932,-6.74476862,-2.071586132,7.520705896
22.52002096,2.581855536,-6.779464722,-2.248056889,7.594792933
22.52235242,2.609373093,-6.86082077,-2.428714991,7.731645755
22.52467091,2.655434847,-6.879364967,-2.729014158,7.86285666
22.5269894,2.66739893,-6.735197544,-2.906083107,7.805332923
22.52930794,2.570489645,-6.492924213,-2.951546669,7.581365945
22.53162643,2.475374937,-6.293721676,-2.987439156,7.393456994
22.53394492,2.380858421,-6.098706722,-3.18006134,7.278427071
22.53626346,2.233101845,-5.843272686,-3.378665686,7.109568295
22.53858196,2.029711723,-5.531607628,-3.445664644,6.825761311
22.54088753,1.816152334,-5.200799942,-3.502494097,6.527954828
22.54321899,1.627119422,-4.902295589,-3.486940861,6.232076398
22.54553748,1.44347024,-4.642076015,-3.457030535,5.965193726
22.5478431,1.302293777,-4.371686935,-3.388236761,5.682232316
22.55017451,1.161117196,-4.096512318,-3.291327477,5.381676585
22.552493,0.9708877802,-3.769293785,-3.223730326,5.053972292
22.55479862,0.837487936,-3.483949661,-3.007778168,4.678249757
22.55713003,0.7680960894,-3.278765202,-2.681157827,4.304518573
22.55944857,0.6915257573,-3.011367321,-2.416750908,3.922655474
22.56175414,0.6340979934,-2.73260355,-2.123031855,3.518020279
22.56408555,0.5682953596,-2.460419893,-1.939382792,3.183996118
22.56640404,0.4743770957,-2.155334949,-1.880758643,2.899612982
22.56870966,0.2751746178,-1.833500385,-1.894517303,2.650781119
22.57104107,0.07058826834,-1.463809252,-1.970489502,2.455717636
22.57335961,-0.08434699476,-1.188634634,-1.97826612,2.309437929
22.57566518,-0.2195414752,-0.9469595551,-1.943570137,2.173107392
22.57799659,-0.5018945336,-0.7866404653,-2.438884497,2.611294494
22.58031513,-0.4821537733,-0.313459754,-1.60678041,1.706596778
22.5826207,-0.4737788737,-0.03888336942,-1.194018483,1.285168657
22.58495216,-0.5431707501,0.04067798331,-1.146760225,1.269546445
22.58727065,-0.628115952,0.0580259487,-1.291526079,1.43733652
22.58957623,-0.7286145091,0.1034895778,-1.378265858,1.562435909
22.59190768,-0.8207381964,0.1680957973,-1.39860487,1.630326031
22.59422617,-1.019940615,0.3026920557,-1.368096352,1.733086543
22.59653175,-1.223928809,0.4277170599,-1.304088354,1.838910016
22.5988632,-1.427318692,0.5479564071,-1.335793257,2.030231144
22.60118169,-1.568495274,0.626919508,-1.24666059,2.099373268
22.60350018,-1.670788407,0.6915257573,-1.210170031,2.175833927
22.60581873,-1.762313843,0.7136593461,-1.176670551,2.235981514
22.60813722,-1.809572101,0.6885347366,-1.162911773,2.258538258
22.6104557,-1.892124534,0.6047859192,-1.240080357,2.341730247
22.61277425,-1.952543259,0.5401797295,-1.268794179,2.390409585
22.61509274,-1.933998942,0.5264210105,-1.186840057,2.329390545
22.61741128,-1.938186288,0.4833501875,-1.071984529,2.267012202
22.61972977,-1.884347796,0.3792623878,-0.9421738982,2.140630335
22.62204826,-1.774876237,0.199800685,-0.8871390224,1.994272202
22.62436675,-1.7670995,0.0466600433,-0.7573283911,1.923113125
22.62668529,-1.768295884,-0.1501496136,-0.560518682,1.861074
22.62900378,-1.744367719,-0.4079762697,-0.3439682424,1.824164885
22.63132232,-1.740180254,-0.6532405615,-0.0747757107,1.860253196
22.63364081,-1.715653777,-0.9541380405,0.2237289101,1.975829423
22.6359593,-1.671984792,-1.269392371,0.5742774606,2.176392597
22.63826492,-1.643869162,-1.575075507,1.043868899,2.504562028
22.64059633,-1.606182218,-1.895713687,1.585843205,2.947617745
22.64291482,-1.526620865,-2.199602127,2.25703001,3.5018574
22.64522044,-1.505683661,-2.481357098,2.926422119,4.121669898
22.64755185,-1.473380566,-2.834896564,3.631108284,4.836572773
22.64987039,-1.462014675,-3.145365477,4.400999069,5.603534929
22.65217596,-1.491924882,-3.499503136,5.137988567,6.393065663
22.65450737,-1.557129383,-3.8213377,5.950950146,7.24162146
22.65682591,-1.678565025,-4.154538155,6.729813576,8.085057736
22.65913149,-1.855035782,-4.551148891,7.451249599,8.926098508
22.66146289,-2.111665964,-4.992624283,8.153543472,9.791103182
22.66378143,-2.438286304,-5.460421085,8.859425545,10.68881937
22.66608701,-3.005983353,-5.880361557,9.611370087,11.66160465
22.66841841,-3.660420418,-6.307480335,10.56311512,12.83598017
22.67073696,-4.317848682,-6.820142746,11.51964664,14.06628676
22.67304253,-5.044070244,-7.417151928,12.40020561,15.30430941
22.67537393,-5.855835438,-8.092526436,12.98943806,16.38613114
22.67769248,-6.670591354,-8.779266357,13.2586298,17.24423298
22.67999805,-7.334599495,-9.548559189,13.5164566,18.101545
22.68232951,-7.881359577,-10.52124119,13.46680546,18.81933033
22.684648,-8.261817932,-11.56810093,13.1838541,19.38794996
22.68695357,-8.557332039,-12.53181076,12.68315601,19.7771752
22.68928498,-8.581858635,-13.42672634,12.04068375,19.97256476
22.69160352,-8.188239098,-14.34138298,11.16371441,19.93366611
22.69390909,-7.562515736,-15.0149622,10.22991467,19.67973293
22.69624055,-6.488736629,-15.53420448,9.51745224,19.33900486
22.69855904,-5.145166874,-16.07917023,9.071190834,19.16504528
22.70086461,-3.754338741,-16.59542084,8.676374435,19.09928076
22.70319607,-2.394617319,-17.00579071,8.138587952,19.00441327
22.70551456,-1.371685624,-17.3186512,7.719843864,19.01087031
22.70782013,-0.5479564071,-17.57887077,7.495516777,19.11804712
22.71015159,-0.2309073806,-17.76850319,7.34716177,19.22898359
22.71247008,-0.3972085714,-17.79183197,7.298109055,19.23459007
22.71477565,-0.9840483069,-17.60399628,7.291528702,19.07971244
22.71710711,-1.843071699,-17.21994781,7.228717327,18.7664027
22.7194256,-2.78285265,-16.63789368,7.164111137,18.32725466
22.72173117,-3.639483213,-15.8943243,6.88893652,17.70120983
22.72406263,-4.28315258,-15.04547024,6.456433773,16.92327119
22.72638112,-4.745565414,-14.15055466,5.868995667,16.03757146
22.72868669,-5.030909538,-13.25504112,5.210969448,15.10497827
22.73101815,-5.200201988,-12.27577877,4.663611412,14.12395541
22.73333664,-5.325825214,-11.30967617,4.077968121,13.14925904
22.73564227,-5.44785881,-10.33819008,3.669393539,12.2483382
22.73797367,-5.422734261,-9.377471924,3.357728481,11.34095971
22.74029216,-5.39701128,-8.575876236,2.883949518,10.53520521
22.74259779,-5.323431969,-7.820940971,2.540579557,9.795947636
22.74492919,-5.236692429,-7.213762283,2.241476536,9.191601108
22.74724768,-5.038686275,-6.710072994,2.120040894,8.6549415
22.74955331,-4.884349346,-6.241079807,2.190030813,8.222176151
22.75188472,-4.78085947,-5.830112457,2.216351986,7.8586923
22.75420321,-4.817350388,-5.327021599,2.169093609,7.502598947
22.75650883,-4.869394302,-4.919643402,2.003390789,7.206071518
22.75884024,-5.001597404,-4.52482748,1.627717614,6.938263829
22.76115873,-5.103890896,-4.130012035,1.232901812,6.680325484
22.76346435,-5.19182682,-3.747758389,0.8285148144,6.456562202
22.76579576,-5.300700188,-3.342773199,0.614357233,6.296744393
22.7681143,-5.428716183,-2.991028309,0.5533402562,6.222812481
22.77041987,-5.571687698,-2.647658348,0.6502495408,6.202952765
22.77275128,-5.79661274,-2.3216362,0.8506484628,6.301929602
22.77506982,-5.935396671,-2.012363911,1.157527924,6.373257648
22.77737539,-6.040680885,-1.740778446,1.407577872,6.442158848
22.7797068,-6.191428661,-1.541576028,1.704886079,6.604307841
22.78202534,-6.378666878,-1.223330617,2.091925144,6.823494687
22.78433091,-6.611967087,-0.8488538265,2.583650351,7.149399325
22.78666232,-6.964310169,-0.4624129832,3.073580742,7.626423833
22.78898086,-7.338188648,-0.0185443759,3.597010612,8.172382876
22.79128643,-7.661220074,0.2679961324,4.292723656,8.785988352
22.79361784,-7.856235027,0.3990031779,5.015356064,9.329170852
22.79593638,-7.865208149,0.1842473447,5.71824789,9.725934672
22.79824196,-7.694121361,-0.3583251834,6.343372822,9.978290395
22.80057336,-7.500900745,-1.213161111,6.41336298,9.943163309
22.8028919,-7.335795879,-2.175075769,6.159723759,9.822782323
22.80519748,-7.049255371,-3.288336515,5.641079426,9.608690619
22.80752888,-6.736393929,-4.482953072,4.965106964,9.493585127
22.80984742,-6.356533527,-5.623731613,4.080360889,9.417070709
22.812153,-5.837889194,-6.889534473,3.698107481,9.758208568
22.8144844,-5.6566329,-8.614759445,3.306880951,10.82344851
22.81680294,-5.527420521,-10.15813065,3.510270834,12.08561116
22.81910852,-5.574080467,-11.89173031,4.232903481,13.79859031
22.82143998,-5.8983078,-13.4530468,5.228915691,15.59217953
22.82375846,-6.509075642,-15.31526089,5.928816319,17.66567702
22.82606404,-7.445267677,-17.04048729,6.915855408,19.8403446
22.82839544,-8.424530029,-18.80938148,8.069794655,22.13339386
22.83071399,-9.274580956,-20.35933113,9.13220787,24.16438364
22.83301956,-9.858428955,-21.92603302,10.87478065,26.38560971
22.83535102,-10.13121128,-23.28874397,12.49950695,28.3062663
22.83766951,-9.823135376,-24.75913429,13.33280754,29.7871193
22.83997508,-9.004191399,-26.379673,12.30329609,30.46856914
22.84230654,-7.759923935,-27.91945457,10.22154045,30.72771147
22.84462503,-5.568696499,-29.14876747,8.613563538,30.9007201
22.8469306,-3.178864956,-30.02693367,7.290930748,31.06251115
22.84926206,-0.903888762,-30.22374344,6.726224422,30.97634222
22.85158055,1.185643673,-29.55973434,6.958926678,30.39095763
22.85388612,2.954537868,-28.09173775,7.035496712,29.10967601
22.85621758,4.298107624,-25.84727097,6.491727829,26.99440082
22.85853607,5.153541565,-23.09731865,5.048257351,24.19772761
22.86084164,5.385047436,-20.15175438,2.886940479,21.05769137
22.8631731,5.200799942,-16.99562073,0.1393819153,17.77410676
22.86549159,4.796412945,-14.25823212,-2.479562521,15.24634351
22.86779716,4.104887009,-11.9162569,-4.749752998,13.46875753
22.87012862,3.235694408,-9.812367439,-6.732804775,12.33219093
22.87244711,2.227717876,-7.831110477,-8.287541389,11.61776056
22.87475268,1.188634634,-6.047261238,-9.4307127,11.26590266
22.87708414,0.2063809484,-4.530211449,-10.25204849,11.21025901
22.87940263,-0.7429714203,-3.098705292,-10.78086281,11.24192972
22.88170821,-1.457229018,-1.823330879,-10.90170002,11.14877192
22.88403966,-1.880160451,-0.9726824164,-10.33938694,10.55386359
22.88635815,-2.228914261,-0.3684946895,-9.149555206,9.424341229
22.88866373,-2.550150633,0.1836491376,-7.715058327,8.127676189
22.89099518,-2.881556749,0.6927221417,-6.152545452,6.829132361
22.89331367,-3.25005126,1.157527924,-4.518247128,5.684827279
22.89561925,-3.647858143,1.482353687,-2.864208698,4.869079271
22.89795071,-3.94815731,1.48295188,-1.182652593,4.3801552
22.90026919,-4.086941242,1.396211982,0.3714857101,4.334800831
22.90257477,-4.080958843,0.9379864931,1.729412556,4.530442752
22.90490623,-3.974478483,0.1884347796,2.818745136,4.876198419
22.90722472,-3.766302824,-0.6652047038,3.50907445,5.19048531
22.90953034,-3.455235958,-1.646860242,3.552145243,5.221928763
22.91186175,-3.025724173,-2.545963287,2.861217737,4.880932572
22.91418024,-2.335993052,-3.320041418,1.499103427,4.32745302
22.91648581,-1.462612867,-4.158127785,-0.6095715761,4.449813544
22.91881727,-0.4402793646,-5.011766911,-2.941377163,5.827808602
22.92113576,0.6376872063,-5.913262844,-5.372485161,8.014793774
22.92344138,1.678565025,-6.901498795,-7.650452137,10.43923771
22.92577279,2.47358036,-7.717451096,-9.564710617,12.53640062
22.92809128,3.10408926,-8.81456089,-10.87238789,14.33668972
22.9303969,3.66101861,-10.10010433,-11.98385429,16.09434461
22.93272831,3.984647989,-11.06919765,-12.91825104,17.47242874
22.9350468,4.330410957,-11.93121147,-13.30947781,18.39153245
22.93735242,4.604389191,-12.77886963,-13.25803185,18.98091982
22.93968383,4.783252239,-13.48056412,-13.01276779,19.33745683
22.94200232,4.791627407,-13.99801254,-12.3984108,19.30348773
22.94430794,4.815555573,-14.62493229,-11.54477119,19.24473855
22.94663935,4.751547337,-15.19681644,-10.64925671,19.15534131
22.94895784,4.5930233,-15.48634815,-9.498908043,18.7390527
22.95126346,4.372285366,-15.97867107,-8.300103188,18.52907233
22.95359487,4.368695736,-16.92802429,-7.095915318,18.86784362
22.95591336,4.290330887,-17.57109451,-5.909075737,19.02807078
22.95821899,4.148556232,-17.97548103,-4.762315273,19.05277103
22.96055039,4.012165546,-18.19801521,-3.73160696,19.00500251
22.96286888,3.845266104,-18.272192,-2.87856555,18.89299372
22.96517451,3.733999729,-18.12922096,-1.964507341,18.61372332
22.96750591,3.614358664,-17.770895,-1.267597795,18.17897417
22.9698244,3.516851187,-17.31984901,-0.6699903607,17.68599161
22.97213003,3.297907829,-16.68634796,-0.3571287692,17.01287587
22.97446143,3.162713289,-16.13181114,-0.1333998591,16.43946111
22.97677992,3.034099102,-15.62094402,-0.03768695518,15.91292147
22.97908555,2.88454771,-15.06640816,0.0951147005,15.34034931
22.98141696,2.771486759,-14.44965744,0.290129751,14.71590684
22.98373544,2.694318295,-13.91785336,0.4857429862,14.18456694
22.98604107,2.517249346,-13.37946796,0.5611169338,13.62576822
22.98837248,2.323430777,-12.87936783,0.5222335458,13.0976782
22.99069097,2.123031855,-12.51924801,0.5276173949,12.70894233
22.99299659,1.957328916,-12.18724346,0.5186443329,12.35431227
22.995328,1.819741607,-12.01795197,0.3732803464,12.16067297
22.99764649,1.700698733,-11.92523003,0.06640082598,12.0460739
22.99995211,1.536790371,-11.7278223,-0.3469592929,11.83317039
23.00228352,1.383649707,-11.55434227,-0.8117650747,11.66517357
23.00460201,1.219741344,-11.36710358,-1.234696507,11.49883856
23.00690763,0.9529415965,-11.05723381,-1.663609982,11.22221526
23.00923904,0.6113662124,-10.69651508,-1.960319996,10.89183447
23.01155753,0.2949153781,-10.41057301,-2.027318954,10.61023221
23.01386315,-0.1040877849,-10.11745262,-2.008774519,10.31546688
23.01619456,-0.4767699242,-9.837491989,-1.704287887,9.995406715
23.01851305,-0.8291130662,-9.648459435,-1.203589797,9.758525828
23.02081867,-1.21555388,-9.454042435,-0.5880361795,9.54998828
23.02315008,-1.561316729,-9.230313301,0.151944235,9.362664184
23.02546857,-1.796411633,-9.047262192,0.9541380405,9.273102357
23.02777419,-1.914856315,-9.096913338,1.616351724,9.435735259
23.0301056,-1.912463546,-9.306883812,1.99501586,9.708537036
23.03242409,-1.779661894,-9.534201622,2.260619164,9.958845115
23.03472972,-1.91365993,-9.547362328,2.368894339,10.02127148
23.03706112,-1.940579176,-9.562317848,2.182852507,9.998430639
23.03937961,-1.737787485,-9.558130264,1.821536183,9.884116226
23.04169815,-1.523629785,-9.399605751,1.445863128,9.631435832
23.04401664,-1.262213945,-9.265008926,1.094118118,9.414386274
23.04633513,-0.8673982024,-9.083752632,0.5760720372,9.143237967
23.04865367,-0.4761717021,-8.772686005,0.1674975902,8.787196064
23.05097216,-0.2769692242,-8.504091263,0.06221338734,8.508827808
23.05329065,0.09212367237,-8.29890728,-0.2703889608,8.303821952
23.05559628,0.4295116663,-7.98903656,-0.4887340367,8.015487907
23.05792768,0.7351947427,-7.666005611,-0.9463613629,7.759107756
23.06024617,0.9601200819,-7.223931789,-1.314856052,7.405124409
23.0625518,1.074377418,-6.621538639,-1.494915962,6.872687576
23.0648832,1.211366415,-6.209972858,-1.453639746,6.491859518
23.06720169,1.34237349,-5.817550182,-1.235892892,6.096990073
23.06950732,1.500299811,-5.539384365,-1.068993568,5.837672988
23.07183873,1.529611826,-5.404190063,-0.9840483069,5.702046444
23.07415722,1.521835208,-5.322834015,-0.8895317912,5.607121468
23.07646284,1.520638824,-5.490929604,-0.7884350419,5.751893615
23.07879425,1.441077471,-5.895915031,-0.8051848412,6.122649832
23.08111274,1.321436286,-6.254240036,-0.8033902049,6.44260414
23.08343128,1.126421213,-6.446264267,-0.8183453679,6.594909923
23.08574977,1.008574724,-6.487540245,-0.866201818,6.622364155
23.08806826,0.8578268886,-6.366104603,-0.8685946465,6.482099308
23.09038675,0.8081758618,-6.131608009,-0.8183453679,6.238545836
23.09270529,0.7387840152,-6.04187727,-0.7148557901,6.128711248
23.09502378,0.7070791125,-6.200999737,-0.4899304509,6.260382612
23.09734227,0.7884350419,-6.491129398,-0.1579262912,6.540743948
23.09966081,0.775872767,-6.793821812,0.04007977992,6.838099133
23.1019793,0.7615157962,-7.009773731,0.1609173268,7.052852505
23.10429784,0.7142575383,-7.236494064,0.2524427772,7.276038588
23.10661633,0.6616154313,-7.473383427,0.3780659735,7.512132101
23.10893482,0.5676971674,-7.748558044,0.5407779217,7.788123818
23.11125331,0.4378865361,-7.948358536,0.6987041831,7.991015928
23.11357185,0.2889333367,-8.109873772,0.8129615188,8.155638632
23.11589034,0.1489532143,-8.22353363,0.8027920127,8.263968021
23.11820888,0.02811566554,-8.351549149,0.7597211599,8.386080128
23.12052737,-0.1274178028,-8.571688652,0.7220342159,8.602988728
23.12284586,-0.2913261652,-8.700303078,0.7262216806,8.735418851
23.12516435,-0.3984049559,-8.813364029,0.7740781307,8.856258181
23.12748289,-0.5186443329,-8.825327873,0.8542376757,8.8817299
23.12980138,-0.6484549642,-8.809176445,0.9720842242,8.886339585
23.13211987,-0.7262216806,-8.805587769,1.115055323,8.905566925
23.13443841,-0.836291492,-8.827122688,1.228714466,8.951380768
23.1367569,-0.8919246197,-8.91505909,1.333400369,9.058242911
23.13907539,-0.9906286001,-8.955737114,1.337587833,9.109100586
23.14139393,-1.071386337,-8.981459618,1.360917926,9.146943924
23.14371242,-1.138385415,-8.973683357,1.345962763,9.145191639
23.14603091,-1.141974568,-9.007183075,1.336989641,9.177199691
23.14834946,-1.131805062,-9.01675415,1.255633712,9.173846201
23.15066794,-1.089332461,-8.94377327,1.098305583,9.076563263
23.15298643,-1.063011408,-8.813961983,0.9541380405,8.928958421
23.15530498,-0.9625129104,-8.782855988,0.8165507317,8.87309109
23.15762346,-0.8081758618,-8.755936623,0.5030909777,8.80753512
23.15994196,-0.6652047038,-8.671588898,0.1890329868,8.69911977
23.1622605,-0.4833501875,-8.63390255,-0.005383851007,8.647423294
23.16457899,-0.2865405083,-8.567501068,-0.2907279432,8.57721999
23.16689748,-0.1196411327,-8.520841599,-0.499501735,8.536308191
23.16921597,0.08195417374,-8.473583221,-0.7794619799,8.509752645
23.17153451,0.3062812984,-8.425128937,-1.010967612,8.49109306
23.17384008,0.4941178858,-8.397012711,-1.291526079,8.510112488
23.17617149,0.6777670383,-8.441280365,-1.461416483,8.593620919
23.17849003,0.8380861282,-8.505288124,-1.602592945,8.695436653
23.18080852,0.9254241586,-8.560921669,-1.606182218,8.75931567
23.18312701,0.9589236975,-8.559724808,-1.610369682,8.762517558
23.18544555,0.9134600163,-8.484351158,-1.544566989,8.672041914
23.18776404,0.8231309652,-8.519644737,-1.469193101,8.684493042
23.19008253,0.6622136831,-8.600402832,-1.393221021,8.737649607
23.19240107,0.433100909,-8.657830238,-1.17068851,8.74734888
23.19471956,0.1196411327,-8.775078773,-0.9385846853,8.825942595
23.19703805,-0.1573280841,-8.88634491,-0.5539384484,8.9049832
23.19935659,-0.5252245665,-9.009575844,-0.1322034448,9.025840431
23.20167508,-0.8063812256,-8.953344345,0.3038884699,8.99471922
23.20399357,-1.028913736,-8.957531929,0.7076773047,9.044161039
23.20631211,-1.306481123,-8.97308445,0.9146564603,9.113711314
23.20861768,-1.47457695,-9.000602722,1.119242787,9.189011425
23.21094909,-1.564906001,-9.065208435,1.261615753,9.285397626
23.21326763,-1.586441398,-9.161520004,1.300499082,9.388372753
23.21558612,-1.549352646,-9.333204269,1.35912323,9.558054797
23.21790461,-1.401595831,-9.502496719,1.404586911,9.707459975
23.2202231,-1.210170031,-9.714859962,1.441077471,9.895439347
23.22254164,-0.9960124493,-9.87757206,1.425524116,10.02948601
23.22486013,-0.7028916478,-9.957133293,1.366301775,10.07498589
23.22717862,-0.3565305769,-10.00678444,1.222134113,10.08744074
23.22949716,0.03529413417,-9.97926712,1.015154958,10.03083035
23.23181565,0.4336991012,-9.830911636,0.7884350419,9.872008323
23.23413414,0.8464609981,-9.649057388,0.5144568682,9.699766522
23.23643972,1.277767301,-9.475577354,0.2787638307,9.565404578
23.23877117,1.720439434,-9.379266739,0.0197407864,9.53577192
23.24108966,2.10209465,-9.284152031,-0.1782652885,9.52082241
23.24339524,2.417947292,-9.276973724,-0.3906283081,9.594858053
23.24572669,2.734996319,-9.3367939,-0.4965106845,9.74178875
23.24804518,3.022733212,-9.531808853,-0.5593222976,10.01524525
23.25035076,3.254837036,-9.84885788,-0.5934200287,10.38971188
23.25268222,3.474976778,-10.23230743,-0.6029912829,10.8230854
23.2550007,3.642474174,-10.64148045,-0.5222335458,11.259727
23.25730628,3.738785267,-11.0811615,-0.394217521,11.70154105
23.25963774,3.742374659,-11.4454689,-0.2913261652,12.04528943
23.26195623,3.672384501,-11.72064304,-0.1752742529,12.28375359
23.2642618,3.570091486,-12.02094269,-0.1220339537,12.54047482
23.26659326,3.423531055,-12.27398396,-0.02512463741,12.74252245
23.26891175,3.274577856,-12.45942783,0.1369891018,12.8832825
23.27121732,3.049054146,-12.62273788,0.2171486616,12.98758624
23.27354873,2.845066071,-12.73280716,0.4211367965,13.05358707
23.27586727,2.648854733,-12.79023552,0.6628118753,13.07845081
23.27817284,2.477169752,-12.85125256,0.8955138922,13.11842244
23.28050425,2.306680918,-12.78305721,1.108475089,13.03671913
23.28282279,2.194218397,-12.72263813,1.250249863,12.97086119
23.28514128,2.131406784,-12.72862053,1.387837172,12.98024528
23.28745977,2.020140409,-12.69272804,1.524826288,12.94261981
23.28977831,1.966302037,-12.66521072,1.581655741,12.91416049
23.2920968,1.887937069,-12.7627182,1.586441398,12.99877219
23.29441529,1.808375716,-12.6879425,1.6181463,12.91791412
23.29673383,1.786242127,-12.74596786,1.628315806,12.97311721
23.29905232,1.749751568,-12.80459213,1.642672777,13.02757015
23.30137081,1.743171334,-12.74237919,1.646860242,12.96607197
23.3036893,1.655833244,-12.67238903,1.597807288,12.87960464
23.30600784,1.564906001,-12.62213898,1.458425403,12.802122
23.30832633,1.489532113,-12.59522057,1.295713425,12.74900625
23.31064482,1.431506157,-12.53420353,1.180259824,12.67077272
23.31296336,1.348953724,-12.43609715,1.034895778,12.55178066
23.31528185,1.289731383,-12.31286716,0.8715856671,12.41087291
23.31760034,1.202991605,-12.23809147,0.7603194118,12.32055832
23.31991888,1.077966571,-12.14536953,0.6155536175,12.20864117
23.32223737,0.9589236975,-11.96590805,0.5611169338,12.01737668
23.32455586,0.8105686903,-11.74337578,0.5198407173,11.7827896
23.3268744,0.6388836503,-11.61715412,0.6029912829,11.65032363
23.32919289,0.4917250574,-11.48136139,0.7010970116,11.51325279
23.33151138,0.3451646566,-11.36471081,0.7513462901,11.3947493
23.33382987,0.2117647976,-11.20917797,0.8303094506,11.2418828
23.33614841,0.08255238086,-11.05842972,0.985244751,11.1025398
23.3384669,0.04785645381,-11.05424213,1.142572761,11.11323679
23.34078539,0.04905286431,-11.13559818,1.314856052,11.21306379
23.34310393,0.09212367237,-11.36949635,1.431506157,11.45963105
23.34542242,0.2105683982,-11.76012516,1.583450437,11.86811687
23.34774091,0.3655036688,-12.23210907,1.664208174,12.35020947
23.35005946,0.5341976285,-12.68854046,1.755135417,12.82048854
23.35237794,0.760917604,-13.15454292,1.812563181,13.30061579
23.35468352,1.005583763,-13.60439301,1.851446509,13.76657408
23.35701492,1.251446247,-14.07936859,1.895115495,14.26135339
23.35933347,1.541576028,-14.60519123,1.944766641,14.81452614
23.36163904,1.83469677,-15.03051567,1.893320918,15.25998616
23.36397044,2.143969059,-15.37388515,1.917249203,15.64061356
23.36628899,2.43708992,-15.64068508,1.912463546,15.9445274
23.36859456,2.723630428,-15.84527111,1.926222205,16.19262521
23.37092596,2.983251572,-15.93021679,1.952543259,16.32433833
23.37324451,3.253042459,-15.88056564,2.030908108,16.33705108
23.37555008,3.467798233,-15.72204113,2.127219439,16.23986651
23.37788149,3.688536167,-15.42892075,2.164906263,16.01073745
23.38019998,3.895515203,-15.14477253,2.213361025,15.79361076
23.3825056,4.071985722,-14.79960823,2.260020971,15.51506256
23.38483701,4.25802803,-14.42572975,2.334796667,15.22116149
23.3871555,4.356133461,-14.02971745,2.437688112,14.89131269
23.38946107,4.422534466,-13.67677593,2.52143693,14.59351415
23.39179253,4.509274483,-13.3770752,2.611167669,14.35610998
23.39411102,4.527220249,-13.14138222,2.609373093,14.14215251
23.39642951,4.591826439,-13.02473164,2.53280282,14.04078325
23.39874805,4.633700848,-12.94277763,2.327618122,13.94290079
23.40106654,4.712066174,-12.93619728,2.075175524,13.92318646
23.40338503,4.788636208,-13.05524063,1.843071699,14.02737531
23.40570357,4.882554531,-13.30289745,1.583450437,14.25881253
23.40802206,4.942973614,-13.50389481,1.275374413,14.43657657
23.41034055,4.962714195,-13.63310719,0.980459094,14.54137008
23.41265909,4.939982414,-13.57209015,0.6747759581,14.45892043
23.41497758,4.892126083,-13.48714447,0.4157529473,14.35300714
23.41729607,4.821537495,-13.32562923,0.3236292601,14.17477881
23.41961456,4.663012981,-13.12283802,0.4348955154,13.93347415
23.4219331,4.521238327,-12.86620712,0.6466603279,13.65280379
23.42425159,4.345963955,-12.61077309,0.8961120844,13.36869543
23.42657008,4.158725739,-12.33559895,1.298106313,13.08231941
23.42888862,3.894318819,-12.04846001,1.770688772,12.78539973
23.43119419,3.572484255,-11.75653553,2.328814745,12.5060845
23.4335256,3.278167009,-11.60877895,2.911466837,12.40914046
23.43584414,2.947359324,-11.73081303,3.439084291,12.57482413
23.43814972,2.68175602,-11.91446209,3.914657831,12.82461571
23.44048112,2.376072884,-12.18963718,4.300500393,13.14257512
23.44279961,2.014158487,-12.43310642,4.442275047,13.35562718
23.44510524,1.597209096,-12.71187019,4.354339123,13.53155534
23.44743664,1.274178028,-13.02293682,3.991826296,13.68046382
23.44975513,0.9684949517,-13.40100288,3.467200041,13.87610669
23.45206076,0.7022934556,-13.78744411,2.794816732,14.08537653
23.45439216,0.471386075,-14.22712517,2.051845312,14.38205008
23.45671065,0.342173636,-14.68774319,1.238285661,14.7438202
23.45901623,0.2171486616,-15.09990692,0.3104687333,15.10465933
23.46134768,0.107078813,-15.43669701,-0.9236295223,15.46467497
23.46366617,0.09990034252,-15.87159252,-2.23728919,16.02881443
23.46597175,0.1633101404,-16.23709679,-3.603590965,16.63297478
23.4683032,0.2392822653,-16.54577065,-4.993222713,17.28444547
23.47062169,0.3266202807,-16.74258041,-6.317051888,17.89764857
23.47292727,0.4247260094,-16.86281967,-7.517052174,18.46729955
23.47525873,0.4737788737,-16.94537163,-8.594420433,19.00616081
23.47757722,0.4606183469,-17.12423515,-9.390034676,19.53520796
23.47988279,0.4163511395,-17.4819622,-9.811769485,20.05151294
23.48221425,0.3475574851,-17.73859215,-9.915857315,20.3249274
23.48453274,0.2327020019,-17.98086548,-9.7196455,20.44106607
23.48683831,0.07956135273,-18.39661789,-9.474381447,20.69313373
23.48916972,-0.1908276081,-18.87817383,-9.259027481,21.02739766
23.49148826,-0.5587241054,-19.30888176,-9.034101486,21.32510439
23.49379383,-0.9092726111,-19.6773777,-8.729615211,21.54604724
23.49612524,-1.26341033,-19.92981911,-8.287541389,21.62122193
23.49844378,-1.585843205,-20.05604172,-7.573882103,21.49705557
23.50074935,-1.946561217,-20.00519371,-6.737590313,21.19886788
23.50308076,-2.29651165,-19.86760712,-5.735595703,20.80607691
23.50539925,-2.650051117,-19.62832451,-4.638486862,20.34230701
23.50770487,-3.028715372,-19.2508564,-3.256033421,19.75779195
23.51003628,-3.424129248,-18.81595993,-1.703091502,19.20066483
23.51235477,-3.861417532,-18.34218216,0.1166501045,18.74459386
23.51466039,-4.284348965,-17.88754654,2.031506538,18.50532318
23.5169918,-4.686343193,-17.35514259,4.122833252,18.44344168
23.51931029,-5.126622677,-16.89691734,5.78584528,18.58128309
23.52161586,-5.443073273,-16.43151283,6.90030241,18.63426505
23.52394732,-5.612963676,-15.88594913,7.863413334,18.5930635
23.52626581,-5.595017433,-15.41934872,8.337192535,18.4002531
23.52857138,-5.551348686,-15.06281853,8.225327492,18.03779328
23.53090284,-5.347958565,-14.92044544,7.347760201,17.47025853
23.53322133,-5.05423975,-14.91027641,6.382256031,16.98808036
23.5355269,-4.773082733,-14.95334721,5.34975338,16.58326785
23.53785831,-4.520640373,-14.93061543,4.130609989,16.13757743
23.54017685,-4.305884361,-14.82413483,1.928016901,15.5567626
23.54248242,-4.143770695,-14.69492245,-0.327816695,15.2715109
23.54481383,-4.08873558,-14.41376495,-2.146361828,15.13543022
23.54713237,-3.952344894,-13.90947819,-4.200001717,15.05770992
23.54943794,-3.903291941,-13.4662075,-6.478567123,15.44494301
23.55176935,-3.942175388,-13.06720448,-8.313263893,15.98133086
23.55408789,-3.900899172,-12.76092339,-9.722636223,16.51023425
23.55639347,-3.719044685,-12.50848007,-10.57687473,16.79772741
23.55872487,-3.411566973,-12.30987644,-10.87597752,16.77673193
23.56104336,-2.925225735,-12.05324554,-10.54457092,16.2796084
23.56334899,-2.425125837,-11.83370399,-9.902098656,15.61951803
23.56568039,-2.030908108,-11.65962696,-9.065806389,14.90839811
23.56799888,-1.74735868,-11.37189007,-7.895716667,13.95404915
23.57030446,-1.523031592,-11.03330517,-6.537191391,12.91465522
23.57263591,-1.176670551,-10.84487057,-5.157131195,12.06614161
23.5749544,-1.000199914,-10.65942669,-3.367299557,11.22330092
23.57725998,-0.8691928387,-10.5475626,-1.612164259,10.70540268
23.57959143,-0.7621139884,-10.54816055,-0.6334998012,10.59461329
23.58190992,-0.8560323119,-10.54935646,-0.2524427772,10.58704115
23.5842155,-0.7956135273,-10.52841949,-0.06580262631,10.55864328
23.58654696,-0.8907282352,-10.29571724,-0.3122633696,10.33889253
23.58886544,-0.9373882413,-10.0337038,-0.7100701332,10.10238132
23.59117102,-0.8440681696,-9.729216576,-0.8309076428,9.801046565
23.59350242,-0.7268198729,-9.452845573,-0.9224331379,9.525515181
23.59582096,-0.5670989752,-9.165707588,-0.8943174481,9.226678738
23.59812654,-0.313459754,-8.885746956,-0.6891329288,8.917940355
23.60045794,0.0239282269,-8.685946465,-0.6113662124,8.707468472
23.60277649,0.5521438122,-8.587242126,-0.8027920127,8.642341416
23.60508206,1.06660068,-8.551948547,-1.37587297,8.72734137
23.60741346,1.483550072,-8.447860718,-2.002194405,8.807726946
23.60973196,1.811366796,-8.200801849,-2.683550596,8.816781978
23.61203758,2.088335991,-7.882555962,-3.093321562,8.72149494
23.61436899,2.444268227,-7.515257835,-3.494119167,8.640741649
23.61668748,2.853441,-7.15573597,-3.993621111,8.677309052
23.6189931,3.138785124,-6.760920525,-4.523033142,8.718936128
23.62132451,3.436691523,-6.562315941,-4.851448059,8.855020463
23.623643,3.737588882,-6.589235306,-4.858626366,8.999657923
23.62594857,4.024727821,-6.649653912,-4.807778835,9.139533276
23.62828003,4.283750534,-6.701099873,-4.752744198,9.265194847
23.63059852,4.472185612,-6.643671989,-4.660620213,9.266078049
23.63290409,4.660620213,-6.576673031,-4.569094658,9.26556177
23.63523555,4.841876507,-6.428318024,-4.491926193,9.21653089
23.63755404,4.936393261,-6.074778557,-4.321437836,8.941238052
23.63985961,4.980062008,-5.660222054,-3.933202267,8.503482308
23.64219102,4.968098164,-5.352146149,-3.468396425,8.084382569
23.64450956,4.938187599,-5.064409256,-3.031706333,7.695789834
23.64681513,4.846064091,-4.762913704,-2.657827854,7.29614508
23.64914654,4.749752998,-4.485944271,-2.226521492,6.90226394
23.65146508,4.519443989,-4.183252335,-1.839482427,6.427182093
23.65377065,4.233501434,-3.90568471,-1.548754454,5.964524105
23.65610206,4.000201225,-3.646661758,-1.290329576,5.564593627
23.65842055,3.668197155,-3.375674486,-1.165902853,5.119587685
23.66072617,3.331407309,-3.114856958,-1.094716311,4.690310472
23.66305758,2.892324448,-2.735594511,-1.101296663,4.130601939
23.66537607,2.497508526,-2.408974171,-1.102493048,3.640905974
23.66768164,2.047657967,-2.12183547,-1.237687469,3.197961723
23.6700131,1.582852125,-1.811964989,-1.430309772,2.799004111
23.67233159,1.17068851,-1.523629785,-1.497906923,2.436326016
23.67463716,0.7734799385,-1.264008522,-1.579262972,2.165654703
23.67696862,0.4085744619,-0.9894321561,-1.632503271,1.952172127
23.67928711,0.09152546525,-0.7423732281,-1.57028985,1.739340431
23.68159268,-0.2207378894,-0.485144794,-1.484148264,1.5769549
23.68392414,-0.5132604837,-0.2805584669,-1.411765337,1.528146179
23.68624263,-0.8003991842,-0.07597211748,-1.344766378,1.566782445
23.6885482,-1.110867858,0.1136590764,-1.301097274,1.714584468
23.69087961,-1.392024517,0.2703889608,-1.275972724,1.907602904
23.69319815,-1.657029629,0.3696911037,-1.264606714,2.116990516
23.69550373,-1.87956214,0.4749752879,-1.262812138,2.313665891
23.69783513,-1.945963025,0.4923232496,-1.320838094,2.402866527
23.70015367,-2.140379906,0.4731806815,-1.403390527,2.602812146
23.70245925,-2.480160713,0.546759963,-1.48295188,2.94096751
23.70479065,-2.681157827,0.5563312769,-1.513460279,3.128685635
23.70710914,-2.798406124,0.4863412082,-1.528415442,3.225470255
23.70941477,-2.903690338,0.3589234054,-1.647458434,3.357731806
23.71174617,-2.960519791,0.1944168359,-1.751546144,3.445343123
23.71406466,-3.046063185,0.0382851623,-1.899302959,3.589891142
23.71637024,-3.073580742,-0.1447657645,-2.002792597,3.671380379
23.71870169,-3.098705292,-0.2464607358,-2.12183547,3.763628986
23.72102018,-3.104687452,-0.366700083,-2.19242382,3.818412672
23.72333867,-3.167499065,-0.4695914388,-2.349751949,3.971762917
23.72565722,-3.464807272,-0.5694918036,-2.991028309,4.612533002
23.72797571,-3.531208038,-0.3008974493,-2.697907448,4.454062649
23.73029419,-3.259622574,-0.2685943544,-1.574477315,3.629911992
23.73261268,-3.01974225,-0.7477570772,-1.383051515,3.40452866
23.73493123,-2.835494757,-1.190429211,-1.554736495,3.445919005
23.73724972,-2.755335331,-1.500299811,-1.608574986,3.525661044
23.7395682,-2.669791937,-1.710269928,-1.491924882,3.504090762
23.74188675,-2.589034081,-1.919043779,-1.32801652,3.485606744
23.74420524,-2.496910334,-2.060220242,-1.001396298,3.388489812
23.74652373,-2.449652195,-2.154736757,-0.6903293133,3.334702525
23.74884222,-2.400001049,-2.306680918,-0.3882354796,3.351344309
23.75114784,-2.351546526,-2.467598438,0.009571290575,3.408651453
23.75347925,-2.32701993,-2.629712105,0.4402793646,3.538962196
23.75579774,-2.267797709,-2.839084148,0.8709874153,3.736565847
23.75810331,-2.207378864,-3.105883837,1.39860487,4.05895694
23.76043477,-2.189432621,-3.406781197,1.920838356,4.482119288
23.76275326,-2.172683001,-3.688536167,2.505285263,4.96007104
23.76505883,-2.168495417,-4.014558315,3.055634499,5.49144362
23.76739029,-2.288136721,-4.318446636,3.558127165,6.045231172
23.76970878,-2.448455811,-4.570889473,4.154538155,6.644407702
23.77201435,-2.609971285,-4.818546772,4.875376225,7.334823545
23.77434576,-2.908475876,-5.108078003,5.508875847,8.056016752
23.7766643,-3.294916868,-5.452046394,6.080760479,8.806641531
23.77896987,-3.764508247,-5.730810165,6.684948444,9.576128821
23.78130128,-4.310071945,-6.068198204,7.454838753,10.53443736
23.78361982,-4.87417984,-6.460022926,8.277970314,11.57645532
23.78592539,-5.550750256,-6.901498795,9.019744873,12.64109614
23.7882568,-6.327221394,-7.356134892,9.759725571,13.76221982
23.79057529,-7.137191772,-7.829315662,10.66720295,15.03419133
23.79288091,-7.941180229,-8.38923645,11.58066368,16.35705973
23.79521232,-8.737990379,-9.14596653,12.29432297,17.63948857
23.79753081,-9.429515839,-9.924830437,13.0139637,18.88865478
23.79983638,-9.986445427,-10.80658531,13.38724422,19.8929557
23.80216784,-10.23230743,-11.77747345,13.27298737,20.48368106
23.80448633,-10.30708313,-12.68854046,12.51625729,20.5886308
23.8067919,-10.06002426,-13.57807255,11.26540947,20.30954438
23.80912336,-9.638289452,-14.29651737,9.752547264,19.8090689
23.81144185,-8.83250618,-14.79841137,8.475378036,19.20516017
23.81374742,-7.770093441,-15.12144279,7.313662529,18.50735108
23.81607883,-6.541378975,-15.23809242,6.696314335,17.88378386
23.81839737,-5.401198864,-15.28894043,6.253043652,17.37887233
23.82070294,-4.310071945,-15.34038639,5.972485542,17.01689626
23.82303435,-3.340978622,-15.26919937,6.304489613,16.85399587
23.82535284,-2.672184706,-15.11306763,6.829713821,16.798523
23.82765847,-2.287538528,-14.86242008,7.441080093,16.77778401
23.82998987,-2.131406784,-14.64168167,8.099704742,16.86792678
23.83230836,-2.232503414,-14.39342594,8.61655426,16.92335041
23.83461393,-2.556730986,-14.0937252,8.854640007,16.83967378
23.83694539,-2.925225735,-13.71266842,8.882157326,16.59779924
23.83926388,-3.296113253,-13.36630726,8.809774399,16.34425456
23.84158237,-3.633501291,-12.96191978,8.560322762,15.95283116
23.84390091,-3.850051641,-12.59761333,8.150551796,15.49045687
23.8462194,-3.961916208,-12.1980114,7.67916584,14.94850662
23.84852498,-3.976871252,-11.8151598,7.132406235,14.36261552
23.85085638,-3.901497364,-11.45862961,6.624529362,13.79877761
23.85317492,-3.742972851,-11.14875889,6.166304111,13.2788545
23.8554805,-3.495913982,-10.82632637,5.831906796,12.78443953
23.8578119,-3.241078377,-10.4793663,5.636293888,12.33245782
23.86013044,-3.026920557,-10.07617569,5.539384365,11.89017846
23.86243602,-2.809772015,-9.624530792,5.543571949,11.456771
23.86476742,-2.654836655,-9.140582085,5.550750256,11.01858552
23.86708591,-2.630310297,-8.664410591,5.685945034,10.69207716
23.86939149,-2.593819857,-8.115258217,5.915655613,10.3720923
23.87172294,-2.534597397,-7.556533813,6.165107727,10.07640514
23.87404143,-2.414956331,-7.044469833,6.295516491,9.751415138
23.87634701,-2.309672117,-6.571289062,6.426523209,9.477163383
23.87867846,-2.308475733,-6.099903107,6.542575359,9.238136741
23.88099696,-2.301297188,-5.65304327,6.610770702,8.997508335
23.88330253,-2.310270309,-5.178068161,6.774679184,8.834365672
23.88563393,-2.335993052,-4.788636208,6.957729816,8.76344136
23.88795248,-2.416750908,-4.521238327,7.217351437,8.852821173
23.89025805,-2.492124796,-4.339982033,7.730013371,9.208650105
23.89258946,-2.604587555,-4.293322086,8.554341316,9.919336985
23.894908,-2.7577281,-4.376472473,9.402596474,10.73160734
23.89721357,-2.937189817,-4.643870354,10.0899353,11.48909963
23.89954498,-2.963510752,-5.094917774,10.70369434,12.21923302
23.90186346,-2.87318182,-5.610570908,11.18046379,12.83496982
23.90416904,-2.867797852,-6.273981094,10.86999512,12.87415617
23.9065005,-2.686541557,-7.062416077,10.45304585,12.8981159
23.90881899,-2.490330219,-7.841279984,10.03071213,12.97314928
23.91112456,-2.157727718,-8.564510345,9.543174744,13.00303082
23.91345602,-1.943570137,-9.247661591,8.772686005,12.89405791
23.91577451,-1.868794441,-9.978070259,7.724031448,12.75597666
23.91808008,-1.590628862,-10.74616623,7.02652359,12.93762817
23.92041149,-1.520638824,-11.48973656,6.183651924,13.13635945
23.92273003,-1.59003067,-12.34875965,5.034498692,13.43004987
23.9250356,-1.779063582,-13.24307728,4.166502476,13.99656765
23.92736701,-2.114058733,-14.21815205,3.292523861,14.74672185
23.9296855,-2.449652195,-15.10050583,2.776272535,15.5477896
23.93199112,-2.79421854,-16.03669739,2.355733871,16.4478814
23.93432253,-3.253042459,-16.96092606,1.910070658,17.37537533
23.93664102,-3.732803345,-17.88036728,1.697707653,18.34457866
23.93894659,-4.235894203,-18.86262131,1.567298889,19.39581677
23.94127805,-4.710271358,-19.64268112,1.382453322,20.24679617
23.94359654,-5.126622677,-20.22294044,1.640878081,20.92706528
23.94590211,-5.468796253,-20.44607162,2.249851465,21.28406467
23.94823357,-5.73260498,-20.4556427,3.05324173,21.46202141
23.95055206,-5.874379635,-20.16012955,3.727419376,21.32680976
23.95285763,-5.82532692,-19.57687759,4.062414646,20.82526789
23.95518904,-5.44785881,-18.57368851,4.253840446,19.81807834
23.95750758,-4.923232555,-17.37548256,3.958925009,18.48833957
23.95981315,-4.328616142,-15.86022663,2.799004316,16.67687416
23.96214456,-3.710071564,-13.93759346,0.9439685345,14.45379601
23.96446305,-3.059821844,-11.66919804,-1.375274777,12.14183154
23.96676867,-2.540579557,-9.504889488,-3.561716557,10.46342647
23.96910008,-2.297708035,-7.706683636,-5.246861935,9.602186992
23.97141857,-2.466402054,-6.011966705,-6.338587284,9.077696377
23.97372414,-2.809173822,-4.590032101,-6.948757172,8.788917936
23.9760556,-3.355933666,-3.498904943,-7.156932354,8.64443794
23.97837409,-3.980460405,-2.662613392,-6.958926678,8.447498779
23.98067966,-4.701298237,-2.045265198,-6.454041004,8.242569995
23.98301107,-5.471786976,-1.667797327,-5.642873764,8.035174233
23.98532961,-6.220740795,-1.381256819,-4.788636208,7.970980063
23.98763518,-6.87158823,-1.006181955,-3.88594389,7.958120811
23.98996659,-7.342974663,-0.6454638839,-2.781058073,7.878463336
23.99228513,-7.517650604,-0.5611169338,-1.514656782,7.689220246
23.9945907,-7.498507977,-0.5964110494,-0.1740778536,7.524203022
23.99692211,-7.238886833,-0.7076773047,1.131805062,7.360928776
23.9992406,-6.894320011,-0.9517452121,2.434098721,7.373079679
24.00154623,-6.440282345,-1.323230863,3.528217077,7.461668201
24.00387763,-5.913861275,-1.804188251,4.385445595,7.580302335
24.00619612,-5.273182869,-2.258226395,5.071587563,7.65682992
24.00850169,-4.367499352,-2.899502754,5.456233978,7.566548489
24.01083315,-3.232703447,-3.780061483,5.401198864,7.342491782
24.01315164,-1.992623091,-4.679164886,4.755734921,6.962912139
24.01545722,-0.5312066078,-5.709274769,3.092125177,6.514540426
24.01778862,1.03549397,-6.777071953,0.3619144261,6.865270138
24.02010716,2.724826813,-7.94955492,-3.178266764,8.984513577
24.02241274,4.359723091,-9.24407196,-7.213762283,12.50993278
24.02474414,5.883352757,-10.51645565,-11.08774185,16.37521598
24.02706263,7.187440872,-11.65424252,-14.26900005,19.77587008
24.02936826,8.3641119,-12.57188988,-16.46082497,22.33762614
24.03169966,9.058030128,-13.36032486,-17.7696991,24.00642406
24.03401815,9.177671432,-14.0057888,-18.11306953,24.66728726
24.03632373,9.142974854,-14.47179127,-17.56092453,24.52371917
24.03865518,8.849256516,-14.71226978,-16.43151283,23.76457105
24.04097367,8.33180809,-14.87976742,-14.99402523,22.70786862
24.04327925,7.691728592,-15.07478237,-13.60080433,21.71160129
24.04561065,6.91106987,-15.19681644,-12.23749352,20.69933246
24.04792919,6.001199245,-15.08555031,-10.95852947,19.58768972
24.05023477,5.225326538,-15.40917969,-9.479764938,18.83116564
24.05256617,4.490729809,-15.66341686,-8.029714584,18.16550573
24.05488466,3.81296277,-15.7866478,-6.364908218,17.4433079
24.05719029,3.208176851,-15.80279922,-4.614558697,16.77244806
24.05952169,2.714657307,-15.92602921,-2.748156786,16.3878045
24.06184018,2.319841623,-16.09532166,-1.104287624,16.29909493
24.06414576,2.068595171,-16.22333717,0.3439682424,16.35830276
24.06647722,1.917249203,-16.29751587,1.688734531,16.49656608
24.06879571,1.77846539,-16.22154236,2.578864574,16.52125655
24.07110128,1.668395638,-15.94995785,3.000001431,16.31516803
24.07343268,1.613958836,-15.54257965,3.082553864,15.92729681
24.07575123,1.57866478,-15.04905987,2.897708178,15.40659268
24.0780568,1.518844128,-14.43709564,2.439482689,14.72031568
24.08038821,1.445863128,-13.84367561,1.890329838,14.04675128
24.08270669,1.383051515,-13.29452229,1.337587833,13.43303002
24.08501232,1.231705427,-12.78963661,0.7788637877,12.87239417
24.08734373,1.056431174,-12.19442272,0.4348955154,12.24782129
24.08966222,0.9349954724,-11.67817116,0.2057827413,11.71734802
24.09196779,0.8159525394,-11.21157074,-0.1280160099,11.24195201
24.09429925,0.6526423693,-10.92323494,-0.4079762697,10.95031727
24.09661774,0.4959124923,-10.78863907,-0.9445667267,10.8412577
24.09892331,0.4031906128,-10.58405304,-1.300499082,10.67127168
24.10125472,0.3158525825,-10.41416264,-1.655235052,10.54961371
24.10357326,0.2793620527,-10.26640511,-1.761117458,10.42010804
24.10587883,0.1776670814,-10.15394306,-1.972882271,10.34535595
24.10821024,0.1262213886,-10.15992451,-2.078166485,10.37105461
24.11052873,0.1531406492,-10.24606609,-2.158325911,10.47204341
24.11284727,0.1657029688,-10.34177971,-2.248056889,10.58459375
24.11516576,0.199800685,-10.38903809,-2.137987137,10.60862958
24.11748425,0.1734796464,-10.50927734,-2.032104731,10.70534703
24.11980274,0.2015953064,-10.70608711,-1.93040967,10.88059849
24.12212128,0.1507478207,-10.68754196,-1.625923038,10.81156343
24.12443977,0.1393819153,-10.58046341,-1.116251707,10.64009639
24.12675826,0.08494520187,-10.49432182,-0.5114658475,10.50712156
24.12907675,0.08554340899,-10.56490993,0.204586342,10.56723688
24.13139529,0.1459621787,-10.70668507,0.8542376757,10.74170061
24.13370086,0.1794617027,-10.87298584,1.381256819,10.96183826
24.13603227,0.2578266263,-10.96271706,1.411167145,11.05617622
24.13835081,0.3355933726,-10.73061275,1.119242787,10.79404361
24.1406693,0.4127618968,-10.44586754,0.6215356588,10.47247953
24.14298779,0.6011967063,-10.20239735,0.1112662554,10.22070102
24.14530628,1.009771109,-9.934999466,-0.4743770957,9.997443959
24.14762482,1.232901812,-9.60419178,-0.851246655,9.720348116
24.14994331,1.345962763,-9.227322578,-1.292124271,9.414068348
24.1522618,1.632503271,-8.836693764,-1.445264935,9.101703925
24.15456737,1.832902193,-8.312665939,-1.356730461,8.619783235
24.15689878,1.873580098,-7.990232944,-1.472782373,8.338058096
24.15921732,1.932204247,-7.788039684,-1.717448473,8.205888412
24.16152289,1.982453585,-7.604988575,-2.061416626,8.124986889
24.1638543,1.994417667,-7.249654293,-2.340778828,7.874924426
24.16617279,1.929213285,-6.948757172,-2.362912416,7.588836882
24.16847841,1.774278045,-6.721438885,-2.227119684,7.299716799
24.17080982,1.683350682,-6.570092678,-2.071586132,7.091632846
24.17312831,1.546959877,-6.342176437,-1.87417829,6.791820896
24.17543388,1.292124271,-6.150152206,-1.667797327,6.501961644
24.17776534,1.082154036,-6.19382143,-1.464407444,6.455925219
24.18008383,0.9966106415,-6.310471535,-1.149153113,6.491212263
24.18240232,0.9637092948,-6.354140759,-1.034895778,6.509596735
24.18472081,0.8117650747,-6.488138676,-1.250249863,6.657178887
24.18703935,0.6065805554,-6.637091637,-1.441675663,6.818896838
24.18935784,0.4103690982,-6.766902447,-1.494915962,6.942200318
24.19167633,0.2057827413,-6.838088989,-1.343569875,6.971871167
24.19399482,-0.0568295382,-6.853642464,-1.240678549,6.965265815
24.19631336,-0.2578266263,-6.877570629,-1.079761267,6.966587165
24.19863185,-0.4103690982,-6.966702938,-0.7800601721,7.022239422
24.20095034,-0.5318048596,-7.132406235,-0.5988038778,7.17722796
24.20326883,-0.5868397355,-7.268198967,-0.4695914388,7.306956495
24.20558737,-0.656829834,-7.216753006,-0.2416750938,7.250610749
24.20790586,-0.6831508875,-7.173682213,-0.06041877344,7.206390362
24.21022435,-0.6664010882,-7.317251682,0.1363908947,7.348800247
24.21254284,-0.5910272002,-7.742575645,0.4594219327,7.778679791
24.21486133,-0.6065805554,-8.173882484,0.8153542876,8.23681355
24.21716696,-0.6987041831,-8.405985832,1.140778184,8.511765987
24.21949836,-0.8410771489,-8.500502586,1.383051515,8.653252942
24.22181685,-0.9906286001,-8.484949112,1.53918314,8.68013774
24.22412242,-1.15393877,-8.459824562,1.613958836,8.689365306
24.22645388,-1.296909928,-8.438887596,1.564906001,8.680191819
24.22877237,-1.469791293,-8.394619942,1.553540111,8.662760373
24.23109086,-1.672582984,-8.313263893,1.517647743,8.614589083
24.2334094,-1.892722726,-8.274978638,1.534397483,8.626241731
24.23572789,-2.036890268,-8.254041672,1.623530149,8.655286017
24.23804638,-2.113460541,-8.2701931,1.718644857,8.707269923
24.24036487,-2.104487419,-8.279166222,1.794616938,8.728923793
24.24268336,-2.067996979,-8.211568832,1.756331801,8.648189151
24.2450019,-1.996810555,-8.137989998,1.570888042,8.525363502
24.24732039,-1.951945066,-8.132605553,1.280160069,8.460979401
24.24963888,-1.820937991,-8.134998322,1.067198873,8.40433973
24.25195737,-1.648056626,-8.136195183,0.8817551732,8.348128825
24.25427591,-1.441675663,-8.097909927,0.6257231236,8.249006203
24.2565944,-1.18743825,-8.068597794,0.337387979,8.16248189
24.25891289,-0.9332008362,-8.005785942,-0.008973085321,8.059997076
24.26123138,-0.6574280262,-8.033304214,-0.4504488707,8.072737602
24.26354992,-0.4055834413,-8.028517723,-0.9343972206,8.092879149
24.2658555,-0.1166501045,-8.008178711,-1.347757339,8.121636741
24.2681869,0.1525424421,-7.992625713,-1.693520188,8.171495923
24.27050539,0.4163511395,-7.972885132,-1.91066885,8.209196127
24.27281102,0.6149554253,-7.915457249,-1.94715941,8.174598669
24.27514242,0.7639086246,-7.950153351,-1.902892232,8.210328467
24.27746091,0.8368897438,-8.048856735,-1.710868239,8.271127452
24.2797794,0.8518448472,-8.15832901,-1.466800332,8.332795155
24.28209794,0.7962117195,-8.336593628,-1.074377418,8.443164884
24.28441643,0.6352944374,-8.527421951,-0.6311069727,8.574311644
24.28673492,0.5036891699,-8.740981102,-0.1920240223,8.757586804
24.28905341,0.2829512656,-8.98026371,0.1806581169,8.986536322
24.2913719,0.06759724021,-9.248857498,0.5473581553,9.265286577
24.29367753,-0.1543370634,-9.431310654,0.8949156404,9.474930848
24.29600893,-0.3732803464,-9.565906525,1.256830096,9.65533675
24.29832742,-0.5150550604,-9.702896118,1.523629785,9.835289651
24.300633,-0.6334998012,-9.811170578,1.785643935,9.992442863
24.30296446,-0.6729813814,-9.830911636,2.009372711,10.05670454
24.30528294,-0.6424728632,-9.762716293,2.181656122,10.02412212
24.30758852,-0.5204389095,-9.725627899,2.268395901,10.00021573
24.30991992,-0.2937189937,-9.778269768,2.213361025,10.02994504
24.31223846,0.008973085321,-9.848259926,2.11585331,10.07299058
24.31455696,0.3672982752,-9.83509922,1.971087694,10.03739366
24.31687544,0.7890332937,-9.830313683,1.79820621,10.02452923
24.31919393,1.262213945,-9.80997467,1.559522152,10.01303632
24.32149956,1.734198213,-9.713065147,1.233500123,9.943470247
24.32383097,2.258824587,-9.591031075,0.8506484628,9.890084347
24.32614946,2.806781054,-9.443872452,0.4109672904,9.860711987
24.32845503,3.36012125,-9.287740707,-0.04785645381,9.876984991
24.33078649,3.883551121,-9.117850304,-0.4977070987,9.922946932
24.33310498,4.385445595,-9.010771751,-0.903888762,10.06196579
24.33541055,4.819743156,-8.938986778,-1.2352947,10.23041356
24.33774196,5.209773064,-8.95932579,-1.541576028,10.4779631
24.34006044,5.493920803,-9.015557289,-1.729412556,10.69833196
24.34236607,5.648257732,-9.050253868,-1.870589137,10.83092859
24.34469748,5.804987907,-8.994022369,-1.979462504,10.88616529
24.34701596,5.86181736,-9.13220787,-2.025524378,11.03906121
24.34932154,5.848656654,-9.37687397,-1.952543259,11.2225209
24.351653,5.733801365,-9.591031075,-1.818545222,11.32128358
24.35397149,5.590231895,-9.839286804,-1.574477315,11.42546438
24.35628998,5.411966801,-10.22632599,-1.234696507,11.63578976
24.35860847,5.133202553,-10.62114143,-0.9050851464,11.83121266
24.36092701,4.855635166,-10.90110207,-0.5048855543,11.94429272
24.36323258,4.519443989,-11.09073257,-0.1202393398,11.97681846
24.36556399,4.179663181,-11.34796143,0.2177468538,12.09517369
24.36788248,3.804588079,-11.5334053,0.5641079545,12.15781831
24.37018805,3.485744476,-11.82891846,0.8727820516,12.36266456
24.37251951,3.111865759,-12.40379429,1.189232826,12.84336778
24.374838,2.665604353,-12.01077366,1.420738459,12.38477405
24.37714357,2.321038008,-11.99462128,1.541576028,12.31400072
24.37947498,2.015354872,-12.16032505,1.549352646,12.42319018
24.38179352,1.729412556,-12.22433281,1.642672777,12.45486067
24.38409909,1.460818172,-12.31705475,1.584048629,12.50412082
24.3864305,1.225723386,-12.43310642,1.554138303,12.58967351
24.38874899,1.036092162,-12.48515034,1.548156261,12.62336143
24.39105456,0.9056833982,-12.58445263,1.537986755,12.71039392
24.39338602,0.7393822074,-12.64128208,1.622931957,12.76646415
24.39570451,0.6484549642,-12.65743351,1.665404558,12.78298436
24.39801008,0.5347958803,-12.69392395,1.65463686,12.81247576
24.40034154,0.4504488707,-12.73400402,1.645065546,12.84772366
