Time (s),Acceleration x (m/s^2),Acceleration y (m/s^2),Acceleration z (m/s^2),Absolute acceleration (m/s^2)
40.00151534,-1.606182218,-1.359721422,0.394217521,2.141044398
40.00383388,-1.673779488,-1.37048912,0.522831738,2.225563126
40.00615237,-1.711466432,-1.418943882,0.6083751321,2.304916352
40.00847086,-1.744367719,-1.424925923,0.6317051649,2.339291354
40.01078935,-1.776670814,-1.468594909,0.6364908218,2.39132824
40.01310789,-1.794616938,-1.517049551,0.6179464459,2.429803923
40.01542638,-1.810768485,-1.60378933,0.575473845,2.48640159
40.01774487,-1.84606266,-1.706082582,0.485144794,2.560084099
40.02006336,-1.8628124,-1.77846539,0.4761717021,2.619112191
40.02238185,-1.861017823,-1.836491346,0.4576273263,2.654338067
40.02470039,-1.846660852,-1.878963947,0.5294120312,2.687180477
40.02701888,-1.808973908,-2.036890268,0.5168496966,2.772804028
40.02933737,-1.725823283,-2.126022816,0.5371887088,2.790521587
40.03165586,-1.642672777,-2.219941139,0.6005984545,2.826168965
40.03397435,-1.586441398,-2.371885538,0.6071787477,2.917413811
40.03629289,-1.523031592,-2.586641312,0.6329016089,3.067719504
40.03861138,-1.441077471,-2.825325251,0.6831508875,3.244358517
40.04092987,-1.374078393,-3.05862546,0.8428717852,3.457414349
40.04324836,-1.329811215,-3.311666489,0.9164510965,3.684483059
40.0455669,-1.320239902,-3.527618885,0.9559326172,3.885992224
40.04788539,-1.323829174,-3.772284985,1.043868899,4.131866402
40.05020388,-1.504487276,-3.988237143,1.120439172,4.407368989
40.05252237,-1.56191504,-4.253242016,1.289133191,4.710786625
40.054828,-1.60678041,-4.584648132,1.476969719,5.077615713
40.0571594,-1.657029629,-4.92143774,1.683948994,5.459119053
40.05947789,-1.727019787,-5.216353416,1.871187329,5.804677625
40.06178347,-1.785045743,-5.428716183,2.072782516,6.078961676
40.06411487,-1.81794703,-5.520241737,2.331207514,6.261990795
40.06643341,-1.809572101,-5.529214859,2.488535643,6.327683446
40.06873899,-1.924427629,-5.906084538,2.599801779,6.733812111
40.07107039,-2.045265198,-6.29790926,2.821137905,7.19761001
40.07338888,-2.103291035,-6.538986206,3.146561861,7.555330921
40.07569451,-2.103291035,-6.811768055,3.487539053,7.936431557
40.07802591,-2.103889227,-7.060621262,3.765704632,8.274010748
40.0803444,-2.124228239,-7.262216568,3.991228104,8.554650014
40.08264998,-2.105684042,-7.314858913,4.182653904,8.685370452
40.08498143,-1.969891191,-7.234101295,4.278367043,8.632329779
40.08729992,-1.973480463,-7.700103283,4.458426952,9.113933651
40.0896055,-2.030309916,-7.993822098,4.779663086,9.532498586
40.0919369,-2.087737799,-8.114660263,5.151747227,9.835998159
40.09425539,-2.143969059,-8.230711937,5.428716183,10.09020226
40.09656102,-2.185843468,-8.424530029,5.334797859,10.20836354
40.09889242,-2.198405743,-8.505886078,5.420939922,10.32325895
40.10121091,-2.180459738,-8.668598175,5.493920803,10.4920048
40.10351649,-2.197209358,-8.827122688,5.662016392,10.71467468
40.10584789,-2.175673962,-8.941379547,5.777470112,10.86558725
40.10816643,-2.093719721,-9.035298347,5.965306759,11.02747311
40.11048492,-2.058425665,-9.149555206,6.095117569,11.18489762
40.11280341,-1.998605132,-9.291928291,6.263213158,11.38253895
40.1151219,-1.934597135,-9.433703423,6.441478729,11.58577035
40.11744044,-1.956730723,-9.506684303,6.498906136,11.68082285
40.11975893,-1.962712765,-9.540184021,6.738188744,11.84358645
40.12207742,-2.016551256,-9.526425362,6.899703979,11.93420186
40.124383,-2.043470621,-9.473783493,7.103692055,12.01627175
40.12671446,-2.066800594,-9.397212982,7.369893551,12.12000856
40.12903294,-2.033301115,-9.352347374,7.785048485,12.33724826
40.13133852,-2.030309916,-9.32303524,7.975875854,12.4360661
40.13366992,-2.05124712,-9.169296265,8.274978638,12.52033866
40.13598847,-2.07098794,-9.044271469,8.531609535,12.60461022
40.13829404,-2.006979942,-8.86480999,8.883354187,12.70931966
40.14062544,-2.027917147,-8.682356834,9.154341698,12.77880042
40.14294393,-2.060818434,-8.432905197,9.46720314,12.84479653
40.14524951,-2.084746838,-8.192426682,9.875179291,12.99927653
40.14758096,-2.108076811,-7.966304779,10.29332447,13.1855424
40.14989946,-2.219342947,-7.762316704,10.43868923,13.1964115
40.15220503,-2.288734913,-7.494918823,10.53141022,13.12717475
40.15453643,-2.310270309,-7.11984396,10.81914711,13.15611915
40.15685498,-2.322832584,-6.817749977,10.77906799,12.96401067
40.15916055,-2.310270309,-6.558726788,10.77248764,12.82188504
40.16149196,-2.207977057,-6.398407936,10.51944637,12.50893836
40.16381044,-2.047657967,-6.25543642,10.31964588,12.24003591
40.16611602,-1.822732687,-6.193223,9.986445427,11.89148678
40.16844748,-1.571486235,-6.221338749,9.617352486,11.56149184
40.17076596,-1.281954765,-6.234499454,9.300303459,11.2697842
40.17308446,-0.9672985673,-6.304489613,8.989236832,11.02218829
40.17540294,-0.6083751321,-6.445665836,8.668598175,10.8194881
40.17772149,-0.3146561682,-6.602396011,8.271987915,10.58850441
40.18002706,-0.1232303679,-6.732804775,8.017151833,10.46998421
40.18235846,0.06281159073,-6.844070911,7.790432453,10.36996093
40.18467696,0.3272185028,-7.068996429,7.588837147,10.37633036
40.18698253,0.4456632137,-7.297510624,7.272386074,10.31212278
40.18931399,0.5180460811,-7.589435101,6.879364967,10.25639114
40.19163248,0.5922235847,-7.934001446,6.481558323,10.26205174
40.19393805,0.679561615,-8.239685059,6.098108292,10.27332169
40.19626946,0.6209374666,-8.453842163,5.736792088,10.23541861
40.198588,0.5437689424,-8.653044701,5.355735302,10.19091595
40.20089357,0.4247260094,-8.72841835,4.968696117,10.05254297
40.20322498,0.2745763958,-8.713463783,4.614558697,9.863771858
40.20554347,0.1591227055,-8.764909744,4.279563427,9.75518457
40.20784904,0.07896314561,-8.723632812,4.045066833,9.616161933
40.2101805,0.004187439568,-8.726025581,3.877569199,9.548773894
40.21249899,-0.03649054468,-8.602197647,3.77647233,9.394726136
40.21480456,-0.08554340899,-8.49332428,3.603590965,9.226578068
40.21713597,-0.1322034448,-8.330612183,3.492324591,9.033986282
40.21945451,-0.1884347796,-8.149953842,3.394817114,8.83074394
40.22176008,-0.2937189937,-7.917252064,3.286541939,8.577325283
40.22409149,-0.4582255483,-7.61455965,3.116053343,8.240223162
40.22640998,-0.6352944374,-7.369295597,2.989233732,7.97782144
40.2287156,-0.7902296782,-7.051050186,2.88993144,7.661166713
40.23104701,-1.022931695,-6.70588541,2.81395936,7.343953681
40.2333655,-1.203589797,-6.336194515,2.699702263,6.991736669
40.23567107,-1.356132269,-5.92642355,2.609971285,6.616157565
40.23800248,-1.501496196,-5.444868088,2.533401012,6.1902504
40.24032102,-1.662413478,-4.930410862,2.404188633,5.731726862
40.24262659,-1.828116536,-4.406383038,2.298904419,5.295581467
40.244958,-1.97826612,-3.905086517,2.160120726,4.881532454
40.24727649,-2.176272154,-3.401397467,2.078166485,4.541414004
40.24958211,-2.360519648,-2.887538671,1.934597135,4.201499573
40.25191352,-2.594418049,-2.461018085,1.757528186,3.984535149
40.25423201,-2.790031195,-2.067398787,1.624726534,3.833816391
40.25653758,-2.982653379,-1.764706731,1.506281853,3.778795582
40.25886904,-3.183052301,-1.543370605,1.345364571,3.784682365
40.26118753,-3.343969584,-1.345962763,1.189831018,3.795977633
40.2634931,-3.494119167,-1.225125194,1.101894855,3.863155804
40.26582451,-3.66101861,-1.195214868,0.9900303483,3.976399871
40.268143,-3.850051641,-1.271785259,0.9314061999,4.160270772
40.27044862,-4.043272018,-1.353141189,0.9116654396,4.360065775
40.27278003,-4.290330887,-1.575075507,0.9158528447,4.661178864
40.27509852,-4.588835716,-1.832303882,0.9242277741,5.026822826
40.27740409,-4.91067028,-2.16131711,1.082154036,5.47330171
40.27973555,-5.277968407,-2.592025042,1.320239902,6.026489668
40.28205404,-5.600401402,-3.113062143,1.583450437,6.600224773
40.28435961,-5.971887112,-3.74536562,1.818545222,7.279993546
40.28669102,-6.390631199,-4.456034184,2.129612207,8.076611661
40.28900956,-6.701697826,-5.274379253,2.614757061,8.920133673
40.29131513,-6.921837807,-6.171687603,3.248854876,9.82632304
40.29364654,-7.059424877,-7.263412952,3.775874138,10.80971197
40.29596503,-7.092924595,-8.574680328,4.438685894,11.98067838
40.2982706,-7.053442955,-10.17607689,5.318646431,13.47559269
40.30060206,-7.018148899,-12.05085278,6.448657036,15.36433025
40.30292055,-6.983452797,-14.15653706,7.780860901,17.59880538
40.30522612,-6.833303452,-16.47937012,9.178269386,20.06250992
40.30755753,-6.678368092,-19.08993912,10.81555843,22.93474831
40.30987607,-6.336194515,-21.98525429,12.09392357,25.87975569
40.31218164,-5.673382282,-24.61436844,12.92064381,28.37247674
40.31451305,-4.511068821,-26.8055954,13.10429287,30.17635131
40.31683154,-2.968296528,-28.63371277,12.86381435,31.5305885
40.31913711,-1.320838094,-30.27100182,12.60897923,32.81866117
40.32146857,0.2512463629,-31.72703362,12.85304642,34.2325662
40.32378706,1.438684583,-32.82653427,13.53021526,35.53474202
40.32609263,2.14696002,-33.51507187,14.27079391,36.49006767
40.32842404,2.601596355,-33.67179871,14.59083462,36.78927543
40.33074258,2.745165825,-32.95933914,13.41835117,35.69182148
40.33304815,2.638685226,-30.75794029,10.54875851,32.62345562
40.33537956,2.37248373,-27.04069138,6.025725842,27.80534195
40.33769805,2.198405743,-22.14138603,0.9894321561,22.27224594
40.34000362,2.209771633,-17.90608978,-4.751547337,18.65712583
40.34233508,2.239083767,-14.65304756,-9.525827408,17.62006489
40.34465357,2.098505497,-11.7146616,-13.55055428,18.03481474
40.34695914,1.998605132,-9.090332985,-16.16531181,18.65330754
40.34929055,1.951346874,-7.14197731,-16.6283226,18.20210721
40.35160909,1.706082582,-5.754140377,-16.14975739,17.22891502
40.35391466,1.261615753,-4.399204254,-15.07538128,15.75473875
40.35624607,0.799800992,-3.24466753,-13.49432373,13.90195389
40.35856456,0.2985046208,-2.249851465,-11.98026466,12.19334565
40.36087013,-0.1339980662,-1.623530149,-10.56251717,10.68740261
40.36320159,-0.6544370055,-1.296909928,-9.224330902,9.33801605
40.36552008,-1.135394335,-0.6873382926,-8.254639626,8.360659637
40.36782565,-1.582852125,-0.4019941986,-6.973283291,7.161962025
40.37015706,-2.078166485,-0.5898307562,-5.797809124,6.187185701
40.3724756,-2.571087837,-0.926620543,-5.036293507,5.730041063
40.37478117,-3.020340443,-1.314856052,-4.278964996,5.400078172
40.37711258,-3.40498662,-1.731207132,-3.702294827,5.319586356
40.37943107,-3.734597921,-2.069193363,-3.134597778,5.296648567
40.38173669,-4.028316975,-2.338984251,-2.592025042,5.330739047
40.3840681,-4.348356724,-2.68175602,-1.947757602,5.467520573
40.38638659,-4.698905468,-3.05324173,-1.022931695,5.696348559
40.38869216,-5.10448885,-3.574278831,0.1028913707,6.232323982
40.39102357,-5.479563713,-4.094717979,1.572682738,7.018950407
40.39334211,-5.764907837,-4.709673405,2.347358942,7.805464749
40.39564768,-5.776872158,-5.525027275,0.4546363056,8.006551848
40.39797909,-5.590830326,-6.250650883,-1.980658889,8.616903726
40.40029758,-5.342574596,-6.954140663,-3.929612875,9.609632305
40.40260321,-4.8346982,-7.540382385,-5.289334297,10.40234255
40.40493461,-4.30827713,-7.894520283,-6.126822472,10.88221742
40.4072531,-3.781856298,-8.175676346,-6.658627033,11.20184961
40.40955867,-3.137588739,-8.608778,-7.074978352,11.57630513
40.41189013,-2.408974171,-9.29791069,-7.60678339,12.25224279
40.41420862,-1.731805444,-10.11864853,-8.001000404,13.01546025
40.41651419,-0.932602644,-11.00818062,-8.344968796,13.84515411
40.4188456,-0.1603191197,-11.90728378,-8.312665939,14.52272441
40.42116409,0.6472585201,-12.95892906,-8.121239662,15.3071003
40.42346972,1.465603828,-14.08714485,-7.752147198,16.14594162
40.42580112,2.196611166,-15.16870117,-7.294519901,16.9742339
40.42811961,3.001796007,-16.23829269,-6.597609997,17.78261473
40.43042518,3.845864296,-17.42273903,-5.737390518,18.7419358
40.43275664,4.816154003,-18.71546173,-5.333003521,20.04756279
40.43507513,5.598008633,-19.66122627,-4.60379076,20.95462738
40.4373807,6.11784935,-19.90649033,-3.762713671,21.16257196
40.43971211,6.519245148,-19.83291054,-2.838485956,21.06897957
40.4420306,6.798607349,-19.62294006,-2.112264156,20.87444606
40.44433623,6.735795975,-19.49073601,-2.395813704,20.76053132
40.44666763,6.513861656,-19.58345795,-2.983849764,20.85295131
40.44898612,6.150152206,-19.26102638,-3.351746321,20.49501678
40.45129169,5.910870075,-18.39183235,-3.069393158,19.56065072
40.45362315,5.61715126,-17.31266975,-2.669791937,18.39588843
40.45594164,5.2707901,-16.2394886,-2.179263115,17.21195532
40.45824722,4.892126083,-15.19203091,-1.856232166,16.0678654
40.46057862,4.361517429,-14.28634739,-1.615155339,15.02435632
40.46289711,3.668197155,-13.37049484,-1.456032634,13.94079746
40.46520274,2.926422119,-12.47019482,-1.125224829,12.85829834
40.46753414,2.298306227,-11.68654537,-0.865005374,11.94176656
40.46985263,1.723430514,-11.0997057,-0.6789634228,11.25320713
40.4721582,1.0863415,-10.67797089,-0.4971089065,10.7445948
40.47448966,0.4229314029,-10.15992451,-0.3541377485,10.17488823
40.47680815,-0.3050848842,-9.691530228,-0.2829512656,9.700458564
40.47911373,-0.9439685345,-9.38465023,-0.185443759,9.433828805
40.48144513,-1.540379524,-9.105288506,0.1268195957,9.235536317
40.48376367,-2.032702923,-8.822935104,0.5401797295,9.070163128
40.48606925,-2.369492531,-8.690732002,1.080359459,9.072513111
40.48840065,-2.702693224,-8.50110054,1.514656782,9.04806312
40.49071914,-2.812762976,-8.23370266,1.902892232,8.906542196
40.49302472,-2.908475876,-8.062616348,1.972284079,8.795164512
40.49535612,-3.001197815,-7.959724426,1.922633052,8.721291138
40.49767466,-2.899502754,-7.841877937,1.946561217,8.584361734
40.49998024,-2.659024239,-7.759325504,2.033899307,8.45069752
40.50231164,-2.383251429,-7.719245911,2.074577332,8.340894191
40.50463018,-2.16131711,-7.618149281,1.999203324,8.167270293
40.50693576,-1.993819475,-7.389036179,1.737189293,7.847993271
40.50926716,-1.762313843,-7.210771084,1.399203062,7.553723513
40.51158565,-1.459023595,-7.146762848,0.9337990284,7.353703127
40.51389123,-1.271785259,-7.047461033,0.4432703853,7.175000585
40.51622268,-1.173679471,-6.863213539,0.05204389244,6.963040439
40.51854117,-1.180858016,-6.643671989,-0.3457628787,6.756652657
40.52084675,-1.089332461,-6.555736065,-0.7651050687,6.68952213
40.52317815,-0.793818891,-6.491727829,-0.9966106415,6.615580958
40.52549669,-0.2955136001,-6.402595043,-0.8739784956,6.468723984
40.52780227,0.3631108403,-6.416353703,-0.9487541914,6.496274227
40.53013367,0.8303094506,-6.535397053,-1.082154036,6.676217925
40.53245216,0.9756734371,-6.700501442,-1.399801254,6.9143403
40.53475774,1.194018483,-6.931408882,-1.773081541,7.253545849
40.53708919,1.594218135,-6.994220734,-2.064407825,7.464746131
40.53940768,1.981855392,-6.937989235,-2.395813704,7.60285267
40.54171326,2.304288149,-6.820142746,-2.541775942,7.634442736
40.54404466,2.639881611,-6.701697826,-2.57766819,7.650235419
40.54636321,2.913859844,-6.623332977,-2.480160713,7.649203624
40.54866878,3.074178934,-6.566503525,-2.407777786,7.639825818
40.55100018,3.157329559,-6.689135551,-2.26241374,7.735100536
40.55331867,3.234498024,-6.93679285,-2.155334949,7.951511885
40.55562425,3.278167009,-7.194619656,-1.995614052,8.154226289
40.55795571,3.293720484,-7.501499176,-1.759921074,8.379642397
40.56027419,3.231507063,-7.737790108,-1.58703959,8.534326471
40.56259268,3.16032052,-7.984251022,-1.347159147,8.691992174
40.56491117,3.031108141,-8.240880966,-1.069591761,8.845550418
40.56722966,2.856431961,-8.427521706,-0.7932206988,8.933729609
40.56954821,2.678166628,-8.603992462,-0.5694918036,9.029151881
40.57186669,2.536391973,-8.708079338,-0.3314059377,9.075999113
40.57418518,2.39760828,-8.758927345,-0.1465603858,9.082335253
40.57650367,2.313859463,-8.726624489,0.08673982322,9.028590387
40.57882222,2.198405743,-8.714659691,0.2380858511,8.990826781
40.5811407,2.044068813,-8.689535141,0.3128615618,8.932195734
40.58345919,1.966302037,-8.623732567,0.3260220885,8.85106759
40.58577768,1.955534339,-8.586046219,0.3164508045,8.811608555
40.58809623,1.877767563,-8.472985268,0.1573280841,8.679990927
40.59041472,1.760519266,-8.288139343,-0.1555334777,8.474483614
40.5927332,1.645065546,-8.195417404,-0.3762713671,8.367358437
40.59505169,1.590628862,-8.072187424,-0.4683950245,8.240734426
40.59737018,1.476371527,-7.896913052,-0.470787853,8.047518241
40.59968873,1.392024517,-7.634898663,-0.3349951804,7.767987617
40.60200722,1.412363529,-7.523632526,-0.2356930375,7.658679282
40.6043257,1.436890006,-7.570890903,-0.2063809484,7.70880244
40.60664419,1.463809252,-7.666603565,-0.2961117923,7.810712512
40.60896274,1.490130305,-7.728816986,-0.3619144261,7.879472215
40.61128123,1.520040631,-7.756932735,-0.4283152521,7.916058548
40.61359972,1.640878081,-7.825726509,-0.3936193287,8.005586328
40.6159182,1.764706731,-7.875377655,-0.2536391914,8.074657633
40.61823669,1.847857237,-7.974081516,-0.1471585929,8.186709232
40.62055524,1.945364833,-8.106285095,0.02691925503,8.336487691
40.62287373,2.021337032,-8.334200859,0.2338984162,8.579010189
40.62519222,2.104487419,-8.673383713,0.5186443329,8.940103147
40.62751071,2.138585329,-8.945567131,0.6783652306,9.222629663
40.62982925,2.160120726,-9.290133476,0.8907282352,9.57946232
40.63214774,2.199602127,-9.606584549,1.170090318,9.924405653
40.63446623,2.173879385,-9.793823242,1.414756417,10.13144911
40.63678472,2.14995122,-10.00977516,1.539781332,10.35320316
40.63909029,2.005783558,-10.16231823,1.578066587,10.47788975
40.64142175,1.860419631,-10.25204849,1.605584025,10.54246459
40.64374024,1.689332843,-10.32802105,1.700100541,10.60246227
40.64605873,1.515254974,-10.47099209,1.871187329,10.74425498
40.64837722,1.303490162,-10.42253685,1.978864312,10.68851089
40.65069576,1.144367456,-10.4165554,2.197209358,10.70709729
40.65301425,0.9355936646,-10.5170536,2.382055044,10.82395206
40.65533274,0.7830511928,-10.73240757,2.496910334,11.04682319
40.65765123,0.5862415433,-10.91426182,2.553740025,11.22436538
40.65996977,0.4803591371,-11.06082249,2.568096876,11.36519514
40.66228826,0.4115654826,-11.18704414,2.620738983,11.49728732
40.66460675,0.3924229145,-11.33659554,2.578864574,11.63283871
40.66692524,0.4683950245,-11.50289631,2.542374134,11.78981271
40.66924373,0.5868397355,-11.62014484,2.382055044,11.87629291
40.67156227,0.8063812256,-11.73081303,2.23728919,11.9694481
40.67388076,1.057627559,-11.80738354,2.015354872,12.02474687
40.67619925,1.394417405,-11.8528471,1.785045743,12.06734323
40.67851774,1.792822361,-11.86780167,1.536192179,12.10036424
40.68083628,2.264806747,-11.79960632,1.353739381,12.09101606
40.68315477,2.811566591,-11.70449162,1.224527001,12.09956599
40.68547326,3.342175007,-11.51486111,1.146760225,12.0448005
40.68777883,3.870988846,-11.29591751,1.054636598,11.9872668
40.69011024,4.36211586,-11.07817078,0.9990034699,11.94788393
40.69242878,4.828716278,-10.87059307,0.9828519225,11.93533797
40.69473435,5.220541,-10.68873882,0.9469595551,11.93314369
40.69706576,5.554339409,-10.67079258,0.9541380405,12.06759628
40.69938425,5.720042706,-10.63789082,0.9272187948,12.11376672
40.70168987,5.939583778,-10.26281643,0.8931210637,11.89124559
40.70402128,6.083153248,-10.07258701,0.8356932998,11.79661587
40.70633977,6.091528416,-10.02473068,0.7734799385,11.75585875
40.70864534,5.991627693,-10.01276588,0.7627122402,11.69345172
40.7109768,5.885745525,-10.00020409,0.8380861282,11.63393616
40.71329529,5.727818966,-9.999007225,0.917647481,11.55985002
40.71561378,5.475376606,-10.03848934,0.9726824164,11.47593693
40.71793227,5.121238708,-10.04686451,1.094716311,11.32982684
40.72025076,4.706083775,-10.08036327,1.262812138,11.19623342
40.7225693,4.219742775,-10.12941647,1.425524116,11.06541576
40.72488779,3.675973892,-10.1904335,1.569093466,10.94622187
40.72720628,3.125026464,-10.31306553,1.698305845,10.90914083
40.72951185,2.612364054,-10.45484066,1.804786444,10.92636231
40.73184331,2.105085611,-10.57687473,1.872383714,10.94566057
40.7341618,1.588235974,-10.72881889,1.916650891,11.01379131
40.73646737,1.132403374,-10.81615639,1.951346874,11.04895158
40.73879878,0.7256234884,-10.94596672,1.972882271,11.14598499
40.74111727,0.3768695593,-11.11226845,1.937588096,11.28622117
40.74342289,0.08195417374,-11.29232788,1.859821439,11.44475082
40.7457543,-0.1651047617,-11.47119141,1.744367719,11.60423675
40.74807279,-0.3218346536,-11.66201973,1.658824325,11.78380159
40.75037836,-0.4259224236,-11.87617683,1.597807288,11.99074536
40.75270982,-0.4516452849,-12.14118195,1.499103427,12.2417153
40.75502831,-0.4426721931,-12.43430328,1.334596872,12.51355288
40.75733388,-0.4097708762,-12.71187019,1.222134113,12.7770563
40.75966529,-0.3541377485,-13.00439262,1.124626637,13.05773434
40.76198383,-0.3296113312,-13.19103336,1.044467092,13.23642385
40.7642894,-0.2877369225,-13.3148613,0.9984052777,13.35534114
40.76662081,-0.2721835673,-13.35314655,0.965503931,13.39077311
40.7689393,-0.2255235314,-13.29930782,0.9272187948,13.33349857
40.77125779,-0.1322034448,-13.23948765,0.956530869,13.27465488
40.77357633,-0.06340979785,-13.14138222,0.9990034699,13.17945201
40.77589482,0.02871387079,-13.04806232,1.095314622,13.09398599
40.77821331,0.1280160099,-13.03609753,1.200598717,13.09189307
40.7805318,0.2165504545,-12.9954195,1.329811215,13.06507635
40.78285034,0.2733799815,-12.8632164,1.501496196,12.95343829
40.78516883,0.4061816335,-12.68255806,1.634297848,12.79387322
40.78748732,0.5461617708,-12.60718441,1.764108539,12.74172164
40.78980581,0.733400166,-12.66461182,1.837687731,12.81824342
40.7921243,0.8937192559,-12.80459213,1.925624013,12.9793814
40.79444284,1.04685986,-13.00798225,1.962114573,13.19671972
40.79676133,1.223330617,-13.22453213,2.017747641,13.43339471
40.79907982,1.407577872,-13.52782249,2.011765718,13.74883479
40.80139831,1.583450437,-13.85025597,1.953739643,14.07671852
40.80371685,1.77009058,-14.23011589,1.915454507,14.46714847
40.80602242,1.968694806,-14.67219067,1.839482427,14.91752774
40.80835383,2.127817631,-15.07179165,1.719841242,15.3181058
40.81067232,2.301297188,-15.467206,1.604985833,15.71961863
40.81297789,2.429313183,-15.77647781,1.484148264,16.03126666
40.81530935,2.563909531,-15.9750824,1.410568953,16.24089266
40.81762784,2.718844652,-16.03370667,1.345364571,16.31814547
40.81993341,2.837289333,-15.98285866,1.260419369,16.2816043
40.82226482,2.96291256,-15.8123703,1.17906332,16.13071901
40.82458336,3.050250769,-15.48874092,1.110867858,15.82526943
40.82690185,3.150749207,-15.13041592,1.085145116,15.49303864
40.82922034,3.163311481,-14.69372559,1.063011408,15.06791639
40.83153883,3.147758245,-14.27617836,1.006780148,14.65371137
40.83385737,3.164507866,-13.96810246,0.9475577474,14.353392
40.83617586,3.072384357,-13.71147156,0.8781659007,14.07889105
40.83849435,3.021536827,-13.56431293,0.7716853023,13.91818122
40.84081284,2.971885681,-13.440485,0.665802896,13.78122038
40.84313133,2.932404041,-13.37468243,0.5455635786,13.70323915
40.84544987,2.894717216,-13.38006592,0.4785645306,13.69797707
40.84776836,2.881556749,-13.45244884,0.5312066078,13.76785857
40.85008685,2.883351326,-13.52901936,0.6227321029,13.84687239
40.85240534,2.880958557,-13.634902,0.6664010882,13.95186601
40.85472388,2.880360365,-13.77906895,0.5862415433,14.08910558
40.85704237,2.794816732,-13.88674641,0.3385843933,14.16924012
40.85936086,2.657827854,-13.88554955,0.1130608693,14.13808042
40.86167935,2.508874655,-13.79342651,0.005982056726,14.01973976
40.86399789,2.309073925,-13.64447308,0.03230310604,13.83851551
40.86631638,2.094317913,-13.48594856,0.1196411327,13.64812405
40.86863487,1.840678811,-13.31426334,0.2925225794,13.4440796
40.87095336,1.604985833,-13.1324091,0.4797609448,13.23881863
40.87327185,1.399801254,-12.86680603,0.8715856671,12.97203926
40.87559039,1.173081279,-12.58325577,1.450050473,12.72073472
40.87790888,0.9577272534,-12.3996067,2.176870346,12.62561889
40.88022737,0.7525427341,-12.26859951,2.99401927,12.65104762
40.88253294,0.5545366406,-12.28116226,3.822534084,12.87424655
40.8848644,0.3361915946,-12.36192036,4.599005222,13.19397396
40.88718289,0.09272187948,-12.55813122,5.274977684,13.62133057
40.88948846,-0.1040877849,-12.83091354,5.74337244,14.0580761
40.89181987,-0.2829512656,-13.1521492,5.930012703,14.42997369
40.89413841,-0.4899304509,-13.440485,5.815755367,14.6529751
40.89644399,-0.7531409264,-13.76949787,5.204987526,14.73968073
40.89877539,-1.001994491,-13.96929836,4.164109707,14.6111293
40.90109388,-1.21854496,-14.02971745,2.841476917,14.36634311
40.90339946,-1.433300734,-14.26840115,1.253240824,14.39486835
40.90573091,-1.537388563,-14.54716492,-0.4301098585,14.63449914
40.9080494,-1.529611826,-14.69432354,-2.054836512,14.91593811
40.91035498,-1.421934843,-14.76610851,-3.388834953,15.21657194
40.91268638,-1.274178028,-14.76012611,-4.671388149,15.53405033
40.91500492,-1.079761267,-14.75294781,-5.752943993,15.871727
40.9173105,-0.903888762,-14.62553024,-6.73400116,16.12668352
40.9196419,-0.7268198729,-14.58963776,-7.520043373,16.429755
40.92196039,-0.5659025311,-14.75952816,-8.009375572,16.80220266
40.92426602,-0.4863412082,-15.00239944,-8.24506855,17.1257021
40.92659742,-0.4917250574,-15.30568981,-8.333602905,17.43430158
40.92891591,-0.5282155871,-15.580266,-8.264809608,17.64456795
40.93122149,-0.6239284873,-15.78844166,-8.121239662,17.76566099
40.93355294,-0.7746763229,-15.94038582,-7.868198872,17.79338576
40.93587143,-0.956530869,-16.00200081,-7.554739475,17.72154253
40.93817701,-1.11445713,-16.15334702,-7.021139622,17.64848538
40.94050841,-1.247856975,-16.32862091,-6.405586243,17.58444037
40.9428269,-1.390828133,-16.38844299,-5.676373482,17.39932995
40.94514544,-1.566102386,-16.39083481,-4.65762949,17.11156494
40.94746393,-1.796411633,-16.326828,-3.439084291,16.78152878
40.94978242,-2.072782516,-16.21974754,-2.015354872,16.47538446
40.952088,-2.322234392,-16.08335686,-0.4683950245,16.2568919
40.95441946,-2.624926329,-16.07797432,1.016949654,16.32255136
40.95673794,-2.915654421,-16.11625862,2.260020971,16.53307374
40.95904352,-3.242872953,-16.15992737,3.445066452,16.83828852
40.96137492,-3.562314749,-16.25743484,4.344169617,17.20075823
40.96369341,-3.933202267,-16.44347763,4.781457901,17.57044041
40.96599904,-4.35852623,-16.52483368,5.145765305,17.84785084
40.96833044,-4.811367989,-16.47219086,5.556732178,18.0377273
40.97064893,-5.200799942,-16.40399551,5.719444275,18.13426127
40.97295451,-5.523232937,-16.28256035,5.639284611,18.09501049
40.97528597,-5.804987907,-16.16411591,5.344967365,17.98736233
40.97760446,-6.061617851,-16.25743484,4.861617565,18.01895458
40.97991003,-6.235097408,-16.37348747,4.250251293,18.02864853
40.98224143,-6.328417778,-16.28076553,3.733401537,17.86198435
40.98455998,-6.351149559,-16.14736557,3.111865759,17.62833583
40.98686555,-6.397211552,-16.26999664,2.105684042,17.60883334
40.98919696,-6.45284462,-16.33221054,0.87517488,17.58255487
40.99151544,-6.521039963,-16.12403488,-0.214157626,17.39408884
40.99382102,-6.585646152,-15.6999073,-1.310668588,17.07558716
40.99615248,-6.519245148,-15.17707539,-2.362912416,16.68614784
40.99847096,-6.345765591,-14.78046513,-3.275176048,16.41516581
41.00077654,-6.153741837,-14.35573959,-4.264009953,16.19066332
41.003108,-5.843871117,-13.74915886,-4.971687317,15.74509046
41.00542649,-5.416153908,-13.23530006,-5.276772022,15.24310381
41.00773206,-4.922634602,-12.79143143,-5.223531723,14.66759466
41.01006346,-4.337589264,-12.45524025,-4.881956577,14.06347007
41.01238201,-3.678964853,-12.21356487,-4.486542225,13.52164969
41.01468758,-3.020938635,-11.97667599,-4.115654945,13.01942601
41.01701899,-2.44247365,-11.61595726,-3.626920938,12.41171608
41.01933748,-1.965703845,-11.04227829,-3.087339401,11.6330377
41.02164305,-1.418943882,-10.50867844,-2.112862349,10.81248868
41.02397451,-1.009771109,-10.07557774,-1.660020709,10.26121694
41.026293,-0.6526423693,-9.663414001,-1.134796143,9.751680599
41.02859857,-0.24765715,-9.343972206,-0.2608176768,9.35089175
41.03092998,0.1483550072,-9.151350021,0.285344094,9.156999382
41.03324852,0.4199403822,-8.972486496,0.2769692242,8.986577535
41.03555409,0.6275177598,-8.925228119,-0.1465603858,8.948461067
41.0378855,0.8823533654,-8.848059654,-0.6263213158,8.913976974
41.04020399,1.080359459,-8.772088051,-1.173679471,8.915953613
41.04250956,1.229910851,-8.567501068,-1.47457695,8.78004171
41.04484102,1.578066587,-8.328817368,-1.706680775,8.647095013
41.04715951,2.034497499,-8.165507317,-1.990230203,8.647294726
41.04946508,2.405385017,-7.993822098,-2.398804665,8.685697015
41.05179649,2.663809776,-7.849654675,-3.026920557,8.824693144
41.05411503,2.766103029,-7.743174076,-3.642474174,8.993091173
41.0564206,2.819941521,-7.618149281,-4.276572227,9.180268986
41.05875201,2.832503796,-7.431509018,-4.674378872,9.22497815
41.0610705,2.789433002,-7.104888439,-4.490729809,8.855903705
41.06337612,2.835494757,-6.857829571,-3.881756544,8.374836763
41.06570753,2.885744095,-6.73100996,-3.419343472,8.082445412
41.06802602,2.944966555,-6.705287457,-3.151945591,7.972983688
41.07034451,2.953341246,-6.690331936,-3.070589542,7.931663512
41.07266305,2.953939438,-6.714260101,-3.041875839,7.941036175
41.07498154,2.928216696,-6.643074036,-3.066402197,7.880844377
41.07730003,2.958127022,-6.507879257,-3.029313564,7.764003386
41.07961852,2.827718258,-6.251847267,-3.098705292,7.52884847
41.08193706,2.694916487,-5.928217888,-3.073580742,7.200919439
41.08424263,2.784049034,-5.729015827,-2.907877684,7.002021422
41.08657404,2.803191662,-5.406582832,-2.800200701,6.702995254
41.08889253,2.764906645,-5.061418056,-2.669193745,6.355096911
41.0911981,2.663809776,-4.674378872,-2.606382132,5.978204428
41.09352956,2.599801779,-4.310669899,-2.404786825,5.578874792
41.09584805,2.489732027,-3.972085476,-2.226521492,5.189761704
41.09815362,2.357528448,-3.667598963,-2.200798512,4.883926353
41.10048503,2.292324066,-3.400201082,-2.05124712,4.585164312
41.10280357,2.234298229,-3.204587698,-2.000399828,4.388971447
41.10510914,2.148754835,-3.03350091,-1.993221283,4.218080866
41.10744055,2.009970903,-2.835494757,-1.938186288,3.979520026
41.10975904,1.820937991,-2.599203587,-1.841875196,3.669356713
41.11206466,1.612762451,-2.339582443,-1.673779488,3.297906382
41.11439607,1.358525038,-2.105085611,-1.625324726,2.986411923
41.11671456,1.124028444,-1.904686809,-1.571486235,2.713086944
41.11902013,0.903888762,-1.703091502,-1.532004714,2.462635581
41.12135159,0.694516778,-1.58703959,-1.47756803,2.276896023
41.12367008,0.5126622319,-1.529611826,-1.589432478,2.264692143
41.12597565,0.3463610709,-1.504487276,-1.70548439,2.300461902
41.12830706,0.1543370634,-1.461416483,-1.688136339,2.238160487
41.1306256,-0.0466600433,-1.44646132,-1.6713866,2.210873283
41.13294409,-0.2243271172,-1.407577872,-1.625324726,2.16177672
41.13526258,-0.3780659735,-1.396810174,-1.540977836,2.113912305
41.13758107,-0.5312066078,-1.409372568,-1.466202021,2.101965714
41.13989961,-0.7226324677,-1.414158225,-1.353141189,2.08639216
41.1422181,-0.9332008362,-1.42372942,-1.226321578,2.098030952
41.14453659,-1.125823021,-1.39860487,-1.084546804,2.097573557
41.14684216,-1.332203984,-1.369890928,-0.9864411354,2.150449889
41.14917357,-1.571486235,-1.375274777,-0.9601200819,2.298429958
41.15149211,-1.789233088,-1.284347534,-0.8434699774,2.358462473
41.15379768,-1.893320918,-1.209571838,-0.5874379873,2.322242778
41.15612909,-2.018345833,-1.17906332,-0.5072783828,2.391911698
41.15844758,-2.160718918,-1.205982566,-0.5324030519,2.531116987
41.16075321,-2.326421738,-1.238883972,-0.5479564071,2.692086147
41.16308461,-2.449652195,-1.284945726,-0.5102694035,2.81287331
41.1654031,-2.563909531,-1.330409408,-0.4205385745,2.918985092
41.16772159,-2.702095032,-1.372283816,-0.2979064286,3.045197641
41.17004013,-2.831905603,-1.39860487,-0.08374879509,3.159556739
41.17235862,-3.037688255,-1.441675663,0.1202393398,3.364585584
41.17467711,-3.211766243,-1.421336651,0.366101861,3.531242111
41.1769956,-3.323630571,-1.427916884,0.6514459848,3.675574605
41.17931414,-3.372683525,-1.452443361,0.9421738982,3.791078677
41.18161972,-3.392424345,-1.515254974,1.243071318,3.917877853
41.18395112,-3.34576416,-1.575673699,1.554138303,4.011512344
41.18626961,-3.303889751,-1.641476393,1.883749604,4.142299459
41.18857518,-3.192025423,-1.80658114,2.162513494,4.25784292
41.19090664,-3.235694408,-1.92203474,2.669193745,4.61394962
41.19322513,-3.296113253,-1.951346874,3.154936552,4.962433057
41.1955307,-3.234498024,-2.093121529,3.671786308,5.322137718
41.19786211,-3.230310678,-2.23130703,4.226323128,5.768487264
41.20018065,-3.256631613,-2.322234392,4.785047054,6.236593409
41.20248623,-3.228515863,-2.483151674,5.434698582,6.791561352
41.20481763,-3.150749207,-2.739781857,6.03888607,7.341782492
41.20713612,-3.043670416,-3.00538516,6.68076086,7.932769708
41.20944175,-2.899502754,-3.278765202,7.447062492,8.638064438
41.21177315,-2.82233429,-3.549154282,8.227122307,9.394019822
41.21409164,-2.819343328,-3.902693748,9.041280746,10.24326475
41.21639722,-2.767299414,-4.308875561,9.821340561,11.07623966
41.21872867,-2.780459881,-4.764110088,10.5355978,11.89228839
41.22104716,-2.79421854,-5.238486767,11.43589783,12.8852303
41.22335274,-2.834896564,-5.871986866,12.02213955,13.67657514
41.22568414,-2.998206854,-6.485147476,12.4498558,14.35427782
41.22800263,-3.20518589,-7.074978352,12.7812624,14.95624297
41.23030826,-3.505485058,-7.648657799,12.86381435,15.3710153
41.23263966,-3.966103554,-8.207381248,12.62572861,15.57241494
41.23495815,-4.377070904,-8.697910309,12.5060873,15.8497512
41.23726373,-4.658227444,-9.237491608,12.44088268,16.18041705
41.23959518,-4.96450901,-9.734601021,12.34636688,16.48761905
41.24191367,-5.255835056,-10.18863869,12.14656639,16.70243202
41.24421925,-5.387440205,-10.56670475,11.88096237,16.78800251
41.24655065,-5.324628353,-10.89212894,11.70748329,16.85394034
41.24886919,-5.026721954,-11.34138107,11.62732315,17.00263221
41.25117477,-4.414159775,-11.7589283,11.64108181,17.12518575
41.25350617,-3.726222992,-12.28654575,11.45025444,17.20326338
41.25582466,-3.125026464,-12.7435751,11.03868866,17.14692812
41.25813024,-2.45683074,-13.15633678,10.61874866,17.08458481
41.26046169,-1.926820397,-13.57209015,10.04028416,16.99180902
41.26278018,-1.65164578,-13.75813198,9.647262573,16.88442491
41.26508576,-1.438684583,-13.95075417,9.369695663,16.86666985
41.26741722,-1.511665702,-14.01057434,9.154939651,16.80459004
41.2697357,-1.645663738,-13.96092415,8.981459618,16.68179334
41.27204128,-1.91066885,-13.76650715,8.63390255,16.36189622
41.27437268,-2.260020971,-13.42493153,8.280363083,15.93426792
41.27669123,-2.522035122,-13.04327583,7.636095047,15.32310847
41.2789968,-2.664407969,-12.54317665,6.996613503,14.60763331
41.2813282,-2.788236618,-11.99522018,6.381059647,13.87002137
41.28364669,-2.743371248,-11.39402294,5.947958946,13.14260477
41.28595227,-2.575873613,-10.73838997,5.582455158,12.37384134
41.28828373,-2.353939295,-10.1904335,5.317450047,11.73291269
41.29060222,-2.176870346,-9.615557671,5.095515728,11.09783737
41.29290779,-2.037488461,-9.035896301,4.906482697,10.48200141
41.29523919,-1.92741859,-8.495717049,4.832305431,9.962094477
41.29755774,-1.965703845,-7.958528042,4.89930439,9.550148884
41.29986331,-2.023131609,-7.42672348,4.971088886,9.163023948
41.30219472,-2.105085611,-6.890132904,5.171487808,8.868461141
41.3045132,-2.130808592,-6.352943897,5.415555954,8.61559561
41.30681878,-2.01475668,-5.730212212,5.584249973,8.250965049
41.30915024,-1.877767563,-5.145765305,5.662016392,7.878029018
41.31146873,-1.739582062,-4.407579422,5.648257732,7.372633012
41.3137743,-1.581057549,-3.443870068,5.33240509,6.541752675
41.31610576,-1.512862086,-2.362912416,4.652843475,5.433328555
41.31842425,-1.593619823,-1.175474167,3.603590965,4.111840403
41.32072982,-1.774876237,-0.005982056726,2.210369825,2.834776218
41.32306123,-2.029113531,1.181456208,0.8727820516,2.504972855
41.32537977,-2.350350142,2.37248373,-0.3834498227,3.361526231
41.32768534,-2.768495798,3.440280676,-1.749751568,4.749919016
41.33001675,-3.236292601,4.402195454,-3.044268608,6.254637157
41.33233524,-3.806382656,5.141577721,-4.018147469,7.554460898
41.33464081,-4.450650215,5.575874805,-4.766502857,8.580105866
41.33697227,-4.996213913,5.611168861,-4.728815556,8.877447044
41.33929076,-5.564508915,5.109274387,-4.124029636,8.606745301
41.34159633,-6.473781586,4.090530396,-3.457030535,8.401984709
41.34392774,-7.503891945,2.891128063,-2.513062,8.425111063
41.34624628,-8.485547066,1.433898926,-1.514058471,8.738017406
41.34855185,-9.381061554,-0.228514567,-0.9320043921,9.430014156
41.35088326,-10.11446095,-1.931007862,-0.3541377485,10.30322887
41.35320175,-10.78564835,-3.62153697,0.2057827413,11.37928323
41.35550732,-11.6398859,-5.383252621,1.222134113,12.88254495
41.35783878,-12.3679018,-7.519444942,3.239283562,14.83239715
41.36015727,-13.18445301,-9.911071777,5.787639618,17.48015782
41.36246284,-14.1122694,-12.67358494,9.209974289,21.08552891
41.36479425,-15.09871101,-16.02054596,14.07697582,26.13025479
41.36711279,-15.75793362,-19.59362793,20.01177406,32.13555396
41.36941836,-16.05703545,-23.28874397,25.42673111,38.03567586
41.37174977,-15.4989109,-26.92045021,28.26761055,41.99981768
41.37406826,-14.03270817,-30.52224731,27.82015228,43.61748907
41.37637388,-11.87438202,-34.11746216,24.9607296,43.9094545
41.37870529,-8.971290588,-37.38605881,20.26361847,43.46050715
41.38102378,-5.79661274,-39.99782562,14.0805645,42.79823677
41.38332935,-2.541775942,-41.43710709,7.179664135,42.13124785
41.38566081,0.5587241054,-40.68994904,0.4372883439,40.69613429
41.3879793,3.124428272,-38.08356857,-4.424329281,38.46680305
41.39028487,4.997410297,-33.81656647,-8.708079338,35.27555702
41.39261628,6.215356827,-28.50090981,-11.99402332,31.54027767
41.39493482,6.852446079,-23.46641159,-13.80957794,28.0772672
41.39724039,6.940382004,-19.1760807,-14.31685638,24.91712965
41.3995718,6.460621357,-15.64786339,-14.12722492,22.04934786
41.40189029,5.486144066,-12.80219936,-13.65583897,19.5057946
41.40419586,4.27178669,-10.4279213,-12.72024536,16.99395028
41.40652732,2.915056229,-8.358727455,-11.4640131,14.48411108
41.40884581,1.55054903,-6.673582554,-9.766305923,11.92986328
41.41115138,0.2662015259,-5.258825779,-7.588837147,9.236696437
41.41348279,-0.9379864931,-4.063013077,-5.246861935,6.702048499
41.41580133,-2.033301115,-3.162713289,-2.988037348,4.802648849
41.4181069,-2.90428853,-2.448455811,-0.7495517135,3.871905925
41.42043831,-3.669393539,-1.877169371,1.295713425,4.320542451
41.4227568,-4.294518471,-1.532602906,3.176471949,5.557133668
41.42506242,-4.733003139,-1.347757339,4.969892502,6.994111812
41.42739383,-5.000999451,-1.211964726,6.345167637,8.169455694
41.42971232,-5.088935375,-1.188634634,7.145566463,8.852640037
41.43201789,-4.937589645,-1.305284739,7.133602619,8.773360022
41.43434935,-4.530211449,-1.624128342,6.156732559,7.814471476
41.43666784,-3.851248026,-2.048854351,4.2574296,6.095541182
41.43897341,-3.027518749,-2.44247365,1.577468276,4.19761283
41.44130482,-2.09072876,-2.775674343,-1.207777262,3.678891235
41.44362336,-1.15393877,-3.138785124,-3.824927092,5.080709989
41.44592893,-0.2955136001,-3.564109325,-6.065805435,7.04160487
41.44826034,0.5126622319,-3.990629911,-7.982456207,8.939102682
41.45057883,1.227517962,-4.55294323,-9.594022751,10.69024625
41.4528844,1.902892232,-5.268995285,-10.63669491,12.02175481
41.45521586,2.457428932,-6.025725842,-11.2941227,13.03478179
41.45753435,2.849851847,-6.732804775,-11.59083271,13.70400374
41.45983992,3.122035265,-7.254439831,-11.67099285,14.09205718
41.46217133,3.3852458,-8.069195747,-11.51007557,14.45868766
41.46448987,3.677170277,-9.075378418,-11.38086224,15.01359717
41.46679544,3.883551121,-9.882357597,-11.26780224,15.48245227
41.46912685,4.060619831,-10.66062355,-11.20319557,15.98903121
41.47144534,4.242474556,-11.28993511,-10.9489584,16.28928836
41.47375096,4.455435753,-11.84088326,-10.13180923,16.2083615
41.47608237,4.640879631,-12.5306139,-9.032905579,16.12908651
41.47840086,4.78385067,-13.38485146,-7.990831375,16.30622157
41.48070643,4.821537495,-14.24208069,-6.91106987,16.54832236
41.48303789,4.881956577,-15.13579941,-5.596812248,16.85972215
41.48535638,4.956133842,-15.99123383,-4.263411522,17.27598043
41.48766196,5.042275429,-16.89512253,-3.125624657,17.9064021
41.48999336,5.254638672,-17.68056679,-1.992623091,18.55220246
41.4923119,5.408377171,-18.27039719,-0.8327022791,19.07226652
41.49461748,5.601597786,-18.66282082,0.1788634956,19.4861687
41.49694888,5.799005508,-18.76750565,0.8392825127,19.66092898
41.49926737,5.982655048,-18.64666939,1.37886405,19.63139595
41.50157294,6.050251961,-18.31825447,1.415354609,19.3434026
41.5039044,6.082555294,-17.83789444,1.140778184,18.88092508
41.50622289,6.065207005,-17.27199173,0.8255237937,18.32457159
41.50852847,5.990431309,-16.66002846,0.4725824594,17.71059428
41.51085987,5.897709846,-16.07199097,-0.02811566554,17.11994934
41.51317841,5.739783287,-15.51984787,-0.5252245665,16.55556254
41.5154969,5.603990555,-15.0089798,-0.7543373108,16.03880324
41.51781539,5.479563713,-14.52323723,-1.088136077,15.56065803
41.52013388,5.308476925,-14.22533035,-1.540379524,15.2614783
41.52243951,5.14097929,-13.92742443,-1.896910191,14.96666588
41.52477091,4.902893543,-13.57747364,-1.877767563,14.55720325
41.5270894,4.625924587,-13.09412384,-1.597807288,13.97884994
41.52939498,4.331008911,-12.662817,-1.298106313,13.44580427
41.53172643,3.966701746,-12.27278709,-1.223330617,12.95579267
41.53404492,3.6299119,-11.9593277,-1.280758262,12.56352344
41.5363505,3.258426189,-11.60758305,-1.258026481,12.12171424
41.5386819,2.88993144,-11.32702446,-0.8763712645,11.72267945
41.54100039,2.462812662,-11.0626173,-0.2003988922,11.33521537
41.54330602,1.936989903,-10.81914711,0.3702892959,10.99740825
41.54563742,1.305882931,-10.67498016,0.7070791125,10.77777772
41.54795591,0.6520441771,-10.44407272,1.153340459,10.52777331
41.55026149,-0.08015955985,-10.08634567,1.520638824,10.20064395
41.55259294,-0.7932206988,-9.699904442,1.712064624,9.881726091
41.55491143,-1.458425403,-9.277571678,1.869990945,9.575865863
41.55721701,-2.099103689,-8.913264275,1.990230203,9.370887503
41.55954841,-2.711068153,-8.668598175,1.939980984,9.287519102
41.56186696,-3.129812002,-8.495717049,1.85443759,9.241854257
41.56417253,-3.462414265,-8.268398285,1.582852125,9.102754725
41.56650393,-3.613162279,-8.032705307,1.17906332,8.886477734
41.56882242,-3.471985579,-7.847859859,0.7968099117,8.618497216
41.57112805,-3.161516905,-7.78325367,0.5371887088,8.418004427
41.57345946,-2.639283419,-7.814360619,0.3607180119,8.255917049
41.57577794,-2.35274291,-7.677969456,0.4193421602,8.041297284
41.57808352,-1.946561217,-7.635497093,0.1746760458,7.88165136
41.58041492,-1.68275249,-7.395018578,-0.2063809484,7.586866863
41.58273347,-1.470389485,-7.072585583,-0.2883351147,7.229567705
41.58503904,-1.328614831,-6.684948444,-0.2231307179,6.819350438
41.58737044,-1.265803218,-6.333203316,-0.2727817893,6.46421936
41.58968893,-1.270588875,-5.925227165,-0.4474578202,6.07642424
41.59199456,-1.347757339,-5.610570908,-0.717248559,5.814585217
41.59432596,-1.467996716,-5.3210392,-0.9302098155,5.597656905
41.59664446,-1.514058471,-5.178068161,-0.9888339639,5.484756653
41.59895003,-1.499103427,-5.018945694,-1.037288666,5.33976542
41.60128149,-1.417149186,-5.075176716,-0.9840483069,5.360418042
41.60359998,-1.334596872,-5.173880577,-0.8159525394,5.4051797
41.60591846,-1.208375454,-5.314459324,-0.6227321029,5.485566918
41.60823696,-1.045663476,-5.56929493,-0.5096712112,5.689483532
41.6105555,-0.7974081635,-5.799005508,-0.3870390654,5.866355249
41.61287399,-0.6376872063,-5.910272121,-0.3080759048,5.952551746
41.61519248,-0.4163511395,-6.010172367,-0.2578266263,6.030090772
41.61751096,-0.1704886109,-6.12921524,-0.1262213886,6.132884939
41.61982951,0.06819544733,-6.349354744,-0.05024927482,6.349919785
41.622148,0.2847459018,-6.622735023,0.005982056726,6.628856252
41.62446649,0.4378865361,-6.820741177,0.0185443759,6.834807877
41.62678498,0.4959124923,-6.853044033,0.004785645287,6.870965334
41.62910346,0.5611169338,-6.84646368,0.1818545163,6.871825682
41.63142201,0.6358926296,-7.021738052,0.3553341627,7.059421158
41.6337405,0.693320334,-7.24606514,0.4815555513,7.295070174
41.63605899,0.7579265833,-7.532605648,0.5742774606,7.592390609
41.63837748,0.7884350419,-7.791628838,0.5670989752,7.851924032
41.64069602,0.7250252366,-7.946564198,0.6059823632,8.002547017
41.64301451,0.6227321029,-8.073383331,0.6586244106,8.124106092
41.645333,0.5054838061,-8.167302132,0.7339983582,8.215783078
41.64765149,0.3577269912,-8.190033913,0.7902296782,8.235841611
41.64997003,0.2321037948,-8.168498039,0.9080761671,8.222094302
41.65228852,0.162113741,-8.09312439,1.05523479,8.163238555
41.65460701,0.07058826834,-8.0757761,1.173679471,8.160923099
41.6569255,0.001196411322,-8.187641144,1.216750264,8.277557015
41.65924404,-0.04307080805,-8.304290771,1.212562919,8.392461447
41.66156253,-0.1214357466,-8.382656097,1.135992527,8.460150643
41.66388102,-0.1920240223,-8.432905197,1.174277663,8.516436539
41.66619951,-0.2578266263,-8.477770805,1.159322619,8.560554966
41.66851805,-0.2823530734,-8.425726891,1.097109199,8.501543712
41.67083654,-0.2644068897,-8.371888161,1.054038405,8.442121732
41.67315503,-0.3110669553,-8.224131584,1.071386337,8.299456106
41.67547352,-0.2943171859,-8.161319733,1.113858938,8.242235384
41.67779206,-0.2709871531,-8.127222061,1.137787223,8.210951969
41.68011055,-0.2309073806,-8.184051514,1.013958573,8.249856325
41.68242904,-0.2117647976,-8.289934158,0.8051848412,8.331637012
41.68474753,-0.1495514214,-8.456833839,0.6975077987,8.486867581
41.68706602,-0.05922235921,-8.589634895,0.522831738,8.605735759
41.68938456,0.1010967568,-8.667402267,0.4336991012,8.678835033
41.69170305,0.2889333367,-8.692526817,0.2644068897,8.70134564
41.69402154,0.4833501875,-8.726624489,-0.05324030295,8.740162293
41.69634003,0.6777670383,-8.766105652,-0.433100909,8.802928652
41.69865857,0.8673982024,-8.767302513,-0.7794619799,8.844519997
41.70097706,1.0863415,-8.709276199,-0.9690931439,8.830105962
41.70329555,1.30289197,-8.589036942,-1.001396298,8.744820045
41.70561404,1.481157184,-8.47956562,-0.9625129104,8.661598629
41.70793258,1.635494232,-8.407780647,-0.8566305041,8.60810273
41.71025107,1.771286964,-8.346763611,-0.7268198729,8.563538253
41.71256956,1.884945989,-8.358129501,-0.5306084156,8.584456618
41.71488805,1.974676847,-8.408378601,-0.2715853751,8.641408332
41.71720659,1.99800694,-8.465208054,-0.02273181453,8.697832825
41.71952508,1.923829436,-8.629714966,0.2494517565,8.845073559
41.72184357,1.822732687,-8.862417221,0.5030909777,9.061892406
41.72416206,1.564307809,-9.093324661,0.7549355626,9.257728664
41.72648055,1.293320656,-9.377471924,1.026520967,9.521733209
41.72879909,0.993021369,-9.663414001,1.307677627,9.801922382
41.73110466,0.6675975323,-9.915258408,1.612164259,10.0676268
41.73343607,0.3349951804,-10.04267693,1.895713687,10.22552258
41.73575456,0.05742774159,-10.06301594,2.103291035,10.28063329
41.73806018,-0.1585244983,-10.0390873,2.216351986,10.28205329
41.74039159,-0.2937189937,-9.979865074,2.26241374,10.23730891
41.74271008,-0.3990031779,-9.915258408,2.098505497,10.1427451
41.74502857,-0.3990031779,-9.83868885,1.831107497,10.01558568
41.74734711,-0.2925225794,-9.673583984,1.654038668,9.818331858
41.7496656,-0.09212367237,-9.461818695,1.568495274,9.591385573
41.75198409,0.107078813,-9.203393936,1.463809252,9.319692234
41.75430258,0.3690928817,-8.980861664,1.383051515,9.09422549
41.75662107,0.6951149702,-8.848658562,1.256231904,8.964377377
41.75893961,1.077966571,-8.840283394,1.173679471,8.98276939
41.7612581,1.512862086,-8.897112846,1.182652593,9.101979776
41.76357659,1.922633052,-9.002995491,1.077368379,9.268827773
41.76588216,2.353341103,-9.208778381,0.9056833982,9.547778592
41.76821362,2.718844652,-9.431310654,0.6675975323,9.838059939
41.77053211,3.062214851,-9.693324089,0.3625126183,10.17197656
41.77283768,3.362514019,-9.95055294,-0.0,10.50333301
41.77516909,3.620340586,-10.19521904,-0.3828516304,10.82570703
41.77748763,3.849453449,-10.48295593,-0.7357929349,11.19160615
41.77979321,4.065405846,-10.81496048,-1.031904817,11.59981562
41.78212461,4.252644062,-11.14217854,-1.223928809,11.98879167
41.7844431,4.375874519,-11.43709373,-1.335195065,12.31820347
41.78674873,4.554738045,-11.71167088,-1.39860487,12.64377194
41.78908013,4.696512699,-12.21775246,-1.374676585,13.16132373
41.79139862,4.676771641,-12.37627697,-1.316052437,13.29572934
41.79370419,4.74436903,-12.23091316,-1.350150228,13.18814543
41.79603565,4.721637249,-12.40917778,-1.506281853,13.36227662
41.79835414,4.635495663,-12.58385468,-1.486541033,13.49262846
41.80065972,4.54217577,-12.69631672,-1.386640668,13.55546352
41.80299112,4.389034748,-12.88714409,-1.234098315,13.66986128
41.80530961,4.179064751,-12.98764324,-0.9056833982,13.6734678
41.80762815,3.949353695,-13.12223911,-0.4540380836,13.71118903
41.80994664,3.619742393,-13.20598793,-0.05982056633,13.69321842
41.81226513,3.241078377,-13.24307728,0.299701035,13.63721033
41.81458362,2.769692183,-13.21017551,0.6622136831,13.51363973
41.81690216,2.319243431,-13.24427319,1.025324464,13.48484158
41.81922065,1.956132531,-13.32383442,1.40997076,13.54027458
41.82152623,1.549950838,-13.40937805,1.716850281,13.60740027
41.82385763,1.210170031,-13.45065403,2.014158487,13.65435607
41.82617617,0.8596215248,-13.42493153,2.249851465,13.63926564
41.82848175,0.5222335458,-13.36989689,2.43708992,13.60023081
41.83081315,0.3092723191,-13.2837553,2.606382132,13.54056986
41.83313164,0.1633101404,-13.21017551,2.747558594,13.49386844
41.83543727,-0.001196411322,-13.14676571,2.779263496,13.43732695
41.83776867,-0.1016949639,-12.94217968,2.776870728,13.23712083
41.84008716,-0.1585244983,-12.75613785,2.751147747,13.05040217
41.84239274,-0.1531406492,-12.58804131,2.711666346,12.87770827
41.84472419,-0.1010967568,-12.37567902,2.663211584,12.6593976
41.84704268,0.002392822644,-12.31107235,2.635095835,12.58992606
41.84936117,0.1304088384,-12.09691525,2.596212626,12.37306287
41.85167966,0.1938186288,-11.95633698,2.586043119,12.23434422
41.8539982,0.313459754,-11.76072311,2.485544443,12.02459132
41.85631669,0.4366901219,-11.55613708,2.466402054,11.82447215
41.85863518,0.5581258535,-11.45264721,2.504687071,11.73661322
41.86095367,0.5641079545,-11.35155106,2.589632273,11.65684882
41.86327216,0.6089733839,-11.29771233,2.742773056,11.64181929
41.8655907,0.6687939167,-11.27139091,2.95752883,11.67212557
41.86790919,0.7668996453,-11.39402294,3.126222849,11.83998155
41.87022768,0.87517488,-11.59741306,3.30089879,12.08974167
41.87254617,1.019342422,-11.8343029,3.399004459,12.35487821
41.87486472,1.190429211,-12.19502068,3.398406267,12.71553444
41.8771832,1.351944804,-12.5180521,3.36849618,13.0336545
41.87950169,1.521835208,-12.78784275,3.262015581,13.28479019
41.88182018,1.758126378,-13.04686546,3.151347399,13.53671663
41.88413873,2.081755638,-13.33699512,3.051447153,13.83909228
41.88645722,2.428116798,-13.62174129,2.980260611,14.15378184
41.8887757,2.818745136,-13.90588856,2.804986238,14.46329867
41.89108128,3.210569859,-14.25284767,2.648854733,14.84816005
41.89341274,3.634697676,-14.53579903,2.444866419,15.18149704
41.89573123,4.03788805,-14.75713539,2.201995134,15.4572432
41.8980368,4.454837322,-14.92582989,1.972882271,15.70089927
41.9003682,4.858626366,-14.98385525,1.738385677,15.84752829
41.90268669,5.217549801,-14.95633793,1.517049551,15.9127719
41.90499232,5.558526993,-14.80977726,1.328614831,15.87425407
41.90732373,5.811567783,-14.58784294,1.186241865,15.74759193
41.90964222,5.961717606,-14.28215981,1.109073281,15.51619183
41.91194779,6.06401062,-14.0057888,1.112662554,15.30269136
41.91427925,6.085546017,-13.73121262,1.130010486,15.0617726
41.91659774,6.069993019,-13.4967165,1.099501967,14.83964542
41.91890331,5.970690727,-13.32622719,1.025324464,14.63860544
41.92123472,5.82532692,-13.20538998,0.941575706,14.46386266
41.92355326,5.533402443,-13.11625767,0.7812566161,14.25710769
41.92587175,5.204987526,-13.12881947,0.7118647099,14.14088212
41.92819024,4.815555573,-13.1766758,0.6083751321,14.04223917
41.93050873,4.442873478,-13.30050468,0.5252245665,14.03276204
41.93282727,4.079164505,-13.43869019,0.522831738,14.05387242
41.93514576,3.748356581,-13.58584881,0.5976074338,14.10611922
41.93746425,3.434298754,-13.65524101,0.733400166,14.09957059
41.93976982,3.090330362,-13.67258835,0.9068797827,14.04678771
41.94210128,2.728415966,-13.60858059,1.185045362,13.92989777
41.94441977,2.410170555,-13.44227982,1.671984792,13.75860974
41.94672534,2.003390789,-13.20598793,2.263610125,13.54753198
41.94905675,1.50269258,-13.02473164,2.800798893,13.40694572
41.95137529,0.950548768,-12.99841118,3.258426189,13.43426877
41.95368086,0.2841476798,-13.133605,3.440280676,13.57968525
41.95601227,-0.3475574851,-13.2203455,3.473181963,13.67338013
41.95833076,-0.9403793216,-13.38305664,3.521636724,13.87056032
41.96063633,-1.450648785,-13.56790257,3.523431301,14.0927971
41.96296779,-1.797608018,-13.79701519,3.450450182,14.33508386
41.96528628,-1.979462504,-14.01296806,3.087339401,14.48493046
41.96759185,-2.098505497,-14.37787342,2.407179594,14.72825458
41.96992331,-2.21156621,-14.65125275,1.382453322,14.88157953
41.9722418,-2.225325108,-14.85045528,0.1531406492,15.01704185
41.97454737,-2.245065928,-14.99282837,-1.14795661,15.2033887
41.97687878,-2.165504456,-15.09392548,-2.45383954,15.44465358
41.97919732,-2.062014818,-15.2093792,-3.678366661,15.7831398
41.98150289,-1.858624935,-15.36491203,-4.782055855,16.19886004
41.9838343,-1.57028985,-15.57607937,-5.56929493,16.61616998
41.98615279,-1.259821177,-15.81416512,-6.04187727,16.97584309
41.98845836,-0.9355936646,-16.06660843,-6.409175396,17.32307049
41.99078982,-0.6646065116,-16.33460426,-6.643671989,17.64651172
41.99310831,-0.5078766346,-16.63849258,-6.739983082,17.95897397
41.99541388,-0.4109672904,-17.04407501,-6.74536705,18.33492197
41.99774529,-0.3786641955,-17.40359688,-6.600003242,18.61689055
42.00006383,-0.4271188378,-17.85584068,-6.329614162,18.94934016
42.0023694,-0.537786901,-18.2847538,-6.008377552,19.25414337
42.00470081,-0.6921239495,-18.53301048,-5.559125423,19.36118252
42.0070193,-0.8997012973,-18.60419655,-4.96450901,19.27620142
42.00932492,-1.171884894,-18.61376762,-4.284348965,19.13638695
42.01165633,-1.413560033,-18.55095482,-3.437887907,18.91970269
42.01397482,-1.66600275,-18.33859253,-2.454437733,18.57696977
42.01628039,-1.972284079,-18.06999779,-1.381256819,18.22971736
42.01861185,-2.263610125,-17.79183197,-0.4600201547,17.94114919
42.02093034,-2.556730986,-17.55733681,0.2847459018,17.74480288
42.02323591,-2.863012314,-17.36590958,0.9529415965,17.62610997
42.02556732,-3.125624657,-17.26122475,1.222134113,17.58445396
42.02788586,-3.301496983,-17.12124443,1.295713425,17.48472952
42.03019143,-3.524029493,-16.87657738,1.544566989,17.30963128
42.03252284,-3.683152199,-16.68335724,1.698904037,17.16934168
42.03484133,-3.850649834,-16.50449371,1.729412556,17.03574726
42.0371469,-3.985246181,-16.28674698,1.736590981,16.85692921
42.03947836,-4.095914364,-16.0253315,1.633699656,16.62097285
42.04179685,-4.096512318,-15.76152229,1.45483613,16.350032
42.04410242,-4.073780537,-15.42473316,1.686341763,16.04250073
42.04643388,-3.963112593,-14.99701595,2.562114954,15.72199675
42.04875237,-3.772883177,-14.63629818,3.34875536,15.48128013
42.05105794,-3.512065411,-14.62493229,3.451048374,15.43155802
42.05338935,-3.257827997,-14.79721546,3.248854876,15.49600228
42.05570784,-3.023331404,-15.09930897,2.904886723,15.67061042
42.05802638,-2.854039192,-15.51386547,2.771486759,16.01582656
42.06034487,-2.733201742,-15.73221111,2.650051117,16.18627904
42.06266336,-2.542972326,-15.77528191,2.966501951,16.25196484
42.0649819,-2.229512453,-15.76750469,3.083750248,16.22018636
42.06730039,-1.999203324,-15.71964836,2.737389088,16.08096569
42.06961888,-1.920838356,-15.56531143,1.939980984,15.80291322
42.07192446,-1.962712765,-15.50190163,0.3990031779,15.63075171
42.07425591,-1.984846354,-15.12204075,-1.67437768,15.34337877
42.0765744,-2.11585331,-14.76311779,-3.18544507,15.25036204
42.07887998,-2.291725874,-14.26002693,-4.29750967,15.06880768
42.08121138,-2.45383954,-13.59781265,-5.243272781,14.77882766
42.08352992,-2.551347256,-12.91047478,-6.036493301,14.47856979
42.0858355,-2.580060959,-12.35952759,-6.660421848,14.27500809
42.0881669,-2.566302299,-11.8654089,-7.022336483,14.02451587
42.09048539,-2.439482689,-11.4394865,-6.981060028,13.62160513
42.09279097,-2.158325911,-11.05723381,-6.399604321,12.95668653
42.09512242,-1.739582062,-10.66062355,-5.225326538,11.9991282
42.09744091,-1.253839016,-10.47398281,-3.876971006,11.2386535
42.09974649,-0.8075776696,-10.3657074,-2.733799934,10.75052248
42.10207789,-0.5132604837,-10.17009449,-2.041077614,10.38557924
42.10439643,-0.2823530734,-9.948160172,-1.697109461,10.09583055
42.10670201,-0.09631111473,-9.771091461,-1.687538147,9.916213449
42.10903341,0.06281159073,-9.618548393,-1.844268084,9.793964634
42.1113519,0.2171486616,-9.475577354,-1.953739643,9.677335291
42.11365753,0.2626122832,-9.364311218,-2.02073884,9.583458419
42.11598893,0.6741777658,-9.474381447,-1.883151412,9.683216341
42.11830742,0.9888339639,-9.713065147,-2.202593327,10.0086385
42.120613,1.183250785,-9.824930191,-2.934797049,10.32193632
42.12294446,1.326221943,-9.881160736,-3.896711588,10.70423109
42.12526294,1.453639746,-9.899106979,-4.94955349,11.16259232
42.12756852,1.490130305,-9.669994354,-6.06760025,11.5128212
42.12989992,1.572084427,-9.246464729,-6.957131863,11.67776705
42.13221846,1.658226132,-8.692526817,-7.027122021,11.30000798
42.13452404,1.703091502,-8.133802414,-6.739385128,10.69946607
42.13685544,1.694716692,-7.5954175,-6.252445698,9.982760583
42.13917393,1.655833244,-6.994818687,-5.71824789,9.185185417
42.14147956,1.566102386,-6.453442574,-5.164309502,8.41247231
42.14381096,1.445264935,-5.955735683,-4.768895626,7.765432619
42.14612946,1.325025558,-5.410770416,-4.611567497,7.231782907
42.14843503,1.107278705,-4.791028976,-4.455435753,6.635580798
42.15076649,0.8715856671,-4.239483356,-4.208974838,6.03724688
42.15308498,0.5802595019,-3.881158352,-4.185645103,5.737570581
42.15539055,0.5419743061,-3.61615324,-3.200400352,4.859306825
42.15772196,0.4372883439,-3.487539053,-2.462812662,4.291805675
42.1600405,0.2632105052,-3.476771355,-2.173281193,4.108572741
42.16234607,0.1316052526,-3.480360508,-2.408375978,4.234442592
42.16467748,-0.05204389244,-3.332603693,-3.245863914,4.6523745
42.16699597,-0.1052841991,-2.987439156,-3.034099102,4.259299805
42.16930159,-0.02273181453,-2.772084951,-2.099701881,3.47760258
42.171633,0.07597211748,-2.68713975,-1.589432478,3.122945308
42.17395149,0.2327020019,-2.712264538,-1.48295188,3.099947648
42.17625706,0.4145565331,-2.717648268,-1.500299811,3.131831533
42.17858852,0.5694918036,-2.6087749,-1.600200176,3.112983778
42.18090701,0.7507480979,-2.364706993,-1.704886079,3.010331944
42.18321258,0.9391828775,-2.091326952,-1.70548439,2.857339655
42.18554399,1.089930773,-1.828714728,-1.744367719,2.7522655
42.18786253,1.258624673,-1.612762451,-1.515254974,2.545807618
42.1901681,1.393819213,-1.363908887,-1.287338614,2.336711398
42.19249951,1.498505235,-1.077966571,-1.025324464,2.111591846
42.194818,1.543968797,-0.8416753411,-0.9218349457,1.985456293
42.19712362,1.55054903,-0.7118647099,-0.9894321561,1.972290458
42.19945503,1.524826288,-0.6311069727,-1.013958573,1.936879761
42.20177352,1.473978758,-0.5258227587,-0.9678967595,1.840088881
42.20407909,1.437488198,-0.4546363056,-0.7776673436,1.696417693
42.20641055,1.363310695,-0.3936193287,-0.6406782866,1.556926746
42.20872904,1.340578914,-0.3403790295,-0.3361915946,1.423388385
42.21104753,1.216750264,-0.1992024779,-0.2667997181,1.261485205
42.21336602,0.9780662656,-0.1573280841,-0.3457628787,1.04924626
42.21568456,0.7405785918,-0.1770688742,-0.3906283081,0.8558040149
42.21800305,0.5270192027,-0.2063809484,-0.4683950245,0.7346674315
42.22032154,0.2650051117,-0.2171486616,-0.5036891699,0.6091666688
42.22264003,-0.01316052489,-0.3008974493,-0.6107679605,0.680991906
42.22495857,-0.2237289101,-0.4402793646,-0.6592226624,0.8236959772
42.22727706,-0.457029134,-0.6334998012,-0.717248559,1.060491925
42.22959555,-0.6891329288,-0.8458628058,-0.8177471161,1.363487596
42.23190112,-0.9218349457,-1.071984529,-0.8087740541,1.628817353
42.23423258,-1.149751306,-1.283749342,-0.8566305041,1.924514551
42.23655107,-1.39022994,-1.548754454,-0.8757730722,2.25795441
42.23885664,-1.658824325,-1.8628124,-0.9188438654,2.658202819
42.24118805,-1.962712765,-2.095514536,-0.9583254457,3.026848233
42.24350659,-2.201396942,-2.264208317,-0.9493523836,3.297583622
42.24581216,-2.42572403,-2.44247365,-0.9499505758,3.57102516
42.24814357,-2.606980324,-2.63389945,-0.9218349457,3.81884176
42.25046206,-2.81395936,-2.773281336,-0.8368897438,4.038544427
42.25276768,-2.959921598,-2.920439959,-0.6412764788,4.207296156
42.25509909,-3.037688255,-3.099901676,-0.4402793646,4.36242894
42.25741758,-3.062813044,-3.315854073,-0.1962114573,4.518208816
42.25973607,-3.145963669,-3.49531579,0.05324030295,4.70288788
42.26205461,-3.173480988,-3.62452817,0.3589234054,4.830839683
42.2643731,-3.200998545,-3.763910055,0.6693921089,4.986130402
42.26667867,-3.187239647,-3.868596077,1.10010016,5.131739718
42.26901008,-3.120838881,-3.991228104,1.592423439,5.31087088
42.27132862,-3.052045345,-4.046263218,2.132603168,5.498656481
42.27363419,-3.016751051,-4.10249424,2.657827854,5.744153096
42.2759656,-2.95752883,-4.171886444,3.254837036,6.061813047
42.27828409,-2.869592667,-4.255036831,3.848257065,6.414747301
42.28058972,-2.746960402,-4.395017147,4.456632137,6.835461738
42.28292112,-2.633301258,-4.530211449,5.05423975,7.280276831
42.28523961,-2.595614433,-4.682155609,5.618945599,7.760950011
42.28754518,-2.629113913,-4.854438782,6.268597126,8.353030934
42.28987664,-2.620738983,-5.050650597,7.018746853,9.03549399
42.29219513,-2.659024239,-5.304289818,7.788637638,9.791260217
42.29450071,-2.740978241,-5.669793129,8.510671616,10.58730595
42.29683211,-2.93778801,-6.01376152,9.231510162,11.40248683
42.29915065,-3.172284603,-6.378666878,9.971489906,12.25485176
42.30145623,-3.34576416,-6.731608391,10.75992489,13.12572562
42.30378763,-3.608974695,-7.164111137,11.11825085,13.71002147
42.30610612,-3.946960926,-7.67138958,11.42453194,14.31602768
42.30841175,-4.264009953,-8.173283577,11.54955673,14.77757105
42.31074315,-4.545166492,-8.727820396,11.52682495,15.15589261
42.31306164,-4.636094093,-9.248259544,11.54417324,15.50134216
42.31536722,-4.746163845,-9.904491425,11.27617645,15.74093952
42.31769867,-4.856233597,-10.4793663,10.81675434,15.82410495
42.32001716,-4.869394302,-11.13380337,10.45902824,16.03321085
42.32232274,-4.560121536,-11.86122227,10.50030422,16.48452883
42.32465414,-4.016352654,-12.51027489,10.7862463,16.99944633
42.32697268,-3.273381472,-13.16530991,10.75932693,17.31483547
42.32927826,-2.440080881,-13.66421413,10.75155067,17.5573513
42.33160966,-1.381256819,-14.34616852,10.65583706,17.92393051
42.3339282,-0.3708875179,-15.12921906,10.33220863,18.32444711
42.33623378,0.3553341627,-15.92961884,9.752547264,18.68130608
42.33856518,0.7316055298,-16.62353706,9.165108681,18.99674836
42.34088367,0.7830511928,-17.15594101,8.62014389,19.21578418
42.34318925,0.5096712112,-17.5190506,8.105687141,19.31007671
42.34552071,-0.004187439568,-17.60878181,7.667201996,19.20560337
42.34783919,-0.6005984545,-17.50828362,7.313662529,18.98395041
42.35014477,-1.247258782,-17.12483406,7.028318405,18.55297431
42.35247623,-1.831705689,-16.57268906,6.69511795,17.96757559
42.35479472,-2.404786825,-15.70289898,6.378068924,17.11852211
42.35710029,-2.934797049,-14.65484238,5.965306759,16.09230635
42.35943169,-3.265604734,-13.55892944,5.572884083,15.01884746
42.36175018,-3.538386583,-12.45703506,5.066203594,13.90555001
42.36405581,-3.790829182,-11.39761257,4.474578381,12.81787072
42.36638722,-3.930211306,-10.41715336,3.850649834,11.78096554
42.3687057,-4.025325775,-9.503094673,3.189034462,10.80194412
42.37101128,-4.015156269,-8.6590271,2.715853691,9.923512052
42.37334274,-3.867399693,-7.882555962,2.606382132,9.158858918
42.37566123,-3.742374659,-7.13061142,2.511865616,8.435665722
42.3779668,-3.639483213,-6.470790863,2.355135679,7.788686444
42.3802982,-3.562912941,-5.868397713,2.140978098,7.191399555
42.38261675,-3.506083488,-5.267200947,2.036890268,6.647176033
42.38492232,-3.497110367,-4.671388149,1.94715941,6.151672775
42.38725373,-3.570091486,-4.039682865,1.884347796,5.710985684
42.38957222,-3.689732552,-3.47557497,1.908276081,5.416203955
42.39187784,-3.856033802,-2.989831924,1.902892232,5.237278918
42.39420925,-4.162913322,-2.607578516,2.088335991,5.337645573
42.39652774,-4.537988186,-2.202593327,2.39222455,5.582785365
42.39883331,-4.803591251,-1.824527264,2.764308453,5.83479133
42.40116477,-5.05423975,-1.531406522,3.274577856,6.213968581
42.40348326,-5.260620594,-1.299900889,3.910470486,6.682488367
42.40578883,-5.407779217,-1.153340459,4.557130814,7.165313079
42.40812024,-5.62791872,-0.9696913958,5.288137913,7.783198129
42.41043873,-5.867799282,-0.7579265833,5.976074696,8.409458359
42.41274435,-6.092126369,-0.641874671,6.727420807,9.09858217
42.41507576,-6.346364021,-0.584446907,7.368099213,9.742012137
42.41739425,-6.558128834,-0.6699903607,7.853842258,10.25381778
42.41969982,-6.68375206,-0.9990034699,8.007580757,10.47816296
42.42203128,-6.803991318,-1.616949916,7.743772507,10.43431059
42.42434977,-6.948757172,-2.572882652,6.910471916,10.13210607
42.42665534,-6.942176819,-3.803989887,5.88395071,9.863317596
42.4289868,-6.80698204,-5.133800983,4.569094658,9.673031739
42.43130529,-6.64427042,-6.534798622,3.111267567,9.824963528
42.43361086,-6.455237389,-7.935198307,1.877767563,10.40016697
42.43594227,-6.260222435,-9.474381447,0.3978067636,11.36276986
42.43826081,-6.059225082,-11.00758266,-0.06101697683,12.56522215
42.44056638,-5.805585861,-12.73579884,-0.471386075,14.00455654
42.44289779,-5.74337244,-14.37248898,-0.5443671346,15.48712697
42.44521633,-5.694319725,-16.09532166,-0.4791627228,17.07964441
42.4475219,-5.737390518,-17.78106499,0.2626122832,18.68563318
42.44985331,-5.932405472,-19.28973961,2.199602127,20.30088024
42.4521718,-6.339185238,-21.00419807,4.984249592,22.49898554
42.45447737,-6.982256413,-22.73719978,8.182256699,25.1531605
42.45680883,-7.824530125,-24.19203568,11.53460121,27.9199729
42.45912732,-8.393424034,-25.55474854,14.28634739,30.45643547
42.46143289,-8.509475708,-26.81337166,15.62991714,32.18170888
42.4637643,-7.845467091,-28.11446953,15.0161581,32.8246821
42.46608284,-6.23330307,-29.05006409,13.27657604,32.54270674
42.46838841,-4.009174347,-29.30370331,11.51486111,31.73913252
42.47071982,-1.724626899,-28.75395203,9.780064583,30.42061404
42.47303831,0.366700083,-27.46900558,7.704290867,28.53133075
42.47534393,2.121237278,-25.40579414,5.238486767,26.02682784
42.47767534,3.434896946,-22.62772751,2.530410051,23.02640971
42.47999383,4.073780537,-19.2131691,-0.3320041299,19.64311028
42.4822994,4.159922123,-15.63350677,-3.056830883,16.46376935
42.48463086,3.884149313,-12.47378445,-5.190630436,14.05790022
42.48694935,3.277568817,-9.787242889,-6.699305058,12.30500991
42.48925492,2.382055044,-7.452445984,-7.945965767,11.15130079
42.49158633,1.422533035,-5.459823132,-8.974879265,10.60102479
42.49390487,0.4857429862,-3.677768469,-9.854840279,10.52994796
42.49621044,-0.3164508045,-2.242074728,-10.21137047,10.45940376
42.49854185,-0.9750752449,-1.257428288,-9.818349838,9.946451185
42.50086034,-1.631905079,-0.6191428304,-9.061020851,9.227597244
42.50316596,-2.261217356,-0.237487644,-7.929814339,8.249330867
42.50549737,-2.839682341,0.03529413417,-6.314659119,6.923868951
42.50781586,-3.263211966,0.2009970993,-4.530211449,5.586749317
42.51012143,-3.650849104,0.2865405083,-2.82233429,4.623459255
42.51245289,-3.964907169,0.2632105052,-1.036092162,4.10648945
42.51477138,-4.155136585,-0.08374879509,0.6293123364,4.203356744
42.51707696,-4.284348965,-0.4923232496,2.062014818,4.780160389
42.51940841,-4.261617184,-0.917647481,3.00538516,5.294884124
42.5217269,-4.049253941,-1.450050473,3.225524902,5.376161711
42.52403248,-3.591626883,-2.155933142,2.610569477,4.93587929
42.52636388,-2.906681299,-2.96889472,1.253240824,4.339786239
42.52868237,-1.990230203,-3.876971006,-0.6065805554,4.399984138
42.530988,-1.011565804,-4.703691006,-2.858226538,5.59619812
42.5333194,-0.008374879137,-5.486742496,-5.261816978,7.602047834
42.53563789,0.8937192559,-6.291328907,-7.532605648,9.854932845
42.53794347,1.740778446,-7.085746288,-9.480362892,11.96308449
42.54027492,2.541775942,-7.915457249,-10.90768242,13.71468644
42.54259341,3.279961586,-8.654241562,-11.96411324,15.12593966
42.54489899,3.859024763,-9.568898201,-12.85902882,16.48667665
42.54723044,4.286741734,-10.35733318,-13.58405399,17.61184341
42.54954893,4.525425911,-11.01057339,-13.90170097,18.30217189
42.55185451,4.731806755,-11.53280735,-13.60020542,18.44888149
42.55418591,4.889134884,-12.06162071,-13.02233887,18.41107394
42.55650446,4.650450706,-12.46899891,-12.21057415,18.06102839
42.55881003,4.460819721,-12.99063396,-11.23490047,17.74481536
42.56114143,4.393820763,-13.52303696,-10.0965147,17.43897355
42.56345992,4.33340168,-14.01117325,-8.672187805,17.0381392
42.5657655,4.336392879,-14.59442329,-7.089335442,16.79464711
42.56809696,4.210171223,-14.95992756,-5.64167738,16.53340552
42.57041544,4.149752617,-15.46301842,-4.10309267,16.52757559
42.57272102,4.159324169,-16.31007767,-2.584846735,17.02938765
42.57505242,4.174877167,-16.91187286,-1.287936807,17.46710693
42.57737096,4.244269371,-17.14876175,-0.2739782035,17.66830258
42.57967654,4.380660057,-17.2929287,0.4151547253,17.84398831
42.58200794,4.526023865,-17.29831314,0.7740781307,17.89736647
42.58432649,4.697110653,-17.10748482,0.7884350419,17.75811125
42.58663206,4.901099205,-16.83410645,0.6215356588,17.54406509
42.58896347,5.106283665,-16.57986832,0.4019941986,17.35303333
42.59128196,5.214558601,-16.22214127,0.09092725813,17.03988722
42.59358753,5.230710506,-15.81954861,-0.2991028428,16.66457059
42.59591899,5.218147755,-15.42174149,-0.6448656917,16.29340444
42.59823748,5.094319344,-14.97847176,-0.9547362328,15.8498652
42.60055597,4.991427898,-14.61655712,-1.220937729,15.49350778
42.60287451,4.808377266,-14.30429363,-1.400997639,15.15572838
42.605193,4.689334393,-13.94178104,-1.414158225,14.7771093
42.60749857,4.535595417,-13.58525085,-1.251446247,14.37695323
42.60982998,4.299902439,-13.30289745,-1.293918848,14.0403158
42.61214852,4.039084435,-13.01575851,-1.269392371,13.68705702
42.61445409,3.722633839,-12.73938751,-1.326820135,13.33830756
42.6167855,3.382853031,-12.37807178,-1.217946768,12.8896761
42.61910399,3.083750248,-12.10588837,-1.021735311,12.53419291
42.62140961,2.761915445,-11.78106213,-0.6693921089,12.11898047
42.62374102,2.532204628,-11.53101254,-0.1728814393,11.8070402
42.62605951,2.319243431,-11.35813046,0.2536391914,11.59527276
42.62836508,1.969891191,-11.20738316,0.5641079545,11.39316138
42.63069654,1.619940877,-11.09910774,0.9367900491,11.25575305
42.63301503,1.259222865,-10.89571762,1.309472203,11.04613155
42.6353206,0.8261220455,-10.63131142,1.54217422,10.77430097
42.63765201,0.3272185028,-10.36929703,1.597807288,10.49677955
42.63997055,-0.2087737769,-10.12762165,1.643869162,10.26229081
42.64227612,-0.7196413875,-9.947562218,1.6713866,10.1126362
42.64460753,-1.121037364,-9.755537987,1.74735868,9.973991605
42.64692602,-1.476371527,-9.451051712,1.689931035,9.713800402
42.64923164,-1.797009826,-9.218947411,1.551745534,9.519776777
42.65156305,-2.054238319,-9.008976936,1.428515077,9.349984804
42.65388154,-2.215753794,-8.787641525,1.249053478,9.14835193
42.65618711,-2.184647083,-8.667402267,1.148554921,9.011976662
42.65851857,-1.986042738,-8.566903114,1.025324464,8.853670707
42.66083706,-1.73060894,-8.478966713,1.012163997,8.712769926
42.66314263,-1.468594909,-8.43948555,0.9667003751,8.620684252
42.66547404,-1.026520967,-8.337790489,0.7842476368,8.43727088
42.66779258,-0.5449653864,-8.235497475,0.4348955154,8.264958562
42.67011107,-0.2195414752,-8.094321251,-0.05922235921,8.097514573
42.67242956,-0.02572284266,-7.70728159,-0.5952146053,7.730273707
42.6747481,0.1405783296,-7.199405193,-0.9308080077,7.260688738
42.67705367,0.1381855011,-6.546762943,-0.9834501147,6.62165949
42.67938508,0.1441675574,-5.888138294,-0.9116654396,5.960041169
42.68170357,0.1453639716,-5.350351334,-0.9966106415,5.444320237
42.68400914,0.07417750359,-4.92502737,-1.26341033,5.085037125
42.6863406,0.008374879137,-4.682155609,-1.546959877,4.931098878
42.68865909,-0.004187439568,-4.927420139,-1.607378602,5.182967561
42.69096466,0.06460621208,-5.108078003,-1.233500123,5.255298032
42.69329612,-0.04546362907,-5.042873859,-1.401595831,5.234225308
42.69561461,-0.2183450609,-4.889732838,-1.762313843,5.202202598
42.6979331,-0.2159522474,-4.918447018,-1.971685886,5.303329301
42.70025159,-0.2033899277,-4.951348305,-1.66600275,5.228076383
42.70257013,-0.2931207716,-5.087738991,-1.269990563,5.252036163
42.70488862,-0.3445664644,-5.275575638,-0.8207381964,5.350143507
42.70720711,-0.4432703853,-5.487938881,-0.3762713671,5.518653997
42.7095256,-0.5330012441,-5.681159019,0.1728814393,5.708725438
42.71183117,-0.5808576941,-5.84446907,0.717248559,5.916896135
42.71416263,-0.5694918036,-6.020939827,1.0863415,6.144605371
42.71648112,-0.5539384484,-6.29491806,1.198205948,6.431837893
42.71878669,-0.524028182,-6.706483841,1.229910851,6.838436352
42.72111815,-0.5808576941,-7.101897717,1.270588875,7.238006834
42.72343664,-0.6323033571,-7.390830994,1.500898004,7.568149386
42.72574222,-0.5940182209,-7.691728592,1.827518344,7.928137844
42.72807362,-0.6311069727,-7.835896015,2.224726915,8.17000442
42.73039216,-0.6693921089,-7.917850018,2.516052961,8.334923947
42.73269774,-0.6622136831,-8.277371407,2.761915445,8.751090292
42.73502914,-0.7028916478,-8.590831757,2.921038151,9.101038997
42.73734763,-0.7190431952,-8.931808472,3.056830883,9.467757957
42.73965326,-0.7722834945,-9.148359299,3.267997503,9.745188933
42.74198466,-0.8410771489,-9.312865257,3.445066452,9.965207119
42.74430315,-0.8440681696,-9.390034676,3.503092289,10.05767656
42.74660873,-0.8961120844,-9.237491608,3.534797192,9.931216404
42.74894018,-1.040279627,-9.154341698,3.442673683,9.835454016
42.75125867,-1.117448211,-9.276374817,3.333201885,9.920184225
42.75357716,-1.029511929,-9.341579437,3.290729284,9.957605155
42.75589565,-0.9062815905,-9.276374817,3.191427231,9.85178582
42.75821419,-0.7674978375,-9.081359863,3.047857761,9.609869241
42.76053268,-0.6185446382,-8.862417221,2.799602509,9.314655693
42.76285117,-0.4540380836,-8.672187805,2.432902336,9.018425898
42.76516966,-0.2494517565,-8.47597599,1.945963025,8.700067084
42.7674882,0.002991028363,-8.288139343,1.360917926,8.399128545
42.76980669,0.2745763958,-8.10090065,0.745962441,8.13980611
42.77212518,0.6185446382,-7.916055679,0.04187439755,7.940295237
42.77443076,1.003190875,-7.831708431,-0.5419743061,7.914277291
42.77676222,1.391426325,-7.708477974,-1.198205948,7.924165406
42.77908071,1.685145378,-7.448258877,-1.822134495,7.850888444
42.78138628,2.033899307,-7.291528702,-2.373680115,7.933315479
42.78371768,2.355135679,-7.241877556,-2.747558594,8.095710767
42.78603623,2.602194548,-7.135396957,-3.051447153,8.185147276
42.7883418,2.799004316,-7.135995388,-3.150151014,8.287358249
42.79067321,2.901297569,-7.277172089,-3.009572744,8.39239473
42.79299169,2.842673302,-7.461419106,-2.775076151,8.453083119
42.79531024,2.664407969,-7.512865067,-2.404786825,8.326176254
42.79762873,2.402393818,-7.67138958,-1.93340075,8.267995682
42.79994722,2.027318954,-7.928617954,-1.28614223,8.284151534
42.8022657,1.600798368,-8.24506855,-0.5766702294,8.418803915
42.80458425,1.063609719,-8.530412674,0.1124626622,8.597200351
42.80690274,0.5306084156,-8.94018364,0.7208378315,8.984878184
42.80920831,-0.03948157281,-9.370293617,1.220339537,9.449507387
42.81153972,-0.5575276613,-9.785448074,1.690529227,9.946040427
42.81385826,-1.016949654,-10.19880867,2.075773716,10.45747204
42.81616383,-1.415354609,-10.53380394,2.342573404,10.88356119
42.81849524,-1.673181176,-10.7802639,2.513660192,11.19518256
42.82081378,-1.769492388,-10.92203903,2.475374937,11.33796812
42.82311935,-1.733001828,-10.97886848,2.319243431,11.35419476
42.82545076,-1.59003067,-10.91366386,2.104487419,11.22787263
42.82776925,-1.284945726,-10.8107729,1.820339799,11.03800404
42.83008779,-0.9224331379,-10.55713367,1.573879123,10.71359183
42.83240628,-0.4510470629,-10.27298546,1.337587833,10.36951372
42.83472477,0.09032905847,-9.93918705,1.144367456,10.00525739
42.83704326,0.7417750359,-9.62154007,1.004387259,9.702219194
42.8393618,1.421934843,-9.303294182,0.8123632669,9.446328144
42.84168029,2.155334949,-9.031708717,0.6693921089,9.309420868
42.84398586,2.890529871,-8.86122036,0.5694918036,9.338132046
42.84631727,3.561716557,-8.787641525,0.5324030519,9.49694274
42.84863581,4.158127785,-8.745168686,0.4654040039,9.694565638
42.85094138,4.710271358,-8.900103569,0.4761717021,10.08093445
42.85327279,5.067399979,-9.040681839,0.394815743,10.37151629
42.85559128,5.322235584,-9.12084198,0.4354937077,10.56908723
42.85789685,5.551348686,-9.321838379,0.4677968323,10.85969506
42.86022831,5.711069584,-9.601799011,0.5186443329,11.18391041
42.8625468,5.799005508,-9.897313118,0.6077769399,11.48715216
42.86485237,5.78584528,-10.16650486,0.7190431952,11.71967789
42.86718383,5.706283569,-10.42253685,0.7680960894,11.90717927
42.86950232,5.558526993,-10.79103184,0.7884350419,12.16409554
42.87180789,5.364708424,-11.61176968,0.8452646136,12.81903911
42.8741393,4.887340069,-11.10927773,0.9900303483,12.17712218
42.87645784,4.460819721,-10.98485088,0.8709874153,11.88799733
42.87877633,4.029513359,-11.22114182,0.6634100676,11.94115214
42.88109482,3.528815269,-11.52084255,0.456430912,12.05780575
42.88341331,3.103491068,-11.80558872,0.3068794906,12.21055924
42.88571893,2.682952404,-11.98804188,0.337986201,12.289248
42.88805034,2.277967215,-12.17527962,0.3690928817,12.39204575
42.89036883,1.897508383,-12.44327641,0.4630111754,12.59563595
42.8926744,1.529611826,-12.8069849,0.5246263742,12.90867179
42.89500586,1.082154036,-13.01934814,0.5222335458,13.07467825
42.89732435,0.6448656917,-13.29392433,0.5341976285,13.32027188
42.89962992,0.2697907388,-13.5284214,0.5521438122,13.54237186
42.90196133,-0.08075776696,-13.78624725,0.5318048596,13.79673699
42.90427987,-0.3385843933,-13.98425388,0.5784648657,14.00030777
42.90658544,-0.5204389095,-14.16192055,0.5688936114,14.18289428
42.90891685,-0.6538388133,-14.38086414,0.6831508875,14.41192055
42.91123539,-0.7800601721,-14.49871063,0.7549355626,14.53929268
42.91354096,-0.8063812256,-14.59980774,0.8267202377,14.64541236
42.91587237,-0.7884350419,-14.57049561,0.888933599,14.61886367
42.91819086,-0.7244270444,-14.51605892,1.017547846,14.56970023
42.92050935,-0.6598208547,-14.47119331,1.133001566,14.53046772
42.92282789,-0.6125625968,-14.3066864,1.24666059,14.3739581
42.92514638,-0.561715126,-14.08475208,1.3310076,14.15864917
42.92746487,-0.5072783828,-13.83290768,1.434497118,13.91633745
42.92978336,-0.498903513,-13.63549995,1.537986755,13.73102935
42.9321019,-0.4594219327,-13.54816151,1.676172256,13.6591838
42.93442039,-0.4797609448,-13.35613823,1.865205288,13.49427989
42.93673888,-0.4450650215,-13.10548973,2.02612257,13.26865165
42.93905742,-0.3619144261,-13.0073843,2.184048891,13.19443435
42.94137591,-0.2410768867,-12.93679523,2.322832584,13.14588682
42.9436944,-0.0143569354,-12.9074831,2.514856577,13.15020265
42.94601289,0.2189432681,-12.9637146,2.679363251,13.23951736
42.94833143,0.5294120312,-13.0139637,2.830709219,13.3287825
42.95064992,0.8847461939,-13.1395874,2.9491539,13.49551932
42.95296841,1.333400369,-13.34537029,2.978466034,13.73856341
42.95527399,1.79820621,-13.60798264,2.936591625,14.03689094
42.95760544,2.304288149,-13.91785336,2.785843849,14.37975354
42.95992393,2.776272535,-14.2247324,2.539981127,14.7140139
42.96222951,3.183052301,-14.51845169,2.221137524,15.02833036
42.96456091,3.54018116,-14.76491165,1.849053741,15.2955712
42.96687946,3.840480328,-15.01735497,1.533799291,15.57635322
42.96918503,4.08873558,-15.13699627,1.327418327,15.73557924
42.97151643,4.319045067,-15.17528152,1.229312658,15.82575525
42.97383492,4.519443989,-15.12742519,1.121037364,15.82785809
42.97614055,4.798805714,-15.04846191,1.104287624,15.83364119
42.97847196,5.046463013,-14.8462677,1.057029366,15.7160989
42.98079044,5.146961689,-14.47418404,1.011565804,15.39533967
42.98309602,5.226522923,-14.05962753,1.076770186,15.03825463
42.98542748,5.306084156,-13.66780281,1.203589797,14.710948
42.98774596,5.300102234,-13.27418327,1.258026481,14.3484374
42.99006446,5.23429966,-12.9451704,1.226321578,14.01710363
42.992383,5.100301266,-12.74118233,1.166501045,13.77358068
42.99470149,4.990829945,-12.7627182,1.217946768,13.75786152
42.99701998,4.872983456,-12.84227943,1.317847013,13.79879812
42.99933846,4.770689964,-12.95534039,1.360319614,13.87266365
43.00165701,4.649852753,-13.07378483,1.322034478,13.93889363
43.0039755,4.494917393,-13.09173107,1.130010486,13.88793104
43.00629399,4.289732933,-13.03968716,0.9272187948,13.75845138
43.00861248,4.014558315,-12.85843086,0.7040880919,13.48894595
43.01093096,3.714857101,-12.67358494,0.590429008,13.22000472
43.01324951,3.395415306,-12.62393379,0.4869394004,13.08165354
43.015568,3.05862546,-12.6945219,0.4510470629,13.06558531
43.01788649,2.778665304,-12.77288723,0.4683950245,13.08002381
43.02020503,2.434697151,-12.78544998,0.5988038778,13.02896955
43.02252352,2.099701881,-12.79801178,0.8153542876,12.99471647
43.02482909,1.77009058,-13.05045509,1.05822587,13.21239724
43.0271605,1.393221021,-13.13539982,1.355534077,13.27845118
43.02947904,0.9948160052,-13.14437294,1.762313843,13.29924618
43.03178461,0.5413761139,-13.26939774,2.126621008,13.44962904
43.03411602,0.06939185411,-13.35673618,2.404786825,13.57166962
43.03643451,-0.342771858,-13.51944828,2.659622431,13.78283591
43.03874013,-0.7202396393,-13.73480225,2.739183664,14.02378925
43.04107154,-1.01874423,-13.93879032,2.618346214,14.21912277
43.04339003,-1.221535921,-14.13619804,2.389233351,14.38863027
43.0456956,-1.402792215,-14.35274887,1.869392633,14.54179683
43.04802706,-1.506281853,-14.54836178,1.154536963,14.6716281
43.05034555,-1.579262972,-14.79183102,0.2584248483,14.87814235
43.05265112,-1.667797327,-14.94975758,-0.7567301393,15.06152184
43.05498258,-1.671984792,-15.03290844,-1.743769526,15.22578738
43.05730107,-1.7138592,-15.10828209,-2.86480689,15.47270563
43.05960664,-1.687538147,-15.23928928,-3.903291941,15.82148573
43.06193805,-1.581057549,-15.40678692,-4.774279594,16.20686804
43.06425659,-1.386042476,-15.68196106,-5.542973518,16.69040359
43.06656216,-1.149751306,-16.01815224,-6.001797199,17.14423223
43.06889357,-0.9511470199,-16.2394886,-6.241079807,17.42345396
43.07121206,-0.8045865893,-16.53440475,-6.366703033,17.73608772
43.07351768,-0.7106683254,-16.81077576,-6.421139717,18.00939383
43.07584909,-0.6759724021,-17.05903053,-6.385247231,18.2274201
43.07816758,-0.6999006271,-17.29472351,-6.20758009,18.38834883
43.08047315,-0.7387840152,-17.52144432,-5.949155331,18.51861933
43.08280461,-0.9056833982,-17.65424538,-5.57707119,18.53635253
43.0851231,-1.083948612,-17.71526337,-5.087141037,18.46305784
43.08744159,-1.295713425,-17.6566391,-4.435695171,18.25133335
43.08976008,-1.479960799,-17.62074661,-3.588635683,18.04326193
43.09207862,-1.683948994,-17.56630898,-2.703291416,17.85269391
43.09438419,-1.893320918,-17.51187325,-1.761117458,17.7017486
43.0967156,-2.077568293,-17.4813633,-0.8566305041,17.625214
43.09903409,-2.269592285,-17.49871254,-0.05204389244,17.64535911
43.10133972,-2.50707984,-17.4305172,0.8321040869,17.62954271
43.10367112,-2.789433002,-17.35394669,1.292124271,17.62413082
43.10598961,-3.069393158,-17.26900101,1.412961721,17.5964778
43.10829524,-3.362514019,-17.14696693,1.323829174,17.52362689
43.11062664,-3.626920938,-17.00938034,1.096511006,17.42629942
43.11294513,-3.860221148,-16.78505325,0.8536394835,17.24436199
43.1152507,-4.087539196,-16.57448387,0.5784648657,17.08086982
43.11758216,-4.317848682,-16.3017025,0.4313062727,16.86936118
43.11990065,-4.540380955,-15.97986794,0.4462614357,16.618375
43.12220623,-4.649254322,-15.56531143,0.1944168359,16.24599285
43.12453763,-4.682155609,-15.22074509,0.2009970993,15.92589282
43.12685617,-4.68275404,-14.98864079,0.685543716,15.71806312
43.12916175,-4.637888432,-14.80858135,1.671984792,15.60767836
43.13149315,-4.514657974,-14.76012611,2.79421854,15.6860166
43.13381164,-4.275375843,-14.73918915,3.205784082,15.6779969
43.13611727,-4.036093712,-14.81516171,3.376272678,15.72190466
43.13844867,-3.768097401,-14.80917931,3.282354355,15.62959372
43.14076716,-3.634697676,-14.61416435,3.272783279,15.4109032
43.14308571,-3.530609846,-14.4634161,2.900699139,15.16804756
43.14540419,-3.399004459,-14.24507141,2.380260229,14.83714695
43.14772268,-3.265006542,-14.06560993,1.764706731,14.5470217
43.15004117,-3.125624657,-13.86162186,0.9056833982,14.23848139
43.15235972,-2.976073265,-13.58166122,-0.2350948304,13.90589096
43.1546782,-2.840878725,-13.35135174,-1.828714728,13.772196
43.15698378,-2.677568436,-13.14377499,-3.26440835,13.80523652
43.15931518,-2.490330219,-12.84287739,-4.36211586,13.7901885
43.16163373,-2.252244234,-12.58923817,-5.153541565,13.7884195
43.1639393,-1.996212244,-12.31585789,-5.868995667,13.78805022
43.1662707,-1.755135417,-12.0472641,-6.474380016,13.78893285
43.16858919,-1.505085468,-11.70030499,-6.669992924,13.55179784
43.17089482,-1.121635556,-11.43649578,-6.544968128,13.22452683
43.17322623,-0.6867401004,-11.15174961,-5.818148136,12.59698294
43.17554472,-0.2781656384,-10.86161995,-4.695914268,11.83654404
43.17785029,0.128614217,-10.67258739,-3.710669756,11.2999882
43.18018175,0.4510470629,-10.46142101,-2.974876642,10.88552544
43.18250024,0.7016952634,-10.31067276,-2.559123755,10.64666443
43.18480581,0.7148557901,-10.09412193,-2.507678032,10.42548634
43.18713727,0.6221339107,-9.841081619,-1.942373753,10.05021163
43.18945576,0.8536394835,-9.695717812,-1.431506157,9.837929362
43.19176133,0.9457631707,-9.804591179,-1.85443759,10.02314396
43.19409274,0.8907282352,-9.932606697,-2.955734253,10.40127096
43.19641128,0.8530412912,-9.9643116,-4.129413605,10.81976163
43.19871685,0.8745766878,-9.816555023,-4.926821709,11.01831244
43.20104826,0.985244751,-9.583852768,-5.170889854,10.93430578
43.2033668,1.179661512,-9.228518486,-5.047659397,10.5847069
43.20567237,1.447059512,-8.875576973,-4.451248169,10.03411471
43.20800378,1.747956991,-8.564510345,-3.731008768,9.504031646
43.21032227,1.99800694,-8.336593628,-3.449253798,9.24057232
43.21262784,2.08534503,-8.147561073,-3.63589406,9.162485523
43.2149593,2.033301115,-7.871190071,-4.052843571,9.083803585
43.21727779,2.030908108,-7.549953461,-4.141377926,8.847451392
43.21958336,2.153540373,-7.219744205,-3.88056016,8.474738325
43.22191482,2.240878344,-6.905686378,-3.87218523,8.228235447
43.22423331,2.267199516,-6.612565517,-3.960121393,8.034225402
43.22653888,2.179861546,-6.336194515,-4.07736969,7.843730036
43.22887029,2.114058733,-6.121438503,-4.313062668,7.780987293
43.23118883,2.016551256,-5.96590519,-4.572684288,7.782541057
43.2334944,1.860419631,-5.773283005,-4.742574692,7.699608598
43.23582581,1.663609982,-5.519045353,-4.860421181,7.539970413
43.2381443,1.508076429,-5.137988567,-4.544568539,7.023270195
43.24044992,1.47756803,-4.753342152,-4.34775877,6.609120608
43.24278133,1.374676585,-4.256831646,-4.43808794,6.301347153
43.24509982,1.2352947,-3.664607763,-4.453042984,5.897872063
43.24740544,1.116850019,-3.119044304,-3.929014683,5.139352849
43.24973685,1.066002488,-2.758924484,-3.483949661,4.570112784
43.25205534,0.9906286001,-2.539382935,-3.128017426,4.14901238
43.25436091,0.866201818,-2.402393818,-2.96291256,3.911604847
43.25669237,0.2961117923,-2.191227436,-3.336791277,4.002915924
43.25901086,0.1812563092,-1.924427629,-2.967698336,3.541681657
43.26131643,0.3176472187,-1.916052699,-2.785245657,3.395548714
43.26364784,0.3768695593,-1.832902193,-2.680559635,3.269091781
43.26596638,0.5048855543,-1.709073544,-2.441875458,3.023011338
43.26827196,0.5946164131,-1.56191504,-2.212762833,2.772988753
43.27060336,0.5587241054,-1.308275819,-2.124228239,2.556580501
43.2729219,0.4839483798,-1.003190875,-2.088934183,2.367328449
43.27522748,0.4576273263,-0.7345965505,-2.034497499,2.210935308
43.27755888,0.4115654826,-0.4612165689,-1.960319996,2.055471079
43.27987737,0.3637090325,-0.1310070455,-1.796411633,1.837536901
43.282183,0.2129612118,0.1585244983,-1.785643935,1.805271935
43.2845144,0.002991028363,0.3499503136,-1.812563181,1.846038855
43.28683289,-0.1214357466,0.4677968323,-1.509272933,1.58476664
43.28913846,-0.2368894368,0.4797609448,-1.391426325,1.490756314
43.29146992,-0.3601198196,0.4193421602,-1.291526079,1.404839402
43.29378841,-0.4755735099,0.2578266263,-1.344168067,1.448941864
43.2961069,-0.6005984545,0.1160518974,-1.368096352,1.498624094
43.29842544,-0.7363911867,0.03110669367,-1.349551916,1.537702826
43.30074393,-0.9020941257,-0.01615155302,-1.365105271,1.636321205
43.30306242,-1.063011408,-0.03888336942,-1.404586911,1.761922121
43.30538091,-1.214357495,-0.08075776696,-1.448255897,1.891727011
43.30769946,-1.436890006,-0.1298106313,-1.487737536,2.072406009
43.31001794,-1.601396561,-0.2201396823,-1.560120344,2.24653242
43.31233643,-1.769492388,-0.3535395563,-1.579861164,2.398344184
43.31465492,-1.884347796,-0.4953143001,-1.622931957,2.535746638
43.31697347,-2.043470621,-0.6293123364,-1.580459356,2.658882843
43.31929196,-2.201396942,-0.8344969153,-1.470389485,2.775712312
43.32161044,-2.285743713,-1.090528965,-1.359721422,2.874494754
43.32392893,-2.371885538,-1.284347534,-1.320838094,3.00333196
43.32624748,-2.464009047,-1.439880967,-1.21555388,3.101962123
43.32856596,-2.53280282,-1.570888042,-1.119242787,3.183627457
43.33088446,-2.579462767,-1.648654819,-1.004985452,3.222062481
43.333203,-2.572882652,-1.764108539,-0.822532773,3.226199659
43.33552149,-2.528017044,-1.911267042,-0.5736792088,3.220701743
43.33783998,-2.464607239,-2.053640127,-0.3242274821,3.224414687
43.34015846,-2.421536446,-2.157727718,-0.02213360928,3.243473071
43.34247701,-2.339582443,-2.303689957,0.3996013701,3.307614651
43.34478258,-2.258824587,-2.444866419,0.8925228715,3.446194625
43.34711399,-2.188236237,-2.595614433,1.51944232,3.719448491
43.34943253,-2.050648928,-2.76909399,2.151147604,4.062078109
43.3517381,-1.962114573,-2.915056229,2.892324448,4.551152285
43.35406951,-1.846660852,-3.030509949,3.757927895,5.168768607
43.356388,-1.706680775,-3.174677372,4.647459984,5.881345083
43.35869357,-1.618744493,-3.348157167,5.522036552,6.657580479
43.36102503,-1.554736495,-3.53718996,6.521039963,7.579767845
43.36334352,-1.523629785,-3.769293785,7.66779995,8.678950364
43.36564909,-1.536192179,-4.060619831,8.88634491,9.890179254
43.36798055,-1.566700578,-4.390231133,10.23410225,11.24568935
43.37029904,-1.604985833,-4.820939541,11.67218876,12.73017785
43.37260461,-1.63489604,-5.361717224,13.08275795,14.23304086
43.37493602,-1.768894196,-6.077769279,14.26541042,15.60673575
43.37725456,-2.069791555,-6.890132904,15.18904018,16.80669242
43.37956013,-2.514258385,-7.716254711,15.65444374,17.63302841
43.38189154,-2.96291256,-8.476573944,15.70828247,18.09368108
43.38421008,-3.427120209,-9.399605751,15.37687683,18.34519235
43.38651565,-3.932604074,-10.48415279,14.67458344,18.45877118
43.38884706,-4.695316315,-11.61356449,13.53619766,18.44314297
43.39116555,-5.551348686,-12.55753326,12.64786243,18.66755308
43.39347112,-6.252445698,-13.38245869,11.71286678,18.85137995
43.39580258,-6.686144829,-13.94118309,11.08774185,19.02627494
43.39812107,-6.796214581,-14.52084446,10.69053364,19.26994982
43.40042664,-6.430112839,-15.18545055,10.57448101,19.58989301
43.4027581,-5.753541946,-15.84646797,10.49491978,19.85842726
43.40507659,-4.655834675,-16.59362602,10.48116112,20.17126569
43.40738216,-3.573082447,-17.20260048,10.07557774,20.25373171
43.40971357,-2.727817774,-17.66441536,9.613762856,20.29524565
43.41203211,-2.096112728,-17.90549278,8.949156761,20.12679227
43.41433768,-1.829911113,-17.72722626,8.472985268,19.73308402
43.41666909,-1.915454507,-17.27318764,8.178069115,19.20710263
43.41898763,-2.132004976,-16.63011742,8.099704742,18.62018978
43.42129321,-2.499303341,-15.75972843,8.242675781,17.95987922
43.42362461,-2.82831645,-14.73918915,8.418548584,17.20799323
43.4259431,-3.072384357,-13.72702503,8.251648903,16.30829456
43.42824873,-3.273979664,-12.64247799,7.831708431,15.22783141
43.43058013,-3.541975737,-11.49691486,7.229315281,14.03522864
43.43289862,-3.833301783,-10.38604641,6.536593437,12.85656316
43.43520419,-4.04087925,-9.335597992,5.79721117,11.70853331
43.43753565,-4.305285931,-8.3204422,5.143372059,10.68735334
43.43985414,-4.497310162,-7.351349354,4.581656933,9.760108414
43.44215972,-4.667200565,-6.515655994,3.996612072,8.955972432
43.44449117,-4.747958183,-5.817550182,3.447459221,8.262685527
43.44680966,-4.794618607,-5.166104317,3.007778168,7.66314106
43.44911524,-4.819743156,-4.663012981,2.684148788,7.223452698
43.45144664,-4.78385067,-4.298107624,2.391027927,6.861193113
43.45376518,-4.80957365,-3.963112593,2.126022816,6.58469689
43.45607076,-4.753342152,-3.687937975,1.952543259,6.325154013
43.45840216,-4.6935215,-3.407977581,1.936989903,6.115176624
43.46072065,-4.691727161,-3.143570662,1.987239242,5.986940793
43.46302628,-4.66899538,-2.927020311,2.000399828,5.862470916
43.46535768,-4.52482748,-2.78883481,2.067398787,5.70313958
43.46767617,-4.406383038,-2.62253356,2.225325108,5.589809083
43.46998175,-4.41296339,-2.435295343,2.419143677,5.590810802
43.47231321,-4.588237286,-2.179861546,2.620738983,5.715941792
43.47463169,-4.85982275,-1.911865234,2.931207657,5.98874646
43.47693727,-5.254040241,-1.680359721,3.07836628,6.317031471
43.47926873,-5.880361557,-1.445264935,3.128615618,6.815840261
43.48158722,-6.509674072,-1.277767301,3.164507866,7.350010601
43.48389279,-7.012166977,-1.250848055,3.255435228,7.831536573
43.48622419,-7.464410305,-1.47756803,3.253042459,8.275440395
43.48854274,-7.811369419,-1.869990945,3.181257725,8.639141106
43.49084831,-8.099704742,-2.448455811,3.025724173,8.986387458
43.49317972,-8.426324844,-3.211168051,2.694318295,9.411370873
43.49549821,-8.870791435,-4.337589264,1.701895118,10.02008325
43.49780383,-9.012566566,-5.676373482,1.190429211,10.71749475
43.50013524,-8.886942863,-7.16710186,1.059422255,11.46592683
43.50245373,-8.909076691,-8.993423462,0.8195417523,12.68562027
43.5047593,-8.91146946,-10.48176003,1.183250785,13.80875315
43.50709076,-9.154341698,-12.47976685,1.696511269,15.56999367
43.50940925,-9.348757744,-14.71047497,2.889333248,17.66764251
43.51171482,-9.639486313,-16.81316757,4.280161381,19.84747041
43.51404628,-10.13001442,-18.9876461,5.990431309,22.3390502
43.51636477,-10.71266651,-21.01017952,7.879564762,24.86516455
43.51867034,-11.41017437,-23.15115738,9.725028992,27.58159452
43.52100175,-11.90070343,-25.06182671,11.02253723,29.85327833
43.52332029,-12.05025482,-26.68715096,11.75354481,31.5524719
43.52562586,-11.94616699,-28.26043129,11.61835003,32.80775731
43.52795727,-11.31805134,-29.71526718,11.25763226,33.73173096
43.53027581,-10.11147022,-31.02832985,10.73838997,34.3556706
43.53258138,-8.285746574,-32.08176804,10.09950638,34.63947843
43.53491279,-5.958726406,-32.49811935,9.86022377,34.47982301
43.53723128,-3.514458179,-31.90350342,9.486345291,33.46902588
43.5395369,-1.222134113,-30.10769081,8.668598175,31.35460496
43.54186831,0.709471941,-27.17468834,6.803991318,28.02251478
43.5441868,2.042872429,-23.40300179,3.7256248,23.78558598
43.54649237,2.655434847,-19.43809509,0.005982056726,19.61863682
43.54882383,2.764906645,-15.77767467,-3.569493294,16.41100269
43.55114232,2.45383954,-12.40499115,-6.692126751,14.30698062
43.55344789,1.978864312,-9.299106598,-9.342776299,13.3295445
43.55577935,1.428515077,-5.871986866,-11.3760767,12.88161504
43.55809784,1.21555388,-3.002992392,-12.65324593,13.06139989
43.56040341,1.060618639,-1.499103427,-13.08515072,13.21337929
43.56273482,0.7794619799,-0.4677968323,-12.84766293,12.87978406
43.56505336,0.3732803464,0.3164508045,-11.74516964,11.75536002
43.56735893,-0.1274178028,0.970289588,-10.31904793,10.36534839
43.56969034,-0.6370890141,1.326820135,-8.546564102,8.672375225
43.57200883,-1.112064362,1.381256819,-6.580860615,6.815591242
43.57431446,-1.564906001,1.436890006,-4.414757729,4.899353986
43.57664586,-2.017149448,1.248455167,-2.075175524,3.151806729
43.57896435,-2.536990166,1.158724308,0.09631111473,2.790741291
43.58126992,-2.97726965,1.210170031,2.495713949,4.069058145
43.58360138,-3.212962627,1.213161111,4.540380955,5.692973559
43.58591987,-3.169293642,0.8859425783,6.135795593,6.96256447
43.58822544,-2.879761934,0.2267199457,7.221538544,7.777856367
43.5905569,-2.340180635,-0.6490531564,7.094120979,7.498284329
43.59287539,-1.380658627,-1.676172256,5.560321808,5.969334157
43.59518097,-0.2255235314,-2.705684185,2.849253654,3.935712662
43.59751237,1.063609719,-3.550948858,-0.6203392744,3.758367231
43.59983091,2.513660192,-4.325624943,-4.107878208,6.473343964
43.60213649,3.870988846,-5.255835056,-7.433303356,9.8925404
43.60446789,4.664209366,-6.376274109,-10.56132126,13.18913292
43.60678638,5.4652071,-7.629515171,-12.94457245,15.98874436
43.60909201,6.276373863,-8.866603851,-14.39282799,18.03227745
43.61142341,6.99003315,-10.38784122,-15.14357662,19.64931861
43.6137419,7.442874908,-11.7463665,-15.52523136,20.84241641
43.61604753,7.688737392,-12.73460197,-15.50190163,21.4847789
43.61837893,7.698906898,-13.42074394,-15.13938904,21.64695442
43.62069742,7.627720356,-14.22832203,-14.31805229,21.57855155
43.623003,7.49910593,-14.96830177,-13.13061428,21.27674033
43.62533446,7.161119938,-15.64128304,-11.65484047,20.77899613
43.62765294,6.701099873,-16.18684769,-10.14257717,20.24328652
43.62995852,6.191428661,-16.60858154,-8.317451477,19.57954976
43.63228998,5.702096462,-16.91905022,-6.235097408,18.91149397
43.63460846,5.174479008,-17.28754616,-4.080958843,18.50104619
43.63691404,4.740181446,-17.70269966,-2.082952023,18.44433747
43.63924544,4.393222332,-18.14896202,-0.1459621787,18.67368549
43.64156399,4.166502476,-18.72264099,1.478166223,19.23751553
43.64386956,4.030709743,-19.21795464,2.739781857,19.826316
43.64620097,3.90030098,-19.22453499,3.602394581,19.94423074
43.64851951,3.769293785,-18.88116455,3.955934048,19.65592442
43.65082508,3.601796389,-18.24168396,3.763910055,18.97100392
43.65315649,3.556332588,-17.41376686,3.141776085,18.04875438
43.65547498,3.548556089,-16.49312782,2.315055847,17.0286523
43.6577806,3.538984776,-15.52463341,1.52542448,15.99579868
43.66011201,3.515056372,-14.69073486,0.5748756528,15.11634196
43.6624305,3.421138287,-13.90708542,-0.3810569942,14.32677272
43.66473607,3.330809116,-13.08993626,-1.289731383,13.56849762
43.66706753,3.215355396,-12.33021545,-1.844268084,12.87532711
43.66938602,3.025724173,-11.6769743,-2.328216314,12.28524834
43.67169159,2.801397085,-11.0494566,-2.659024239,11.70507269
43.67402305,2.615953445,-10.49671459,-2.731407166,11.15727631
43.67634154,2.399402857,-10.06002426,-2.684148788,10.68484333
43.67864711,2.147558212,-9.763314247,-2.61714983,10.33362398
43.68097852,1.878963947,-9.375079155,-2.474178553,9.876445423
43.68329706,1.581057549,-9.040681839,-2.164308071,9.429628864
43.68560263,1.348953724,-8.800801277,-1.943570137,9.113245533
43.68793404,1.137787223,-8.661419868,-1.617548108,8.88432416
43.69025253,0.9996016622,-8.611170769,-1.137188911,8.743263928
43.69255815,0.8997012973,-8.588438988,-0.685543716,8.662604508
43.69488956,0.7794619799,-8.614759445,-0.4289134443,8.660577811
43.69720805,0.584446907,-8.547162056,-0.2117647976,8.569737553
43.69951362,0.3194418252,-8.480761528,-0.03768695518,8.486859224
43.70184508,0.02093719877,-8.400602341,0.04965107143,8.40077516
43.70416357,-0.2991028428,-8.38923645,0.1136590764,8.395336153
43.70646914,-0.6544370055,-8.353941917,0.2249253243,8.382554787
43.7088006,-1.082154036,-8.267800331,0.3726821244,8.346644334
43.71111909,-1.553540111,-8.210970879,0.6017948985,8.378286623
43.71342466,-2.073380709,-8.131409645,0.9780662656,8.448392983
43.71575607,-2.577069998,-8.109275818,1.312463164,8.609541429
43.71807461,-2.955734253,-8.247461319,1.367498159,8.867188641
43.72038018,-3.190230846,-8.382656097,1.256830096,9.056827148
43.72271159,-3.420539856,-8.480163574,1.22691977,9.225974164
43.72503008,-3.488735437,-8.639883995,1.313061476,9.409729052
43.7273357,-3.437289715,-8.792427063,1.348355532,9.536235991
43.72966711,-3.179463148,-8.982656479,1.32801652,9.620848778
43.7319856,-2.794816732,-9.079565048,1.194018483,9.574715775
43.73430414,-2.11585331,-9.097511292,1.095314622,9.404321403
43.73662263,-1.451845169,-9.067601204,0.94277215,9.231363134
43.73894112,-0.9672985673,-9.105288506,0.6801598072,9.181751611
43.74125961,-0.5443671346,-8.985049248,0.4546363056,9.012998376
43.74357815,-0.1304088384,-8.721240044,0.3702892959,8.730071508
43.74589664,0.2961117923,-8.519644737,-0.0185443759,8.524809238
43.74820222,0.5288137794,-8.279764175,-0.6334998012,8.320784868
43.75053362,0.8051848412,-8.009375572,-0.8859425783,8.098352545
43.75285216,1.188036442,-7.563712597,-0.6951149702,7.687936242
43.75515774,1.594816327,-7.135396957,-0.4701896608,7.326554932
43.75748914,1.87956214,-6.682555676,-0.513858676,6.960844412
43.75980768,1.957927108,-6.339783669,-0.7112665176,6.673247754
43.76211326,1.950748682,-6.124429703,-1.151545882,6.529940086
43.76444466,1.87956214,-5.973681927,-1.688136339,6.48594125
43.76676315,1.843669891,-5.917450428,-2.122433662,6.551340541
43.76906878,1.838286042,-6.01376152,-2.327618122,6.705402995
43.77140018,1.861017823,-6.196214199,-2.230110645,6.843233974
43.77371867,1.892124534,-6.32004261,-2.09072876,6.920565049
43.77603716,1.876571178,-6.291927338,-2.081157446,6.88774893
43.7783557,1.85443759,-6.397211552,-1.904686809,6.927559906
43.78067419,1.797608018,-6.527620316,-1.6181463,6.961294349
43.78299268,1.70249331,-6.644868374,-1.260419369,6.974339837
43.78531123,1.576271892,-6.685546398,-0.836291492,6.919577095
43.78762972,1.428515077,-6.812964439,-0.4169493318,6.973592082
43.7899482,1.303490162,-7.045666218,-0.08733802289,7.16576074
43.79226669,1.19581306,-7.393822193,0.1866401732,7.492223305
43.79458524,1.063011408,-7.771289825,0.1405783296,7.844915619
43.79690373,0.9768698215,-8.094919205,0.03230310604,8.153712962
43.79922222,0.8913264275,-8.303692818,0.07597211748,8.351739278
43.8015407,0.7501499057,-8.431708336,0.285344094,8.469820045
43.80385925,0.589232564,-8.579465866,0.494716078,8.613894216
43.80617774,0.4791627228,-8.773283958,0.6095715761,8.807478972
43.80849623,0.2829512656,-8.974879265,0.7764709592,9.012847851
43.81081477,0.09750752151,-9.041280746,0.9373882413,9.090267431
43.81313326,-0.05623133108,-9.072985649,1.151545882,9.145943826
43.81545175,-0.1776670814,-9.061020851,1.402792215,9.170686477
43.81777024,-0.2793620527,-9.039485931,1.568495274,9.178808555
43.82008878,-0.3391826153,-9.00179863,1.768295884,9.180103145
43.82240727,-0.4241278172,-8.912666321,1.904686809,9.123778668
43.82472576,-0.4516452849,-8.840881348,2.08534503,9.094714419
43.82704425,-0.4731806815,-8.759525299,2.14157629,9.029924276
43.82936279,-0.4666004181,-8.62014389,2.069193363,8.877283245
43.83168128,-0.4265206456,-8.465806961,1.911267042,8.689346872
43.83399977,-0.3038884699,-8.343173981,1.734796405,8.52704045
43.83631831,-0.1800599098,-8.062017441,1.476371527,8.198061946
43.8386368,0.0185443759,-7.727022648,1.175474167,7.815942836
43.84095529,0.2709871531,-7.462017536,0.9463613629,7.526668558
43.84327378,0.4977070987,-7.255636692,0.4797609448,7.288494133
43.84559232,0.7423732281,-7.121040344,-0.09690931439,7.160288054
43.84791081,0.9559326172,-7.073781967,-0.7052844763,7.172839374
43.8502293,1.184447169,-7.093522549,-1.223330617,7.295033588
43.85253487,1.357926846,-7.205387115,-1.668993831,7.519781194
43.85486633,1.469791293,-7.377072334,-1.986641049,7.779988774
43.85718482,1.563111424,-7.600800991,-2.164906263,8.056197128
43.85949039,1.53918314,-7.960920811,-2.172084808,8.394241914
43.86182185,1.480558991,-8.336593628,-1.969891191,8.693176609
43.86414034,1.283749342,-8.778069496,-1.572682738,9.009764006
43.86644591,0.9768698215,-9.230313301,-1.04685986,9.340710565
43.86877732,0.5318048596,-9.730413437,-0.4749752879,9.756503656
43.87109586,0.03409772366,-10.18265629,0.06759724021,10.18293775
43.87340143,-0.4546363056,-10.63490009,0.5341976285,10.65800925
43.87573284,-0.9451649189,-10.91964626,0.851246655,10.99348135
43.87805138,-1.450050473,-10.99860954,1.01874423,11.1404622
43.88035696,-1.859223247,-10.88315582,1.067198873,11.09228133
43.88268836,-2.126022816,-10.68335533,0.9774680734,10.93661273
43.88500685,-2.273779631,-10.44646549,0.7740781307,10.71904436
43.88731248,-2.193620205,-10.16171932,0.5581258535,10.41076432
43.88964388,-2.022533417,-9.899106979,0.3577269912,10.10994209
43.89196237,-1.674975872,-9.646066666,0.1728814393,9.791937208
43.89428086,-1.220339537,-9.43848896,0.008374879137,9.517056928
43.8965994,-0.656829834,-9.252447128,-0.1028913707,9.2763026
43.89891789,-0.0933200866,-9.081359863,-0.1800599098,9.083624121
43.90122346,0.566500783,-8.945567131,-0.2087737769,8.96591774
43.90355492,1.261615753,-8.88634491,-0.2177468538,8.978096338
43.90587341,1.996810555,-8.8977108,-0.2063809484,9.121354229
43.90817899,2.681157827,-9.020941734,-0.1609173268,9.41232657
43.91051039,3.327219963,-9.284152031,-0.07716853172,9.862648052
43.91282893,3.912265062,-9.471389771,0.05383851007,10.24772856
43.91513451,4.39800787,-9.643074989,0.2117647976,10.60076473
43.91746591,4.761716843,-9.927223206,0.3601198196,11.01605166
43.91978446,5.016552448,-10.24726295,0.4983053207,11.42017971
43.92209003,5.164309502,-10.65105152,0.6646065116,11.8556608
43.92442143,5.21994257,-10.99083233,0.8536394835,12.19733151
43.92673992,5.15533638,-11.32343483,1.02711916,12.48409561
43.9290455,5.015954494,-11.50887871,1.133001566,12.60546632
43.93137696,4.819743156,-11.66680527,1.194018483,12.67950904
43.93369544,4.630111694,-11.73380375,1.20717907,12.67191249
43.93601393,4.442873478,-11.84925747,1.182652593,12.70994471
43.93833248,4.198805332,-12.15254784,1.097109199,12.90418667
43.94065096,3.90568471,-12.25603771,1.013360381,12.90316755
43.94296946,3.734597921,-11.86660576,0.9134600163,12.47389126
43.94528794,3.602394581,-11.86002541,0.7310073376,12.41659458
43.94760649,3.423531055,-12.10469151,0.5886343718,12.59327645
43.94992498,3.254837036,-12.58385468,0.5808576941,13.01094763
43.95224346,3.037090063,-12.63230896,0.5982056856,13.0060369
43.95456201,2.88454771,-12.49173069,0.6580262184,12.83732642
43.9568805,2.793022156,-12.67597771,0.7537391186,13.00190395
43.95919899,2.635694027,-12.90030479,0.8973084688,13.19734478
43.96151748,2.45383954,-12.9194479,1.019940615,13.18991059
43.96383602,2.294716835,-12.8691988,1.118644595,13.1199607
43.96615451,2.167897224,-12.75733376,1.112064362,12.98791862
43.968473,2.036292076,-12.66401386,1.13419795,12.87672853
43.97079149,1.997408748,-12.65563869,1.190429211,12.86747661
43.97311003,1.957328916,-12.5940237,1.299302697,12.81127461
43.97542852,1.926820397,-12.55573845,1.389631748,12.77850857
43.97774701,1.863410592,-12.54317665,1.493719578,12.76850726
43.98006555,1.774278045,-12.43908882,1.554138303,12.66074007
43.98238404,1.649253011,-12.42772293,1.629512191,12.64213759
43.98470253,1.588834286,-12.33260822,1.752144337,12.55737352
43.98702102,1.528415442,-12.25244808,1.822732687,12.48122158
43.98933956,1.398006678,-12.16451168,1.811366796,12.37783571
43.99165805,1.321436286,-12.13759327,1.748555183,12.33388866
43.99397654,1.192822099,-12.13579845,1.680359721,12.30951004
43.99629508,1.085145116,-12.15793228,1.555932879,12.30503086
43.99861357,0.9906286001,-12.1794672,1.478764415,12.30883872
44.00093206,0.9601200819,-12.09870911,1.454237938,12.22355924
44.00325055,1.031306505,-12.06341553,1.425524116,12.19105025
44.00556909,1.10010016,-12.14357471,1.389033556,12.27216531
44.00788758,1.164706469,-12.24766254,1.39022994,12.38121635
44.01020607,1.223330617,-12.30389404,1.377069473,12.44100747
44.01252456,1.307079315,-12.41695499,1.416550994,12.56566132
44.0148431,1.455434322,-12.60060406,1.409372568,12.76243874
44.01716159,1.643270969,-12.86022568,1.403390527,13.04052334
44.01948008,1.850848317,-13.11506081,1.374078393,13.31610119
44.02179862,2.034497499,-13.39442253,1.358525038,13.6159952
44.02411711,2.261217356,-13.65284824,1.33399868,13.90298247
44.0264356,2.438884497,-13.88375473,1.303490162,14.15647871
44.02875409,2.607578516,-14.13500118,1.268794179,14.42939925
44.03107263,2.746362209,-14.32403469,1.219143152,14.63580491
44.03337821,2.933002472,-14.51665688,1.174277663,14.85647194
44.03570961,3.133999348,-14.689538,1.125224829,15.06222459
44.0380281,3.348157167,-14.83789349,1.104287624,15.25098983
44.04034664,3.57128787,-14.96232033,1.015753269,15.41612407
44.04266513,3.718446493,-14.93480206,0.9882357717,15.4224436
44.04498362,3.945166349,-14.85763359,1.027717352,15.40681071
44.04730216,4.073780537,-14.71047497,1.11445713,15.30476319
44.04962065,4.183252335,-14.53460312,1.26640141,15.1775512
44.05193914,4.185645103,-14.29950809,1.379462242,14.96323738
44.05425763,4.072584152,-14.04287815,1.481157184,14.69633271
44.05657617,3.975674868,-13.81855106,1.55054903,14.46245299
44.05889466,3.795614958,-13.48235893,1.541576028,14.0910309
44.06121315,3.58504653,-13.2329073,1.404586911,13.78170013
44.06353169,3.397808075,-13.12223911,1.206580877,13.60860377
44.06585018,3.193221807,-13.11805153,1.123430252,13.54776871
44.06816867,3.059223652,-13.26521015,1.042074203,13.65322557
44.07048716,2.922234535,-13.46979713,0.9230313301,13.81401015
44.0728057,2.819941521,-13.68395424,0.6472585201,13.98647981
44.07512419,2.623131752,-13.87179089,0.2602194548,14.12002538
44.07744268,2.447857618,-13.97767353,-0.1268195957,14.19096358
44.07976117,2.341975212,-14.06740475,-0.313459754,14.26446568
44.08207972,2.188834429,-14.02732468,-0.3672982752,14.20182178
44.0843982,2.04586339,-13.93400478,-0.1262213886,14.08396174
44.08671669,1.8628124,-13.78445339,0.2482553422,13.91196809
44.08903524,1.62652123,-13.65464211,0.717248559,13.76986811
44.09135373,1.364507079,-13.48176098,1.314856052,13.61427946
44.09367222,1.130010486,-13.29392433,2.041077614,13.49708656
44.09597779,0.8279166222,-13.09352589,2.738585472,13.40245188
44.09830925,0.4863412082,-12.95175076,3.263810158,13.36550905
44.10062774,0.1244267747,-12.90688515,3.599403381,13.39995787
44.10293331,-0.3020938635,-12.85364532,3.747758389,13.39227956
44.10526477,-0.7004988194,-13.12283802,3.646063566,13.63793811
44.10758326,-0.9978070259,-13.4907341,3.297907829,13.92378259
44.10988883,-1.176072359,-13.83171082,2.812164783,14.16360269
44.11222024,-1.301097274,-14.15294743,2.226521492,14.38597139
44.11453878,-1.325623751,-14.47179127,1.565504193,14.61645731
44.11684435,-1.279561877,-14.72662735,0.775872767,14.8024596
44.11917576,-1.282552958,-14.85763359,-0.2153540403,14.91444251
44.1214943,-1.260419369,-15.02273846,-1.268195987,15.12876891
44.12379987,-1.206580877,-15.14776421,-2.282752752,15.36624736
44.12613128,-1.119242787,-15.26800346,-3.278167009,15.65602163
44.12844977,-1.016351461,-15.44985771,-4.225126743,16.04938533
44.13075539,-0.8859425783,-15.79861164,-5.079962254,16.61887603
44.1330868,-0.7465606928,-16.1760788,-5.849255085,17.21733612
44.13540529,-0.6077769399,-16.53500175,-6.522236347,17.78525352
44.13771086,-0.513858676,-16.86461449,-7.039085865,18.28190368
44.14004232,-0.484546572,-17.17627907,-7.346563816,18.68773255
44.14236081,-0.5066801906,-17.42214203,-7.316653252,18.90294084
44.14466638,-0.5324030519,-17.60040665,-7.138986588,19.00060253
44.14699784,-0.6035895348,-17.72603035,-6.766304016,18.9831331
44.14931633,-0.732203722,-17.87199211,-6.260820389,18.95104473
44.1516219,-0.8536394835,-17.96531296,-5.655436516,18.85378297
44.15395331,-1.000798106,-18.01077652,-5.031507969,18.72713913
44.15627185,-1.145563841,-17.98864174,-4.231706619,18.51515296
44.15857742,-1.312463164,-17.90908051,-3.28414917,18.25495439
44.16090883,-1.517049551,-17.69133377,-2.247458696,17.89792727
44.16322737,-1.749751568,-17.47418594,-1.321436286,17.61121798
44.16553294,-2.016551256,-17.19542122,-0.4671986103,17.31956305
44.16786435,-2.36111784,-16.98126411,0.1914258152,17.14569486
44.17018284,-2.734996319,-16.85982895,0.6017948985,17.09082193
44.17248846,-3.135195971,-16.77248955,0.8410771489,17.08371359
44.17481987,-3.552743435,-16.70070648,0.9894321561,17.103057
44.17713836,-3.949951887,-16.66182137,0.9667003751,17.15088688
44.17944399,-4.385445595,-16.58106422,0.9002995491,17.1748177
44.18177539,-4.776073933,-16.45544052,1.034297585,17.1657268
44.18409388,-5.179264545,-16.25743484,1.296311617,17.11167417
44.18639946,-5.497509956,-16.00559044,1.506281853,16.99030388
44.18873091,-5.730212212,-15.76570988,1.807777524,16.8718997
44.1910494,-5.918048382,-15.54437447,1.93340075,16.74481749
44.19335498,-5.938985825,-15.48694611,1.96151638,16.70223335
44.19568643,-5.837889194,-15.51805305,1.953141451,16.6944806
44.19800492,-5.713462353,-15.65982819,1.707278967,16.75675005
44.20032341,-5.660222054,-15.98046589,1.481157184,17.01785034
44.2026419,-5.58843708,-16.13241005,1.325623751,17.1243266
44.20496044,-5.493920803,-16.10190201,1.326221943,17.06497227
44.20727893,-5.36111927,-16.06002808,1.30289197,16.98127289
44.20959742,-5.345565796,-15.887146,1.15393877,16.80202536
44.21191596,-5.261816978,-15.56890011,0.9708877802,16.46268482
44.21423446,-5.120640278,-15.22074509,0.6837490797,16.07356683
44.21655294,-4.97527647,-14.78525066,0.1525424421,15.60065006
44.21887143,-4.805984497,-14.31207085,-0.4271188378,15.103486
44.22117706,-4.615755081,-13.83350563,-1.363908887,14.64688774
44.22350846,-4.453042984,-13.46261883,-2.68175602,14.43133788
44.22582696,-4.270590305,-13.13898945,-3.927220106,14.36293992
44.22813258,-3.994817495,-12.84527016,-4.800002098,14.28284119
44.23046399,-3.582653761,-12.55813122,-5.33240509,14.10590698
44.23278248,-3.114856958,-12.15853024,-5.455037594,13.68538003
44.23508805,-2.703889608,-11.67338562,-5.359922886,13.12660368
44.23741951,-2.343171597,-11.11226845,-5.122435093,12.45842303
44.239738,-1.913061738,-10.58225822,-4.621737003,11.70488989
44.24204357,-1.433300734,-10.11386299,-4.028914928,10.98074365
44.24437503,-0.9678967595,-9.693922997,-3.412763357,10.32259274
44.24669352,-0.5353940725,-9.254839897,-2.820539713,9.689899515
44.24899909,-0.285344094,-8.907281876,-2.358724833,9.218713278
44.2513305,0.03230310604,-8.611170769,-1.923231244,8.82338506
44.25364904,0.3481557071,-8.266005516,-1.417747378,8.39393038
44.25595461,0.6173482537,-7.960920811,-0.8398807645,8.028871572
44.25828602,0.8309076428,-7.932207108,-0.7573283911,8.011483221
44.26060456,1.127019525,-8.112266541,-0.7914260626,8.22832891
44.26291013,1.644467354,-8.442476273,-1.233500123,8.689142711
44.26524154,2.00099802,-8.598010063,-1.777269006,9.004912839
44.26756003,2.179263115,-8.63390255,-2.458027124,9.237713911
44.26986565,2.35274291,-8.520243645,-3.124428272,9.375073493
44.27219706,2.528017044,-8.324629784,-3.601796389,9.416117482
44.27451555,2.682952404,-8.086544037,-4.083950043,9.44823137
44.27682112,2.775076151,-7.802396297,-4.610371113,9.478077728
44.27915258,2.844467878,-7.445865631,-4.926821709,9.370458081
44.28147107,2.891726255,-7.060023308,-4.953142643,9.096132798
44.28377664,2.966501951,-6.635895252,-4.831707001,8.728151704
44.2861081,3.01974225,-6.202196121,-4.586442947,8.283811858
44.28842659,3.08434844,-5.863611698,-4.201198578,7.845075968
44.29073216,3.105883837,-5.665606022,-3.969094515,7.582830426
44.29306362,3.107678413,-5.429912567,-3.717848301,7.277637776
44.29538211,3.226123095,-5.124229908,-3.490530014,6.989234733
44.29768768,3.285943747,-4.853840828,-3.496512175,6.825158934
44.30001909,3.320041418,-4.684548378,-3.530609846,6.740391265
44.30233763,3.364308596,-4.501497746,-3.665206194,6.7093808
44.30464321,3.429512978,-4.288536549,-3.608974695,6.570981916
44.30697461,3.394218922,-4.039682865,-3.577867985,6.375021495
44.30929315,3.310470104,-3.724428415,-3.623929977,6.161448516
44.31159873,3.166900873,-3.353540897,-3.594617844,5.84780088
44.31393013,3.088535786,-2.955734253,-2.834298372,5.129197358
44.31624862,2.958725214,-2.558525562,-2.179861546,4.477935272
44.31855425,2.801397085,-2.340778828,-1.816152334,4.077435524
44.32088565,2.696711063,-2.218146563,-1.617548108,3.848231622
44.32320414,2.517249346,-2.073380709,-1.677368641,3.667290197
44.32550977,2.536391973,-1.995614052,-1.38185513,3.510738282
44.32784117,2.644068956,-1.987837434,-1.175474167,3.510603627
44.33015966,2.665006161,-1.891526341,-1.085743308,3.443685274
44.33246524,2.598605394,-1.724626899,-1.044467092,3.289072733
44.33479669,2.480160713,-1.597209096,-0.9894321561,3.111470722
44.33711518,2.232503414,-1.415952802,-1.016351461,2.832307209
44.33942076,1.912463546,-1.207777262,-1.030708313,2.485679455
44.34175222,1.587637782,-1.008574724,-1.039681435,2.149128704
44.3440707,1.258624673,-0.8434699774,-1.024726272,1.829109511
44.34637628,0.9493523836,-0.6879364848,-1.028315544,1.559474082
44.34870768,0.7028916478,-0.6071787477,-0.9451649189,1.325163923
44.35102623,0.5120640397,-0.457029134,-0.8099704385,1.061667237
44.3533318,0.3613162339,-0.3834498227,-0.6496513486,0.8364389171
44.35566321,0.1812563092,-0.3008974493,-0.4899304509,0.6028473864
44.35798175,-0.02273181453,-0.1806581169,-0.3828516304,0.4239451162
44.36028732,-0.1543370634,-0.107078813,-0.2841476798,0.3406254619
44.36261873,-0.2560320199,-0.07537391037,-0.166301176,0.3144673317
44.36493722,-0.4241278172,-0.07896314561,-0.1106680483,0.4453841045
44.36724284,-0.6047859192,-0.07417750359,-0.1645065546,0.6311344679
44.36957425,-0.793818891,-0.111864455,-0.237487644,0.8360995569
44.37189279,-1.030708313,-0.1369891018,-0.3631108403,1.101351498
44.37419836,-1.214955688,-0.1657029688,-0.4743770957,1.31476554
44.37652977,-1.43808639,-0.185443759,-0.5431707501,1.548391526
44.37884826,-1.641476393,-0.2524427772,-0.6203392744,1.772848814
44.38115383,-1.805982947,-0.337986201,-0.6215356588,1.939617399
44.38348529,-2.011167526,-0.4869394004,-0.7220342159,2.191629122
44.38580378,-2.182852507,-0.6646065116,-0.7369893789,2.397853254
44.38810935,-2.374278307,-0.8321040869,-0.6897311211,2.608701537
44.39044081,-2.533999205,-0.9463613629,-0.6137589812,2.773707246
44.3927593,-2.713460922,-1.065404296,-0.500099957,2.957711355
44.39506487,-2.854637384,-1.193420291,-0.3385843933,3.112530478
44.39739633,-2.952743053,-1.339382529,-0.123828575,3.244683438
44.39971482,-2.98863554,-1.478764415,0.1160518974,3.336488368
44.40203331,-3.040081263,-1.633101463,0.4313062727,3.477806719
44.4043518,-3.072384357,-1.777867198,0.8422735929,3.648257422
44.40667034,-3.019144058,-1.962712765,1.302293777,3.829287313
44.40897591,-2.931805849,-2.16131711,1.79521513,4.060735715
44.41130732,-2.881556749,-2.288734913,2.469991207,4.431989775
44.41362586,-2.748156786,-2.514258385,3.24466753,4.939810556
