Time (s),Acceleration x (m/s^2),Acceleration y (m/s^2),Acceleration z (m/s^2),Absolute acceleration (m/s^2)
50.00077449,0.5330012441,-4.737788677,-2.014158487,5.175670612
50.00309293,0.4546363056,-4.576871395,-2.273181438,5.13047754
50.00541131,0.4061816335,-4.342973232,-2.323430777,4.942138261
50.00772975,0.3696911037,-4.094119549,-2.201396942,4.663114291
50.01004814,0.404387027,-3.842873096,-1.974078655,4.339146119
50.01235366,0.4540380836,-3.605983734,-1.779661894,4.046784616
50.01468501,0.3505485058,-3.272184849,-1.868794441,3.78450401
50.0170034,0.2907279432,-2.914458036,-2.105684042,3.607283419
50.01930892,0.2859423161,-2.631506681,-2.441875458,3.601297846
50.02164022,0.2303091735,-2.369492531,-2.859423161,3.72073084
50.02395866,0.09571290761,-2.089532375,-3.081955671,3.724749289
50.02626418,-0.1280160099,-1.883749604,-3.180659533,3.698850596
50.02859548,-0.1866401732,-1.899302959,-2.952144861,3.515301633
50.03091392,-0.06101697683,-2.035095692,-2.702095032,3.383290574
50.0332323,-0.05383851007,-2.053640127,-2.397010088,3.156896216
50.03555074,-0.02273181453,-2.042872429,-2.09072876,2.923181699
50.03786918,-0.05982056633,-2.033301115,-1.695314884,2.648015197
50.04018756,-0.1154536903,-1.995614052,-1.362712502,2.419254092
50.042506,-0.1986042857,-2.001596212,-1.128814101,2.306523864
50.04482444,-0.3008974493,-1.980060697,-0.9206385016,2.204258353
50.04714282,-0.4516452849,-1.911267042,-0.8219345808,2.128967267
50.04946126,-0.5862415433,-1.866401672,-0.8715856671,2.141680631
50.05177965,-0.7238288522,-1.860419631,-0.9678967595,2.218538606
50.05409808,-0.9134600163,-1.84606266,-1.122233868,2.345584234
50.05641652,-1.040279627,-1.853839397,-1.338186026,2.511900486
50.05873491,-1.185045362,-1.905883193,-1.530210137,2.716296434
50.06105334,-1.365703583,-1.895713687,-1.627119422,2.847173032
50.06337173,-1.564906001,-1.953141451,-1.695314884,3.02287692
50.06569017,-1.7670995,-2.068595171,-1.691127419,3.203379243
50.0680086,-1.910070658,-2.263610125,-1.619940877,3.375871615
50.07032699,-2.048854351,-2.46819663,-1.485942841,3.535226285
50.07264543,-2.170290232,-2.595614433,-1.381256819,3.654482778
50.07496381,-2.302493572,-2.679961443,-1.238883972,3.744129202
50.07728225,-2.378465652,-2.734398127,-1.124028444,3.794400074
50.07960069,-2.421536446,-2.759522676,-1.019342422,3.810231375
50.08191907,-2.503490686,-2.756531715,-0.8913264275,3.828889593
50.08423751,-2.563909531,-2.699702263,-0.6681957245,3.782659106
50.08655595,-2.544766903,-2.641077995,-0.3158525825,3.681153952
50.08887433,-2.516052961,-2.596212626,0.1423729509,3.618164253
50.09119277,-2.495713949,-2.590230465,0.5910272002,3.645160508
50.09351116,-2.359323025,-2.53280282,1.240678549,3.677061126
50.09581668,-2.124228239,-2.608176708,1.881955028,3.854437194
50.09814803,-1.82632184,-2.690729141,2.505883455,4.105475206
50.10046642,-1.507478237,-2.851048231,3.125026464,4.490741259
50.10277194,-1.205384374,-3.05862546,3.653840065,4.91514887
50.10510324,-0.9361918569,-3.325425386,4.197010994,5.435973738
50.10742168,-0.680758059,-3.577269793,4.702494621,5.947583237
50.1097272,-0.4289134443,-3.882952929,5.202594757,6.506018936
50.1120585,-0.2769692242,-4.156930923,5.72123909,7.077383936
50.11437694,-0.1465603858,-4.41236496,6.311069489,7.701950569
50.11668241,-0.1435693651,-4.69411993,6.842874527,8.299415996
50.11901376,-0.2554338276,-4.945366383,7.392027378,8.897413324
50.1213322,-0.4576273263,-5.228317261,7.850253105,9.443050247
50.12363767,-0.7010970116,-5.545366287,8.38923645,10.08076944
50.12596902,-1.025922656,-5.87318325,8.942576408,10.74785893
50.12828746,-1.438684583,-6.266802311,9.327820778,11.32920408
50.13059293,-1.916052699,-6.584449768,9.783653259,11.94764026
50.13292428,-2.406581402,-6.95055151,10.36451149,12.70924462
50.13524267,-2.82831645,-7.560122967,10.71326542,13.41375746
50.13754819,-3.265006542,-8.193024635,11.35813046,14.38030069
50.13987954,-3.602394581,-8.964112282,11.94257736,15.360915
50.14219793,-3.813561201,-9.803992271,12.40020561,16.26119961
50.14450345,-3.934398651,-10.62772179,12.36670589,16.77388976
50.14683475,-3.854837179,-11.33659554,12.4109726,17.245591
50.14915319,-3.422334671,-12.09452248,12.75374508,17.90664296
50.15145871,-2.891726255,-12.89312649,12.81655598,18.40812045
50.15379001,-2.343171597,-13.55773354,12.62154102,18.67099059
50.15610845,-1.612164259,-14.10808277,12.43191051,18.8729826
50.15841397,-0.6275177598,-14.64227962,12.1292181,19.02388138
50.16074527,0.3170489967,-15.22194099,11.6267252,19.15695034
50.16306371,1.073779106,-15.87219048,10.99382401,19.33762132
50.16536918,1.341177106,-16.57328796,10.26221848,19.53933873
50.16770053,1.149751306,-17.218153,9.440283775,19.66991811
50.17001897,0.513858676,-17.67637825,8.731410027,19.72196542
50.17232444,-0.4875376225,-17.87857246,8.13320446,19.64764772
50.17465579,-1.643869162,-17.82533264,7.573283672,19.43706293
50.17697423,-2.855235577,-17.47538185,7.007380962,19.04323315
50.1792797,-3.913461447,-16.85205078,6.606583118,18.51901014
50.18161105,-4.634299278,-15.96192169,6.25543642,17.75922742
50.18392944,-5.093122959,-14.95514107,5.976672649,16.89132209
50.18623496,-5.353342533,-13.82393456,5.647061348,15.86344051
50.18856631,-5.471786976,-12.64546967,5.264808178,14.75013766
50.1908847,-5.479563713,-11.45085239,4.746163845,13.55262743
50.19319022,-5.471786976,-10.31366348,4.231706619,12.41851231
50.19552152,-5.408975601,-9.280562401,3.690928936,11.35820461
50.19783996,-5.301896572,-8.303692818,3.26440835,10.37871782
50.20014548,-5.132604599,-7.441080093,3.126222849,9.564861328
50.20247678,-4.889732838,-6.704689026,3.203989506,8.895385934
50.20479522,-4.645665169,-6.021538258,3.234498024,8.264569276
50.20710069,-4.810171604,-5.190032482,3.227319479,7.777517538
50.20943204,-4.986044407,-4.497908592,3.206382275,7.441284017
50.21175048,-5.195415974,-3.912265062,3.075973511,7.194426878
50.21405595,-5.234897614,-3.437887907,2.867199659,6.887964879
50.2163873,-5.076971531,-3.046063185,2.689532757,6.502901453
50.21870574,-4.805984497,-2.732005358,2.413161755,6.031972307
50.22101121,-4.567898273,-2.382055044,1.916052699,5.49646603
50.22334256,-4.427320004,-1.995614052,1.533201098,5.092577291
50.22566095,-4.414757729,-1.615753531,1.149153113,4.839555574
50.22796647,-4.452444553,-1.252044439,1.050449133,4.742923272
50.23029782,-4.609772682,-0.9008977413,1.099501967,4.823953306
50.23261621,-4.847858906,-0.5796613097,1.256830096,5.041563755
50.23492173,-5.134997368,-0.2685943544,1.509871125,5.359109227
50.23725303,-5.422136307,0.02751746029,1.829312921,5.722473687
50.23957147,-5.64526701,0.2823530734,2.139781713,6.043792572
50.24187699,-5.812764645,0.3894318938,2.429313183,6.312008599
50.24420829,-5.970690727,0.4965106845,2.765504837,6.598764098
50.24652673,-6.051448345,0.4911268353,3.241676569,6.882564901
50.2488322,-6.125626087,0.1106680483,3.659224033,7.13620788
50.25116355,-6.126224041,-0.5946164131,4.278964996,7.496247803
50.25348199,-6.122634888,-1.615753531,4.759324074,7.921394011
50.25578746,-6.186643124,-2.852244616,4.86281395,8.369994743
50.25811881,-6.184848309,-4.139583111,4.671986103,8.787260727
50.26043725,-6.071787357,-5.544768333,4.053441525,9.167412164
50.26274272,-5.83310318,-6.884748936,3.674179077,9.742918069
50.26507407,-5.528616905,-8.257032394,2.842673302,10.33561708
50.26739246,-5.23130846,-9.812367439,2.274976015,11.3500951
50.26969798,-5.000999451,-11.38265705,1.863410592,12.57168151
50.27202933,-4.986044407,-13.08275795,1.919043779,14.1315931
50.27434772,-5.03988266,-14.7397871,2.173281193,15.72847393
50.27665324,-5.289334297,-16.53141403,2.824128866,17.58523276
50.27898454,-5.700900078,-18.44567108,3.921836376,19.70085896
50.28130298,-6.254240036,-20.35275078,5.356931686,21.95556193
50.2836085,-6.868597507,-22.15036011,7.525427341,24.38130721
50.2859398,-7.606184959,-23.8187542,10.43629551,27.09434194
50.28825824,-8.216953278,-25.08575439,13.41236877,29.60920517
50.29056371,-8.709874153,-26.2032032,15.50967789,31.67048901
50.29289506,-8.749954224,-27.33082008,16.43330765,33.06945759
50.2952135,-8.134998322,-28.60320282,16.51944923,34.01784256
50.29751897,-6.519843578,-29.87319374,16.09472275,34.55367079
50.29985032,-4.095914364,-30.47618484,14.94257927,34.18852194
50.30216876,-1.71924305,-30.18306541,13.19641685,32.98664354
50.30447423,0.5748756528,-28.90410042,10.85085201,30.87909475
50.30680558,2.718844652,-26.6931324,8.082356453,28.02213267
50.30912397,4.303491592,-23.80918312,4.545764923,24.61831065
50.31142949,5.127819061,-20.59861374,0.6747759581,21.23800223
50.31376084,5.222335339,-17.27438545,-2.897708178,18.27768836
50.31607923,4.814359188,-13.48535061,-5.508875847,15.34211356
50.31838475,4.172484398,-10.39322472,-8.065607071,13.80154931
50.3207161,3.363112211,-8.340183258,-9.643074989,13.18552524
50.32303449,2.303689957,-6.690930367,-10.75633621,12.87533709
50.32534001,1.040279627,-4.724628448,-11.95035458,12.89245012
50.32767131,-0.1226321608,-2.930011272,-13.14257812,13.46578496
50.32998975,-1.138385415,-1.49431777,-13.69173145,13.82000062
50.33229527,-1.99501586,-0.1357926875,-13.66182041,13.80738443
50.33462657,-2.594418049,0.6011967063,-12.58923817,12.86784209
50.33694501,-3.123231649,1.302293777,-10.77667522,11.29545368
50.33925048,-3.606581926,1.808375716,-9.205786705,10.05107779
50.34158183,-4.111467361,1.948355794,-7.365108013,8.657082084
50.34390027,-4.623531342,1.997408748,-5.46161747,7.429397631
50.34620574,-5.092525005,1.84606266,-3.643072367,6.527919618
50.34853709,-5.600999832,1.414158225,-1.79820621,6.050172574
50.35085548,-6.031109333,0.6544370055,0.1501496136,6.068369838
50.353161,-6.443871498,-0.2596212626,2.280359983,6.840389224
50.35549235,-6.803991318,-1.060618639,4.644468784,8.306039973
50.35781074,-7.137191772,-1.929213285,6.879963398,10.0992706
50.36011626,-7.436294556,-2.850450039,8.47238636,11.62776302
50.36244762,-7.533204079,-3.84706068,8.321639061,11.86586348
50.364766,-6.664609432,-4.901099205,6.371488571,10.44191835
50.36707152,-5.151747227,-5.841478348,3.252444267,8.440483546
50.36940282,-3.37387991,-6.786643028,-0.6358926296,7.605652416
50.37172126,-1.658824325,-7.685746193,-4.688137531,9.154290043
50.37402678,0.001794616925,-8.656634331,-8.191828728,11.91819529
50.37635808,1.424327731,-9.680164337,-11.03809071,14.75038093
50.37867652,2.643470764,-10.57268715,-13.22453213,17.13644949
50.38098204,3.690330744,-11.31446171,-14.66561031,18.88691903
50.38331334,4.6432724,-11.96172047,-15.47199154,20.10037953
50.38563178,5.409573555,-12.54856014,-15.67597961,20.79582132
50.38793725,6.029314995,-13.06660652,-15.16092396,20.90316867
50.3902686,6.520441532,-13.79222965,-13.91605854,20.64941747
50.39258704,6.88594532,-14.54895973,-12.37567902,20.30383962
50.39489251,7.088737011,-15.12204075,-10.80060291,19.88917625
50.39722386,7.092924595,-15.71067524,-9.403793335,19.63584032
50.3995423,7.09172821,-16.52902031,-7.79461956,19.60247983
50.40184777,7.052844524,-17.381464,-6.076572895,19.71757198
50.40417913,6.886543751,-18.09332848,-4.365106583,19.84558328
50.40649751,6.617949009,-18.52882195,-2.733201742,19.86416078
50.40880303,6.316453457,-18.74477386,-1.336391449,19.8254905
50.41113439,6.029912949,-18.70170403,-0.2087737769,19.65088217
50.41345277,5.758327484,-18.42712784,0.6598208547,19.31716178
50.41575829,5.608178139,-17.91625977,1.070189953,18.80397119
50.41808959,5.499902725,-17.29891205,1.317248821,18.19990199
50.42040803,5.419743061,-16.6283226,1.359721422,17.54205147
50.42271355,5.336592674,-15.91526127,1.13419795,16.82442176
50.42504485,5.292325497,-15.32184124,0.537786901,16.2190241
50.42736329,5.224728107,-14.70509148,-0.2069791555,15.60706057
50.42966876,5.160121918,-14.08355618,-0.793818891,15.02010523
50.43200012,5.005186558,-13.49731445,-1.210170031,14.44624178
50.43431855,4.831707001,-12.95474148,-1.52542448,13.91034288
50.43662402,4.590630054,-12.42712402,-1.735992789,13.36117385
50.43895538,4.31126833,-11.96351528,-1.727617979,12.83344834
50.44127381,4.03788805,-11.54178047,-1.761715651,12.35398229
50.44357928,3.693321705,-11.16132164,-1.667797327,11.8742273
50.44591064,3.334996462,-10.78983593,-1.554138303,11.39991696
50.44822902,3.011965513,-10.54696369,-1.325025558,11.04835156
50.45053454,2.699702263,-10.34776115,-1.119242787,10.75254656
50.4528659,2.415554523,-10.15693378,-0.8321040869,10.47332826
50.45518428,2.093719721,-9.957731247,-0.5455635786,10.19007917
50.4574898,1.822134495,-9.790233612,-0.02871387079,9.958397099
50.4598211,1.511665702,-9.710074425,0.4061816335,9.83542892
50.46213954,1.331605792,-9.753145218,0.4001995921,9.851760012
50.46444506,1.076171994,-9.835697174,0.4175475538,9.903203069
50.46677636,0.7076773047,-9.815358162,0.4809573591,9.852582555
50.4690948,0.3314059377,-9.891330719,0.6927221417,9.921094559
50.47140032,-0.07238288224,-9.861420631,0.9607182741,9.908372003
50.47373163,-0.4923232496,-9.755537987,1.252642632,9.847944819
50.47605006,-0.902692318,-9.673583984,1.615155339,9.848949553
50.47835553,-1.344168067,-9.490532875,1.962712765,9.784132227
50.48068689,-1.609173179,-9.26142025,2.097309113,9.631305668
50.48300532,-1.796411633,-8.982656479,1.960319996,9.367927554
50.48531079,-1.888535261,-8.860622406,1.715055585,9.220553699
50.48764215,-1.822732687,-8.782855988,1.596012712,9.110881973
50.48996058,-1.703091502,-8.751151085,1.420738459,9.027827188
50.49227897,-1.591825247,-8.74935627,1.178465128,8.97072588
50.49459741,-1.422533035,-8.707481384,0.8452646136,8.863312279
50.49691579,-1.260419369,-8.603393555,0.5072783828,8.710015442
50.49923423,-1.244866014,-8.444869041,0.4301098585,8.546958465
50.50155267,-1.045663476,-8.382058144,0.3361915946,8.453717266
50.50387105,-0.7298108935,-8.384450912,0.1668993831,8.417808292
50.50618949,-0.2925225794,-8.379665375,-0.1585244983,8.386268018
50.50850793,0.2261217386,-8.295916557,-0.3260220885,8.305399025
50.51082631,0.7824530005,-8.215756416,-0.3361915946,8.259776691
50.51313183,1.144367456,-8.033902168,-0.2673979402,8.119400383
50.51546314,1.386042476,-7.750352383,-0.4295116663,7.885020994
50.51778157,1.486541033,-7.456035137,-0.8075776696,7.645550726
50.52008704,1.576271892,-6.993024349,-1.048654556,7.244770459
50.5224184,1.560120344,-6.532405853,-1.123430252,6.80943443
50.52473683,1.505683661,-6.250650883,-1.222134113,6.544565038
50.5270423,1.427916884,-6.079564095,-1.562513232,6.437506801
50.52937366,1.351346612,-6.149554253,-1.877169371,6.570153729
50.53169209,1.299302697,-6.333801746,-1.923829436,6.745839589
50.53401048,1.279561877,-6.381658077,-1.68574357,6.723434375
50.53632892,1.24366951,-6.410970211,-1.299302697,6.658486344
50.5386473,1.175474167,-6.459424496,-0.917647481,6.629327359
50.54096574,1.111466169,-6.527620316,-0.4600201547,6.637529855
50.54328418,0.9936196208,-6.649653912,-0.2554338276,6.728329922
50.54560256,0.9619147182,-6.75613451,-0.09272187948,6.824897859
50.547921,0.8979067206,-6.901498795,0.01316052489,6.959676378
50.55023944,0.7818548083,-7.023532867,0.08973085135,7.067486293
50.55255782,0.679561615,-6.997211456,0.1453639716,7.031635858
50.55487626,0.5461617708,-7.033702374,0.2877369225,7.06074035
50.55719465,0.4432703853,-7.146164894,0.3924229145,7.170645513
50.55951308,0.3553341627,-7.272984505,0.5120640397,7.299642152
50.56183152,0.3349951804,-7.418348312,0.5270192027,7.444586133
50.56414991,0.3002992272,-7.558328629,0.498903513,7.580726614
50.56646834,0.2679961324,-7.601997375,0.575473845,7.628456998
50.56878673,0.2727817893,-7.645068169,0.685543716,7.680589
50.57110517,0.204586342,-7.612765312,0.7704889178,7.654391187
50.5734236,0.09451649338,-7.447062492,0.8877372146,7.500383357
50.57574199,-0.05383851007,-7.450651646,0.9816554785,7.515234927
50.57806043,-0.2249253243,-7.554739475,1.229312658,7.657407496
50.58037886,-0.3433700502,-7.681559086,1.567897081,7.847455272
50.58268433,-0.4839483798,-7.559525013,1.98963201,7.831938457
50.58501569,-0.6873382926,-7.467999458,2.10209465,7.788597547
50.58733407,-0.9200403094,-7.343572617,2.132004976,7.701946388
50.58965251,-1.046261668,-7.278966427,2.202593327,7.676550859
50.59197095,-1.104885817,-7.227520943,2.258824587,7.652458439
50.59428933,-1.11445713,-7.21794939,2.167897224,7.618437272
50.59660777,-1.091127157,-7.145566463,2.009970903,7.50264364
50.59892621,-0.9924231768,-7.028916359,1.819741607,7.328166787
50.60124459,-0.8560323119,-6.896114826,1.595414519,7.129834395
50.60356303,-0.6693921089,-6.820741177,1.262812138,6.968880146
50.60588142,-0.418145746,-6.777071953,0.7304090858,6.829132269
50.60819985,-0.1220339537,-6.795018196,0.1944168359,6.79889421
50.61050538,0.2165504545,-6.807580471,-0.3702892959,6.821082035
50.61283668,0.5688936114,-6.80997324,-0.9493523836,6.899322098
50.61515512,0.9194421172,-6.88893652,-1.489532113,7.107849611
50.61746058,1.279561877,-7.020541668,-2.009970903,7.413856415
50.61979194,1.612762451,-7.263412952,-2.334796667,7.798041159
50.62211038,1.865205288,-7.55593586,-2.516052961,8.179344716
50.62441584,1.967498422,-7.822137356,-2.51844573,8.449819628
50.6267472,1.999203324,-8.176275253,-2.314457655,8.729547823
50.62906558,1.954936147,-8.407182693,-1.984248161,8.856621079
50.63138402,1.759921074,-8.593822479,-1.531406522,8.904847721
50.63370246,1.463809252,-8.916254997,-0.9684949517,9.087371632
50.63602084,1.110269666,-9.283554077,-0.2781656384,9.353846864
50.63832637,0.6376872063,-9.672985077,0.4175475538,9.702970227
50.64065772,0.1722832322,-10.14377308,1.12283206,10.20718206
50.6429761,-0.3888336718,-10.56371403,1.740778446,10.71324205
50.64528162,-0.941575706,-10.91246796,2.187039852,11.16922849
50.64761298,-1.407577872,-11.26361465,2.586043119,11.64207497
50.64993136,-1.818545222,-11.50289631,2.822932482,11.98301623
50.65223688,-2.134397745,-11.66381359,2.840280533,12.19292396
50.65456819,-2.289333105,-11.72542953,2.77746892,12.26544241
50.65688663,-2.317448616,-11.69731331,2.600399971,12.20490831
50.65919209,-2.198405743,-11.59920788,2.333600283,12.03413069
50.66152345,-1.917847395,-11.4825573,2.044068813,11.81970719
50.66384189,-1.496112347,-11.30070305,1.779063582,11.53730076
50.66616027,-0.9571290612,-11.02911758,1.524826288,11.17508953
50.66847871,-0.2871387303,-10.68754196,1.34237349,10.77534076
50.67079715,0.4767699242,-10.32383347,1.198205948,10.40406384
50.67310262,1.27477622,-9.954740524,1.040279627,10.08980154
50.67543397,2.127817631,-9.680762291,0.8500502706,9.948233605
50.67775235,2.986242771,-9.453444481,0.7465606928,9.941962146
50.68005788,3.761517286,-9.325428009,0.6000002623,10.07336191
50.68238923,4.52482748,-9.288339615,0.4821537733,10.34310344
50.68470762,5.243870735,-9.372686386,0.3415754437,10.74532941
50.68701314,5.899504185,-9.424730301,0.171086818,11.1202051
50.68934449,6.436692715,-9.451051712,-0.08673982322,11.43507391
50.69166288,6.957131863,-9.564710617,-0.3816552162,11.8334709
50.6939684,7.435098171,-9.722038269,-0.643071115,12.25611086
50.6962997,7.798807144,-9.862616539,-0.8679963946,12.60341286
50.69861814,8.056633949,-10.00080204,-1.064806104,12.88639609
50.70092366,8.155936241,-10.1330061,-1.143769264,13.05776844
50.70325496,8.195417404,-10.18026352,-1.128814101,13.11780672
50.7055734,8.132007599,-10.30169964,-1.128814101,13.17303246
50.70787887,7.96331358,-10.47338486,-0.9667003751,13.1924472
50.71021022,7.64327383,-10.70189953,-0.7345965505,13.17155725
50.71252866,7.324429989,-10.85264683,-0.3930211067,13.09891917
50.71484704,6.95114994,-11.1056881,0.03050848842,13.10174509
50.71716548,6.491727829,-11.32223892,0.3858426511,13.05697128
50.71948392,5.988636971,-11.74576855,0.7992027402,13.2085418
50.7218023,5.459224701,-11.8211422,1.0863415,13.06608874
50.72412074,5.040481091,-11.96949673,1.35074842,13.05755807
50.72643913,4.594817638,-12.10887909,1.538584948,13.04241333
50.72874465,4.195216179,-12.20937729,1.70249331,13.02179773
50.731076,3.800998688,-12.29551888,1.776072621,12.99160534
50.73339439,3.440280676,-12.37567902,1.792822361,12.96947085
50.73569991,3.082553864,-12.37448215,1.803590059,12.87955294
50.73803121,2.793620348,-12.27099228,1.786242127,12.71110645
50.74034965,2.528017044,-12.30150127,1.731805444,12.67741905
50.74265517,2.356332064,-12.30987644,1.706082582,12.64895555
50.74498647,2.164308071,-12.4109726,1.65762794,12.70685644
50.74730491,1.987239242,-12.37208939,1.574477315,12.62920007
50.74961043,1.890329838,-12.28774261,1.520638824,12.52494742
50.75194173,1.767697692,-12.33380413,1.444068432,12.54323774
50.75426017,1.669592023,-12.39900875,1.366899967,12.58536337
50.75656564,1.579262972,-12.38166046,1.275374413,12.54695848
50.75889699,1.523031592,-12.41216946,1.24666059,12.56724864
50.76121543,1.486541033,-12.46600819,1.237089276,12.61513195
50.76353381,1.464407444,-12.52403355,1.189831018,12.66537024
50.76585225,1.44347024,-12.62513065,1.190429211,12.76301892
50.76817069,1.529611826,-12.81536007,1.178465128,12.96001335
50.77048907,1.596012712,-13.0014019,1.204187989,13.15423037
50.77280751,1.688136339,-13.24905872,1.211366415,13.41099437
50.7751259,1.776670814,-13.53500175,1.238285661,13.7071581
50.77744433,1.946561217,-13.84247875,1.341775298,14.04292276
50.77976277,2.111665964,-14.18465233,1.465005636,14.41560739
50.78208116,2.307279348,-14.57827187,1.503290772,14.83608546
50.78438668,2.548356056,-15.02872086,1.460818172,15.31308456
50.78671803,2.712264538,-15.45284843,1.465005636,15.75732037
50.78903642,2.801995277,-15.79143333,1.439880967,16.10260232
50.79134194,2.871387243,-16.08275986,1.452443361,16.40151277
50.79367324,2.890529871,-16.25982857,1.482353687,16.58115076
50.79599168,2.979662418,-16.4022007,1.593619823,16.74664743
50.79829715,3.065205812,-16.4141655,1.661217093,16.78034439
50.8006285,3.184248686,-16.24786377,1.746760488,16.64883446
50.80294694,3.349951744,-16.02772522,1.741974831,16.46646983
50.80526532,3.506681681,-15.80818272,1.698904037,16.28133079
50.80758376,3.611367464,-15.78186131,1.618744493,16.27050875
50.8099022,3.660420418,-15.08913994,1.56191504,15.60514019
50.81222058,3.795614958,-14.40419388,1.557727575,14.97711619
50.81453902,3.839882135,-13.90349579,1.502094388,14.50200598
50.81685741,3.795016766,-13.45843124,1.498505235,14.06332257
50.81916293,3.728017569,-13.24846077,1.46321106,13.84054964
50.82149428,3.572484255,-13.11326599,1.369890928,13.66005087
50.82381267,3.386442184,-13.06002617,1.244267821,13.5491873
50.8261311,3.120838881,-13.06182098,1.045663476,13.47012304
50.82844954,2.923431158,-13.10070419,0.7770691514,13.44539834
50.83076793,2.734996319,-13.14377499,0.5850451589,13.43805431
50.83308636,2.55792737,-13.24427319,0.4271188378,13.49578435
50.8354048,2.469991207,-13.31845093,0.3122633696,13.54915127
50.83772319,2.395813704,-13.35434341,0.2021935135,13.56905647
50.84004163,2.26241374,-13.31426334,0.01016949583,13.50511858
50.84236001,2.094916344,-13.23709488,-0.1543370634,13.40273014
50.84467845,1.827518344,-13.1766758,-0.3529413342,13.30748571
50.84699688,1.502094388,-13.08395386,-0.5330012441,13.18067625
50.84931527,1.109073281,-12.9828577,-0.589232564,13.04345938
50.85163371,0.6460621357,-12.83450222,-0.5186443329,12.86121439
50.85393918,0.1316052526,-12.69751358,-0.3762713671,12.70376917
50.85627053,-0.3720839322,-12.66580868,-0.1280160099,12.67191951
50.85858897,-0.8434699774,-12.60897923,0.1633101404,12.63821462
50.86089444,-1.301097274,-12.56112289,0.5880361795,12.64201127
50.86322579,-1.693520188,-12.51625729,1.180858016,12.68539052
50.86554423,-2.078166485,-12.43310642,1.916052699,12.75037918
50.8678497,-2.376671076,-12.36192036,2.647658348,12.86373721
50.87018105,-2.581257343,-12.43729401,3.457628727,13.16451169
50.87249944,-2.722434044,-12.88594818,4.003192425,13.76534988
50.87480496,-2.801995277,-13.4159584,4.378267288,14.38778447
50.87713631,-2.770888567,-13.82213974,4.763511658,14.88020207
50.8794547,-2.717648268,-14.3252306,5.134399414,15.45832789
50.88176022,-2.63389945,-14.62971783,5.246861935,15.76374417
50.88409152,-2.566302299,-14.92642784,4.954339504,15.93516977
50.88640996,-2.52682066,-15.354743,4.342374802,16.15577836
50.88871548,-2.420340061,-15.86740494,3.440878868,16.41560943
50.89104678,-2.280958176,-16.31306839,2.367099762,16.64097749
50.89336522,-2.120639086,-16.61396599,1.149751306,16.78817751
50.89567074,-1.889133453,-16.86521149,-0.1728814393,16.97156657
50.89800204,-1.563709617,-17.09013748,-1.423131227,17.22043232
50.90032048,-1.135394335,-17.40958023,-2.604587555,17.63991158
50.90262595,-0.7100701332,-17.6703968,-3.691527128,18.0658378
50.9049573,-0.3296113312,-17.85045624,-4.683351994,18.45755177
50.90727574,-0.0,-17.97368813,-5.599802971,18.82581361
50.90958121,0.2458625287,-18.00300026,-6.442076683,19.12246895
50.91191256,0.404387027,-18.04367828,-7.098906517,19.39413129
50.914231,0.4977070987,-18.03290939,-7.479365349,19.5288105
50.91653647,0.4983053207,-17.98505402,-7.698906898,19.5699679
50.91886782,0.4366901219,-17.78046608,-7.796414375,19.4195713
50.92118626,0.3224328458,-17.61476326,-7.741379261,19.24351321
50.92349173,0.1357926875,-17.46521187,-7.601399422,19.04818465
50.92582308,-0.07896314561,-17.33001709,-7.360920429,18.82867168
50.92814147,-0.3296113312,-17.16252136,-7.021139622,18.54608273
50.93045991,-0.6035895348,-17.03390694,-6.575476646,18.2689682
50.93277834,-0.9230313301,-16.86760521,-5.935994625,17.90542165
50.93509673,-1.253240824,-16.67677689,-5.176871777,17.50672731
50.93741517,-1.602592945,-16.53021622,-4.393820763,17.17911561
50.9397336,-1.907677889,-16.44467354,-3.50069952,16.92103483
50.94205199,-2.215753794,-16.44527245,-2.482553482,16.77854649
50.94435751,-2.464607239,-16.5403862,-1.444666624,16.78528302
50.94668881,-2.656033039,-16.63908958,-0.4480560422,16.85569838
50.94900725,-2.824128866,-16.73719597,0.5814558864,16.98374292
50.95131277,-3.073580742,-16.84606934,1.777269006,17.21614463
50.95364407,-3.341576815,-16.84068489,3.067598581,17.44089918
50.95596251,-3.531208038,-16.64148331,4.089931965,17.49674085
50.95826798,-3.668197155,-16.53320885,4.7844491,17.59811406
50.96059933,-3.807579041,-16.52543068,5.460421085,17.81582767
50.96291777,-3.712464333,-16.28256035,5.922235966,17.71939733
50.96522324,-3.658625841,-16.18564987,5.483152866,17.47643471
50.96755459,-3.539582968,-16.23709679,4.445266247,17.20268443
50.96987303,-3.553341627,-16.46202087,2.695514679,17.05550255
50.97219142,-3.562314749,-16.5661087,1.10309124,16.98066118
50.97450985,-3.665804386,-16.37887192,-0.2781656384,16.78639161
50.97682829,-3.885345697,-15.93500233,-1.804786444,16.50083224
50.97913376,-4.104887009,-15.3044939,-3.208775282,16.16706126
50.98146512,-4.378865242,-14.83849144,-5.112864017,16.29406848
50.9837835,-4.602594376,-14.33360577,-6.850651264,16.53987763
50.98608902,-4.778466702,-13.68574905,-7.8341012,16.47745772
50.98842038,-4.884349346,-13.10369492,-8.397610664,16.31206774
50.99073876,-4.957928658,-12.62991619,-8.583054543,16.05505107
50.99304428,-4.91067028,-12.24048424,-8.623732567,15.75794721
50.99537564,-4.767699242,-12.07837009,-8.44726181,15.49110107
50.99769402,-4.630111694,-11.96411324,-8.127222061,15.18649658
50.99999954,-4.452444553,-11.85763264,-7.472784996,14.70612899
51.0023309,-4.159324169,-11.84925747,-6.559325218,14.16790836
51.00464928,-3.756133318,-11.87617683,-5.505885124,13.61862272
51.0069548,-3.321835995,-11.84506989,-4.476373196,13.09114937
51.0092861,-2.883949518,-11.74098206,-3.476771355,12.5799747
51.01160454,-2.567498684,-11.53520012,-2.511865616,12.08148833
51.01391006,-2.21216464,-11.19841003,-1.485942841,11.51112878
51.01624137,-2.030908108,-10.80359459,-0.380458802,10.99940874
51.0185598,-2.124228239,-10.41954613,0.4941178858,10.64534826
51.02086527,-2.184647083,-10.21376324,0.7920243144,10.4747766
51.02319663,-2.042274237,-10.24845982,0.9894321561,10.4967037
51.02551506,-1.796411633,-10.38664532,1.116850019,10.5998514
51.02782053,-1.653440475,-10.3788681,1.07497561,10.56457955
51.03015188,-1.428515077,-10.38425159,0.4803591371,10.49304919
51.03247032,-1.113260746,-10.36331463,-0.2703889608,10.42644473
51.03477579,-0.7519445419,-10.16411209,-0.8123632669,10.22421289
51.03710715,-0.4109672904,-10.00738239,-0.9152546525,10.05754878
51.03942553,0.05024927482,-9.896116257,-1.112662554,9.958597286
51.04173105,0.5497509837,-9.82732296,-1.213759303,9.917243284
51.04406241,0.9858429432,-9.71605587,-1.229910851,9.843084307
51.04638079,1.26640141,-9.556335449,-1.619342685,9.774947083
51.04868631,1.569093466,-9.420542717,-2.395813704,9.846248153
51.05101767,1.938186288,-9.341579437,-3.403790236,10.12953407
51.05333605,2.313261271,-9.176474571,-4.393820763,10.43381638
51.05564157,2.590828657,-8.811569214,-5.152943611,10.53133292
51.05797293,2.852244616,-8.282156944,-5.56929493,10.38009966
51.06029131,3.078964472,-7.720442295,-5.838487148,10.15742013
51.06259683,3.338585854,-7.085147858,-5.812166214,9.753294406
51.06492814,3.515654564,-6.509674072,-5.943771362,9.490210827
51.06724657,3.672384501,-5.924628735,-6.01316309,9.205746244
51.06955209,3.810570002,-5.379065514,-6.011368752,8.921398086
51.0718834,3.908077478,-4.963312149,-5.799005508,8.575313519
51.07420183,3.912265062,-4.664807796,-5.528616905,8.223858862
51.07650735,3.917648792,-4.448257446,-5.139184952,7.845137879
51.07883866,3.803391695,-4.24367094,-4.641477585,7.349683368
51.08115709,3.657429457,-4.054039955,-4.238286972,6.911953895
51.08346256,3.473181963,-3.865006685,-3.850051641,6.46716068
51.08579392,3.220739365,-3.683152199,-3.276372433,5.888411373
51.08811235,2.950948477,-3.419343472,-2.656033039,5.239705926
51.09041782,2.653042078,-3.070589542,-2.355733871,4.692188666
51.09274918,2.428116798,-2.686541557,-2.307877541,4.294130351
51.09506762,2.190030813,-2.355733871,-2.226521492,3.911919604
51.09737308,1.996810555,-2.105684042,-2.120040894,3.593846278
51.09970444,1.819143414,-1.917847395,-2.008774519,3.320029587
51.10202282,1.650449395,-1.715055585,-1.892722726,3.041019267
51.10432834,1.486541033,-1.521237016,-1.704886079,2.725913212
51.1066597,1.257428288,-1.325025558,-1.660618901,2.4686988
51.10897808,1.009172916,-1.14795661,-1.60678041,2.217651379
51.1112836,0.769890666,-0.9714859724,-1.529013634,1.968349391
51.11361496,0.6370890141,-0.8685946465,-1.421336651,1.783405996
51.11593334,0.4360919297,-0.8303094506,-1.461416483,1.736470009
51.11823886,0.08973085135,-0.7136593461,-1.432104349,1.602586707
51.12057022,-0.3224328458,-0.4342973232,-1.447059512,1.544848969
51.1228886,-0.6592226624,-0.1830509305,-1.39022994,1.549458437
51.12519412,-0.9397810698,-0.03110669367,-1.341177106,1.637959742
51.12752543,-1.19581306,0.08315058798,-1.287338614,1.75901211
51.12984387,-1.408176184,0.1214357466,-1.116850019,1.801405221
51.13214939,-1.700100541,0.1668993831,-1.220937729,2.099734791
51.13448069,-2.181656122,0.1788634956,-1.868794441,2.878195311
51.13679912,-2.279163599,0.4462614357,-1.270588875,2.647287682
51.13910465,-2.087139606,0.6939185858,0.2129612118,2.209757276
51.14143595,-2.040479422,0.5174478889,0.3290131092,2.130623902
51.14375438,-2.056032896,0.1752742529,-0.2554338276,2.079239951
51.14607277,-2.119442701,-0.1154536903,-0.8691928387,2.293657147
51.14839121,-2.193022013,-0.3242274821,-1.158724308,2.501421802
51.15070965,-2.268994093,-0.4701896608,-1.340578914,2.677043955
51.15302803,-2.356332064,-0.5497509837,-1.483550072,2.83821207
51.15534647,-2.524427891,-0.6550351977,-1.603191137,3.061376996
51.15766491,-2.602194548,-0.7674978375,-1.622333765,3.161081498
51.15998329,-2.705085993,-0.879960537,-1.612762451,3.269988303
51.16230173,-2.76371026,-0.9966106415,-1.612762451,3.351466828
51.16462012,-2.857030153,-1.094716311,-1.540977836,3.425731716
51.16693855,-2.868994236,-1.205384374,-1.478764415,3.44540616
51.16925699,-2.865405083,-1.372882009,-1.386640668,3.46671655
51.17157538,-2.804388046,-1.572682738,-1.194018483,3.429810993
51.17389381,-2.719442844,-1.78684032,-1.000199914,3.404198522
51.17621225,-2.638685226,-1.996212244,-0.8075776696,3.405833927
51.17853064,-2.539382935,-2.209173441,-0.6000002623,3.418905277
51.18084907,-2.379063845,-2.397010088,-0.3637090325,3.396746443
51.18316751,-2.229512453,-2.565704107,0.006580262445,3.399059671
51.1854859,-2.099701881,-2.711068153,0.342771858,3.446176297
51.18779142,-1.841875196,-2.886940479,0.8327022791,3.524247814
51.19012272,-1.588834286,-3.043072224,1.360917926,3.692801179
51.19244116,-1.376471281,-3.142972469,1.983051777,3.963009397
51.19474668,-1.115653515,-3.28414917,2.682952404,4.385037302
51.19707798,-0.9014959335,-3.470191002,3.306880951,4.877538532
51.19939642,-0.7166503668,-3.637090445,3.99601388,5.450701017
51.20170194,-0.590429008,-3.777070522,4.776073933,6.117658895
51.20403324,-0.5018945336,-3.946362734,5.627320766,6.89147415
51.20635168,-0.4558327198,-4.150351048,6.47796917,7.706963205
51.20865715,-0.4959124923,-4.332205296,7.351947784,8.547810723
51.2109885,-0.6634100676,-4.560121536,8.220541954,9.424018854
51.21330694,-0.9469595551,-4.790431023,9.216554642,10.43023687
51.21561241,-1.338186026,-5.096114159,10.26461124,11.53790992
51.21794376,-1.804786444,-5.417350292,11.21216869,12.58243478
51.2202622,-2.421536446,-5.785246849,12.05324554,13.5872605
51.22256767,-3.198007345,-6.215955257,12.65563869,14.45788856
51.22489902,-3.903890133,-6.735795975,13.1395874,15.27285378
51.22721746,-4.698307037,-7.374081135,13.24247837,15.86866078
51.22952293,-5.346164227,-8.123632431,13.13719463,16.34505303
51.23185428,-5.837889194,-8.952147484,12.93859005,16.78180584
51.23417272,-6.253043652,-9.702896118,12.3493576,16.90424152
51.23647819,-6.538986206,-10.32921696,11.9407835,17.088984
51.23880954,-6.314060688,-11.02134132,11.71884918,17.28203556
51.24112793,-5.740979671,-11.67517948,11.44726372,17.32941171
51.24343345,-4.926821709,-12.30987644,11.23011494,17.37590607
51.2457648,-3.932005882,-12.90150166,11.06620693,17.44621309
51.24808319,-2.953341246,-13.52303696,10.63609695,17.45626854
51.25038871,-2.017747641,-14.14098358,10.14377308,17.51955634
51.25272001,-1.4267205,-14.77687645,9.327820778,17.53282206
51.25503845,-1.241874933,-15.23031616,8.55493927,17.51261744
51.25734397,-1.397408366,-15.34995747,8.115856171,17.41955986
51.25967527,-1.768295884,-15.33021641,7.888537884,17.33122717
51.26199371,-2.288136721,-15.13579941,7.834699631,17.19623539
51.26429923,-2.915056229,-14.89591885,7.846663475,17.08672229
51.26663053,-3.640081406,-14.495121,7.789834023,16.85349339
51.26894897,-4.417748928,-13.94656658,7.816753387,16.58688815
51.27125444,-5.015356064,-13.3842535,7.859824181,16.31161777
51.27358579,-5.492125988,-12.79502106,7.746165276,15.93358366
51.27590423,-5.879165173,-12.15673542,7.575676441,15.48359366
51.2782097,-6.056832314,-11.51246834,7.298109055,14.91591568
51.28054105,-6.131608009,-10.84845924,6.744170666,14.16931624
51.28285949,-6.167500496,-10.19701385,6.113661766,13.39380506
51.28516496,-6.155536175,-9.578469276,5.594419479,12.68602493
51.28749631,-6.174080849,-9.075378418,5.084748268,12.09695965
51.28981475,-6.190232277,-8.654241562,4.542773724,11.56942807
51.29212022,-6.279963017,-8.30668354,3.876372576,11.11148916
51.29445157,-6.46421051,-7.985447407,3.232703447,10.77050414
51.29676996,-6.587440968,-7.720442295,2.805584431,10.52952571
51.29907548,-6.693921566,-7.545766354,2.450250387,10.38031323
51.30140683,-6.722036839,-7.460821152,2.0769701,10.25492254
51.30372522,-6.637091637,-7.497909546,1.777867198,10.17007594
51.30603074,-6.524031162,-7.591229916,1.636690736,10.14241149
51.30836204,-6.516852379,-7.734799385,1.761715651,10.26645647
51.31068048,-6.548557281,-7.884350777,2.033899307,10.44908302
51.31299892,-6.692724705,-7.925028801,2.343769789,10.63446765
51.3153173,-6.926623344,-8.002197266,2.651845694,10.91080004
51.31763574,-7.275975227,-8.067401886,2.959323406,11.25967956
51.31994126,-7.760521889,-8.217551231,3.223132133,11.75340074
51.32227256,-8.186444283,-8.279764175,3.654438496,12.20357675
51.324591,-8.50469017,-8.199604988,4.347160339,12.5881325
51.32689647,-8.756534576,-8.228319168,4.913063049,12.98153776
51.32922782,-8.985049248,-8.184649467,5.344369411,13.27711871
51.33154626,-8.97667408,-8.078168869,5.792425632,13.39364344
51.33385173,-8.844470978,-8.059624672,6.442076683,13.58979649
51.33618308,-8.718249321,-8.051250458,6.753143787,13.65413696
51.33850152,-8.421539307,-8.048258781,7.208976269,13.6991289
51.34080699,-8.129016876,-8.065607071,7.154539585,13.50268008
51.34313834,-7.545766354,-8.29531765,7.728816986,13.61930603
51.34545673,-7.007380962,-8.556135178,8.107481003,13.71284381
51.34776225,-6.592226505,-8.666205406,8.355138779,13.72475539
51.3500936,-6.208776474,-8.916254997,8.370093346,13.71520948
51.35241199,-5.84446907,-9.382855415,8.5148592,13.9534448
51.35471751,-5.575874805,-9.851848602,8.67816925,14.26393782
51.35704886,-5.499304771,-10.4596262,8.802596092,14.73539382
51.35936725,-5.706283569,-10.75753212,8.845666885,15.05097977
51.36167277,-5.797809124,-11.3449707,9.092725754,15.65249541
51.36400412,-6.086742401,-12.02453232,9.162117958,16.29669341
51.36632251,-6.290730953,-12.60957718,9.174081802,16.81483005
51.36862803,-6.495915413,-12.96550941,9.131608963,17.13731699
51.37095939,-6.449255466,-13.30529022,9.229715347,17.43018329
51.37327777,-6.189035892,-13.40937805,9.214161873,17.40736522
51.37558329,-5.504090309,-13.6289196,9.021539688,17.24617749
51.37791459,-4.106681824,-13.68814182,8.618947029,16.68880793
51.38023303,-2.74935317,-13.69651699,7.691130161,15.9470061
51.38253855,-1.785045743,-13.55593872,6.510870457,15.14401852
51.38486985,-1.347757339,-13.20299721,5.009374142,14.18553539
51.38718829,-1.223330617,-12.66521072,3.16032052,13.1107485
51.38949376,-1.334596872,-11.95155048,1.017547846,12.06880737
51.39182512,-1.667797327,-11.10867882,-1.305284739,11.30876038
51.39414355,-2.095514536,-10.11446095,-3.577269793,10.93116465
51.39644902,-2.486142635,-9.002995491,-5.458626747,10.818107
51.39878038,-2.783450842,-7.951349735,-7.014559746,10.96246367
51.40109881,-2.967698336,-6.972685337,-7.996214867,11.01657962
51.40340428,-3.053839922,-6.116054535,-8.389834404,10.82226329
51.40573564,-3.075973511,-5.328815937,-8.161917686,10.22129114
51.40805407,-3.204587698,-4.768895626,-7.608577728,9.534264673
51.41035954,-3.429512978,-4.339982033,-6.554539204,8.57665363
51.4126909,-3.71724987,-3.979264021,-5.076971531,7.445006963
51.41500928,-4.023531437,-3.762115479,-3.339782238,6.441774871
51.4173148,-4.204787731,-3.753142357,-1.524227977,5.838628978
51.41964616,-4.158725739,-3.873381615,0.285344094,5.690299303
51.42196454,-4.204787731,-4.054637909,1.917249203,6.147859216
51.42427006,-4.140779495,-4.410570145,3.418745279,6.948885027
51.42660142,-4.010370731,-4.798805714,4.481756687,7.694007583
51.4289198,-3.726222992,-5.243272781,5.102096081,8.21023944
51.43122532,-3.226721287,-5.801996708,5.244469166,8.460458196
51.43355668,-2.648854733,-6.437889099,4.881956577,8.502725885
51.43587506,-2.036890268,-7.11685276,3.8668015,8.351686597
51.43818058,-1.445863128,-7.706085205,2.3216362,8.177057173
51.44051194,-0.8937192559,-8.181658745,0.3451646566,8.237561081
51.44283032,-0.2937189937,-8.705088615,-1.944766641,8.924514325
51.44513584,0.3918247223,-9.278767586,-4.200001717,10.19259873
51.44746715,1.051645517,-9.627521515,-6.219544411,11.50990276
51.44978558,1.766501307,-9.87757206,-7.813762188,12.71777639
51.4520911,2.480758905,-10.15633583,-9.08435154,13.85029838
51.45442241,3.031706333,-10.51466084,-10.0019989,14.82529318
51.45674084,3.230310678,-10.88554859,-10.4033947,15.40002261
51.45904631,3.519842148,-11.40658569,-10.32502937,15.78308327
51.46137767,3.795016766,-11.91326618,-9.684351921,15.81501614
51.4636961,3.990031719,-12.50728416,-8.815158844,15.81327087
51.46600157,4.092324734,-13.24726391,-7.78325367,15.90019372
51.46833293,4.127619267,-14.02672672,-6.703492641,16.0848723
51.47065136,4.031308174,-14.72363567,-5.516652584,16.23176974
51.47295683,3.887140274,-15.37388515,-4.487140656,16.48031054
51.47528819,3.713062525,-15.92303848,-3.555136204,16.73227364
51.47760662,3.557528973,-16.42074585,-2.751745939,17.02554
51.47991209,3.482155085,-16.82453346,-2.095514536,17.30842314
51.48224345,3.400799274,-17.11825371,-1.712662816,17.53662623
51.48456189,3.319443226,-17.32642937,-1.592423439,17.71326256
51.48686735,3.331407309,-17.27797318,-1.48295188,17.65858935
51.48919871,3.418147087,-17.16491318,-1.339980721,17.55316274
51.49151709,3.454637766,-16.98724556,-1.713261008,17.41942298
51.49382262,3.52044034,-16.63131332,-2.196611166,17.14115468
51.49615397,3.56530571,-16.22274017,-2.576471806,16.80853683
51.49847235,3.579662561,-15.71426487,-3.056830883,16.40415556
51.50079079,3.584448338,-15.17288876,-3.614358664,16.00401236
51.50310923,3.555136204,-14.47298813,-4.019941807,15.43587739
51.50542762,3.50069952,-13.75872993,-4.287938118,14.83050774
51.50773314,3.436691523,-13.17428303,-4.2071805,14.25036665
51.51006449,3.347558975,-12.56590843,-3.988237143,13.60199402
51.51238288,3.245863914,-12.02572823,-3.763910055,13.01233226
51.5146884,3.155534744,-11.55135155,-3.525225878,12.48272164
51.51701975,3.080759048,-11.15892887,-3.170490026,12.00269873
51.51933814,2.989831924,-10.71386337,-2.793022156,11.46851935
51.52164366,2.870190859,-10.27896786,-2.401795626,10.93909494
51.52397496,2.779263496,-9.997213364,-2.099103689,10.58653942
51.5262934,2.686541557,-9.811769485,-1.843669891,10.33863843
51.52859892,2.525026083,-9.671191216,-1.769492388,10.1508029
51.53093022,2.274377823,-9.55753231,-1.829911113,9.993387465
51.53324866,2.149353027,-9.545567513,-1.697707653,9.930749662
51.53555413,2.035095692,-9.389435768,-1.618744493,9.742866737
51.53788548,1.922633052,-9.170493126,-1.416550994,9.47634311
51.54020392,1.896311998,-8.95932579,-1.159920812,9.230976877
51.54250938,1.937588096,-8.857032776,-0.6837490797,9.0922379
51.54484074,1.91066885,-8.867800713,-0.8793623447,9.113825929
51.54715918,1.835294962,-8.831310272,-1.099501967,9.086762531
51.54947756,1.768295884,-8.842676163,-1.14795661,9.090522341
51.551796,1.710269928,-8.810373306,-1.148554921,9.048031799
51.55411444,1.633101463,-8.769096375,-1.159322619,8.994893026
51.55643282,1.542772412,-8.77089119,-1.169492126,8.982003719
51.55875126,1.496112347,-8.84387207,-1.073779106,9.033572213
51.5610697,1.416550994,-8.979664803,-0.7830511928,9.12437208
51.56338808,1.396810174,-8.98026371,-0.7112665176,9.116036146
51.56570652,1.32801652,-9.096913338,-0.6969096065,9.219714917
51.56802491,1.246062398,-9.300901413,-1.077368379,9.445642446
51.57034334,1.161715388,-9.461818695,-1.406381488,9.636052332
51.57266178,1.014556766,-9.484550476,-1.355534077,9.634495098
51.57498017,0.8691928387,-9.482755661,-1.070189953,9.582455721
51.5772986,0.656829834,-9.487542152,-0.8476574421,9.547952904
51.57961704,0.3086741269,-9.504889488,-0.7507480979,9.539487754
51.58193543,-0.01316052489,-9.55035305,-0.3290131092,9.556027742
51.58425386,-0.1322034448,-9.677172661,0.1339980662,9.679003251
51.5865723,-0.1417747438,-9.777671814,0.4588237405,9.789457871
51.58889069,-0.2315055877,-9.788438797,1.001994491,9.842312832
51.59119621,-0.2656033039,-9.812965393,1.173679471,9.886473508
51.59352756,-0.1381855011,-9.776474953,1.179661512,9.848358189
51.59584595,-0.1004985496,-9.616754532,1.312463164,9.706421959
51.59815147,0.004187439568,-9.507881165,1.636690736,9.647723998
51.60048277,0.2111666054,-9.300901413,1.851446509,9.485737325
51.60280121,0.5437689424,-9.058030128,1.819143414,9.254883967
51.60511965,0.8817551732,-8.767302513,1.639083505,8.96268265
51.60743803,1.171286702,-8.449056625,1.314856052,8.630603504
51.60975647,1.455434322,-8.120641708,1.057627559,8.317552938
51.61206199,1.776072621,-7.729415417,0.890130043,7.980640835
51.61439329,2.067398787,-7.334001541,0.784845829,7.66013703
51.61671173,2.190030813,-7.033103943,0.5168496966,7.384302245
51.6190172,2.196611166,-6.793821812,0.1573280841,7.141839227
51.62134855,2.099701881,-6.600003242,-0.3409772217,6.93433892
51.62366699,2.001596212,-6.521637917,-0.8386843204,6.873248133
51.62597246,1.895713687,-6.553342819,-1.18743825,6.92459689
51.62830381,1.755135417,-6.293123722,-1.276570916,6.65684158
51.63062225,1.630110383,-6.031707764,-1.380060434,6.398697149
51.63292772,1.523031592,-5.895316601,-1.500898004,6.27113051
51.63525907,1.418943882,-5.974279881,-1.377069473,6.292991512
51.63757746,1.330409408,-6.134000778,-1.076171994,6.36821018
51.6398959,1.205384374,-6.213562012,-0.6999006271,6.367979684
51.64221433,0.9990034699,-6.247061729,-0.3966103494,6.338855414
51.64453277,0.7740781307,-6.285346985,-0.1980060786,6.33592851
51.64685116,0.5712863803,-6.43848753,-0.06939185411,6.464155399
51.64916959,0.4480560422,-6.643074036,-0.04965107143,6.658352055
51.65148803,0.3206382394,-6.87158823,-0.0783649385,6.879511229
51.65380642,0.1806581169,-7.009175777,-0.03529413417,7.011592409
51.65612485,0.04187439755,-7.223333359,0.1465603858,7.224941399
51.65844324,-0.08434699476,-7.380063057,0.3607180119,7.389354683
51.66076168,-0.190229401,-7.574480057,0.499501735,7.593315306
51.66308006,-0.3146561682,-7.759923935,0.5521438122,7.785903337
51.6653985,-0.3990031779,-7.838288784,0.643071115,7.874739047
51.66771694,-0.498903513,-7.912466049,0.8045865893,7.968901008
51.67003532,-0.4935196638,-7.993224144,1.024726272,8.073738775
51.67235376,-0.4755735099,-8.030911446,1.287936807,8.147422294
51.6746722,-0.4295116663,-8.034500122,1.50269258,8.185093614
51.67699058,-0.3589234054,-8.032107353,1.627119422,8.203114784
51.67930902,-0.2841476798,-8.140980721,1.595414519,8.300702048
51.68162746,-0.2386840582,-8.202595711,1.496112347,8.341336741
51.68394584,-0.1513460279,-8.224729538,1.363310695,8.338327029
51.68626428,-0.07357929647,-8.242077827,1.268794179,8.339490362
51.68858272,0.001794616925,-8.173283577,1.159322619,8.255095189
51.6909011,0.02991028316,-8.12961483,1.078564763,8.200904454
51.69321954,0.05443671346,-8.143971443,0.9876375198,8.20381997
51.69553798,0.1016949639,-8.272585869,0.912861824,8.323420903
51.69785636,0.1423729509,-8.372486115,0.9044869542,8.422404078
51.7001748,0.2350948304,-8.471788406,0.9056833982,8.523305157
51.70249319,0.3080759048,-8.541778564,0.9595218897,8.601021687
51.70481163,0.3810569942,-8.606983185,1.036690354,8.677562496
51.70713006,0.4719842672,-8.63390255,1.028315544,8.707725033
51.70944845,0.6173482537,-8.702097893,1.020538807,8.783457523
51.71176688,0.7668996453,-8.742177963,1.007976532,8.833449343
51.71408532,0.9068797827,-8.791828156,0.9332008362,8.887605811
51.71640371,1.085743308,-8.859425545,0.8542376757,8.966492152
51.71872215,1.222134113,-8.933603287,0.7226324677,9.045721484
51.72104053,1.31126678,-9.032307625,0.5952146053,9.146380816
51.72335897,1.405783296,-9.135796547,0.4630111754,9.254911376
51.72567741,1.465603828,-9.197412491,0.3212364316,9.318990501
51.72799579,1.475773335,-9.216554642,0.2925225794,9.33854142
51.73031423,1.413560033,-9.203393936,0.2871387303,9.31574262
51.73263267,1.317248821,-9.177073479,0.3056831062,9.276166463
51.73495105,1.216750264,-9.174081802,0.337986201,9.260588145
51.73726949,1.113260746,-9.22492981,0.3708875179,9.299260026
51.73958793,0.9828519225,-9.347561836,0.3750749528,9.406571714
51.74190631,0.8811569214,-9.465408325,0.3559323549,9.512995329
51.74422475,0.7932206988,-9.554540634,0.3559323549,9.594015512
51.74654319,0.7190431952,-9.623334885,0.3032902777,9.654925293
51.74886157,0.6448656917,-9.702297211,0.1698904037,9.725188208
51.75118001,0.6095715761,-9.756135941,0.007776673418,9.775163757
51.7534984,0.5928218365,-9.795618057,-0.1788634956,9.815170045
51.75581683,0.604187727,-9.800403595,-0.3930211067,9.826872291
51.75813527,0.6334998012,-9.766305923,-0.5647061467,9.803109018
51.76045366,0.7052844763,-9.712467194,-0.7692924738,9.768380423
51.76277209,0.7274180651,-9.586843491,-0.8847461939,9.655023614
51.76509053,0.8123632669,-9.378069878,-0.9044869542,9.456544049
51.76740892,0.8697910309,-9.20399189,-0.9050851464,9.289197073
51.76972735,0.9990034699,-9.032905579,-0.8626125455,9.1288275
51.77204579,1.118046403,-8.880961418,-0.8003991842,8.986775969
51.77436418,1.243071318,-8.763114929,-0.7238288522,8.880390632
51.77668262,1.441675663,-8.709874153,-0.6939185858,8.855611751
51.779001,1.632503271,-8.720044136,-0.6586244106,8.895955417
51.78131944,1.855633974,-8.830113411,-0.6562315822,9.046818235
51.78363788,2.066202402,-9.036494255,-0.6813562512,9.294711783
51.78595626,2.21216464,-9.321240425,-0.7734799385,9.611319716
51.7882747,2.309073925,-9.732208252,-0.8315058947,10.03688706
51.79059314,2.368894339,-10.18205833,-0.87517488,10.49056259
51.7928986,2.429313183,-10.67079258,-0.8470591903,10.97656076
51.79522996,2.455634356,-11.15474129,-0.7435696125,11.4460163
51.7975484,2.441277266,-11.55852985,-0.6550351977,11.83167436
51.79985386,2.425125837,-11.88514996,-0.5096712112,12.14074913
51.80218522,2.416152716,-12.16331577,-0.3074777126,12.40478082
51.8045036,2.410170555,-12.37448215,-0.0239282269,12.60703388
51.80680912,2.399402857,-12.42712402,0.3050848842,12.66031683
51.80914048,2.35812664,-12.40319633,0.6000002623,12.63962186
51.81145887,2.279163599,-12.39003563,0.8757730722,12.62832325
51.81376439,2.149353027,-12.43131161,1.166501045,12.66956792
51.81609574,1.994417667,-12.42951679,1.475175142,12.67464916
51.81841413,1.867598057,-12.41276741,1.764706731,12.67591839
51.82071965,1.773081541,-12.53420353,2.026720762,12.82020567
51.823051,1.660618901,-12.68076324,2.222932339,12.98078733
51.82536938,1.515853167,-12.64546967,2.345564365,12.95018865
51.82767491,1.4267205,-12.72443295,2.388036966,13.02495473
51.83000621,1.378265858,-12.87398434,2.383849621,13.16517484
51.83232465,1.322034478,-12.88056469,2.268994093,13.14553369
51.83464308,1.306481123,-12.98704529,2.164308071,13.23081508
51.83696147,1.339382529,-13.10668564,2.060818434,13.33514629
51.83927991,1.325025558,-13.06421375,1.926820397,13.27185031
51.84159834,1.299302697,-12.94038486,1.734796405,13.12064276
51.84391673,1.29451704,-12.88714409,1.581655741,13.04821413
51.84623517,1.345962763,-12.79502106,1.39561379,12.94109414
51.8485536,1.377069473,-12.86201954,1.286740422,12.99936798
51.85087199,1.421336651,-12.86560917,1.144367456,12.99437086
51.85319043,1.47158587,-12.7495575,1.000199914,12.87311855
51.85550881,1.482353687,-12.74477196,0.8763712645,12.86058363
51.85782725,1.549950838,-12.77707481,0.8249256015,12.89715049
51.86014569,1.595414519,-12.66580868,0.7764709592,12.78948647
51.86246407,1.683350682,-12.57248878,0.8338986635,12.71206241
51.86478251,1.671984792,-12.53898907,0.9002995491,12.68196827
51.86710095,1.73898387,-12.59462166,1.101894855,12.76176837
51.86941933,1.790429592,-12.46301651,1.387837172,12.6672219
51.87173777,1.868794441,-12.26859951,1.716252089,12.52822605
51.87405621,1.954337835,-12.15553856,2.035095692,12.47870861
51.87637459,2.06261301,-12.2099762,2.337787628,12.60171187
51.87869303,2.197209358,-12.31705475,2.611167669,12.7810705
51.88101147,2.349751949,-12.23151112,2.903092146,12.78902429
51.88331694,2.647060156,-12.16152096,3.105285645,12.82779476
51.88564829,2.953939438,-12.27876949,3.232703447,13.03626902
51.88796668,3.288934708,-12.51565838,3.314059258,13.35821039
51.8902722,3.635295868,-12.80040455,3.305086374,13.71092005
51.89260355,3.978665829,-13.15753365,3.262613773,14.12781377
51.89492194,4.283750534,-13.47757339,3.138785124,14.48611319
51.89722746,4.536791801,-13.78864002,2.971885681,14.81692202
51.89955881,4.775475979,-14.12961769,2.818745136,15.17882048
51.9018772,5.00040102,-14.50349617,2.704487801,15.57785819
51.90418272,5.249852657,-14.85284805,2.566302299,15.96101362
51.90651407,5.52622366,-15.16451359,2.413759947,16.31955445
51.90883246,5.726024628,-15.27518177,2.234896421,16.46551846
51.91113798,5.989234924,-15.28834248,2.108076811,16.55440541
51.91346933,6.171687603,-15.12503147,2.032104731,16.46164495
51.91578772,6.386443615,-14.92343616,2.003988981,16.35578127
51.91809324,6.528218269,-14.67039585,1.989033818,16.18006192
51.92042454,6.629314899,-14.35155201,1.983051777,15.93258785
51.92274298,6.619743824,-13.97647667,1.98963201,15.5923553
51.92506142,6.576673031,-13.61755371,2.024926186,15.2574809
51.9273798,6.451049805,-13.37587833,1.993221283,14.98342737
51.92969824,6.294320107,-13.21615791,1.9812572,14.77195572
51.93201668,6.129813194,-13.13839054,1.979462504,14.63250449
51.93433506,5.955137253,-13.17607784,1.896910191,14.58324228
51.9366535,5.799603939,-13.35793209,1.648654819,14.65564118
51.93897194,5.666802406,-13.62114334,1.268195987,14.80731294
51.94129032,5.495117188,-13.8418808,0.7339983582,14.91082595
51.94360876,5.34676218,-13.99561977,0.1615155339,14.9830346
51.94591428,5.176273346,-14.08714485,-0.4025924206,15.01344519
51.94824558,4.96391058,-14.08355618,-0.7238288522,14.95028063
51.95056402,4.750350952,-14.05962753,-0.8925228715,14.86726463
51.95286949,4.548755646,-14.02074432,-0.8566305041,14.76503522
51.95520084,4.302295208,-13.93998623,-0.7022934556,14.60568986
51.95751928,4.022933006,-13.78265858,-0.3529413342,14.36211109
51.95982475,3.711267948,-13.65464211,0.1112662554,14.15044667
51.9621561,3.309871912,-13.6103754,0.6317051649,14.02129174
51.96447454,2.935993433,-13.5601263,1.262812138,13.9316825
51.96678001,2.555534601,-13.42911911,1.916650891,13.80382367
51.96911136,2.148156643,-13.31246853,2.43708992,13.70313112
51.9714298,1.657029629,-13.43390465,2.724228621,13.80713449
51.97373527,1.138983607,-13.80658627,2.569891453,14.08983499
51.97606662,0.6687939167,-14.15474224,2.191825628,14.33904156
51.97838506,0.2967100143,-14.57707596,1.833500385,14.69492783
51.98069053,0.02273181453,-15.09332657,1.372283816,15.15559918
51.98302189,-0.2344966233,-15.48455334,0.8524430394,15.5097724
51.98534032,-0.4163511395,-15.81655788,0.123828575,15.82252145
51.98764579,-0.5461617708,-16.07079506,-0.7052844763,16.09553269
51.98997715,-0.6669993401,-16.26760483,-1.692921996,16.36905128
51.99229553,-0.769890666,-16.39262962,-2.727817774,16.63586569
51.99460105,-0.813559711,-16.55414581,-3.9625144,17.04121895
51.99693241,-0.793818891,-16.78624916,-5.076971531,17.55516873
51.99925079,-0.7250252366,-17.09372711,-6.142375946,18.17828238
52.00155631,-0.6538388133,-17.35753632,-7.041478634,18.74283846
52.00388767,-0.5964110494,-17.55494308,-7.616354465,19.14524976
52.00620605,-0.5096712112,-17.6829586,-7.910671711,19.37848076
52.00851157,-0.4588237405,-17.75893211,-8.053044319,19.50491507
52.01084293,-0.4438686073,-17.84926033,-7.880163193,19.51640555
52.01316131,-0.4552344978,-18.01197243,-7.668996811,19.58192792
52.01546683,-0.5210371017,-18.13340759,-7.397411346,19.59116243
52.01779814,-0.6221339107,-18.20698738,-7.021139622,19.52377632
52.02011657,-0.7244270444,-18.27578163,-6.534200668,19.42227503
52.02243501,-0.8458628058,-18.34457397,-5.97727108,19.31234444
52.0247534,-1.045663476,-18.35294914,-5.425127029,19.16653744
52.02707183,-1.219143152,-18.2841568,-4.79820776,18.94253145
52.02937735,-1.415354609,-18.14357758,-4.013361931,18.63597891
52.03170866,-1.634297848,-18.03171349,-3.28115797,18.4005331
52.03402709,-1.849053741,-17.90608978,-2.478366137,18.17111306
52.03633262,-2.109871387,-17.83849335,-1.670190215,18.04031423
52.03866392,-2.349751949,-17.81396675,-0.9517452121,17.99345894
52.04098235,-2.61415863,-17.74696732,-0.2255235314,17.93988671
52.04328788,-2.883351326,-17.68475342,0.3445664644,17.92157762
52.04561918,-3.090928555,-17.57348824,0.9092726111,17.86639596
52.04793762,-3.223132133,-17.41257095,1.417747378,17.76502788
52.05024314,-3.339782238,-17.27019691,1.85443759,17.687645
52.05257444,-3.409772158,-17.16132355,1.924427629,17.60230081
52.05489288,-3.377469063,-17.11227036,1.857428551,17.54101294
52.0571984,-3.257229805,-17.15294838,1.896910191,17.56221661
52.0595297,-3.081357241,-17.10090446,1.802991867,17.46958716
52.06184814,-2.919243574,-16.94357681,1.850848317,17.29255382
52.06416657,-2.78883481,-16.84547234,1.312463164,17.12513058
52.06648496,-2.706282377,-16.7539463,0.2488535494,16.97293755
52.0688034,-2.801397085,-16.52842331,-1.184447169,16.80593698
52.07110887,-2.895315409,-16.11924934,-2.123630047,16.51432273
52.07344022,-2.88993144,-15.7304163,-2.236092806,16.14923564
52.07575866,-2.96889472,-15.3918314,-2.440080881,15.86432489
52.07806413,-3.055036306,-15.06760406,-2.83370018,15.63316333
52.08039548,-3.163311481,-14.70150185,-3.605983734,15.46427544
52.08271392,-3.339184046,-14.28515148,-4.497310162,15.34410316
52.08501938,-3.556332588,-14.00878048,-5.674578667,15.52721079
52.08735074,-3.792623997,-13.77129269,-6.775277138,15.80939212
52.08966918,-3.89192605,-13.56371498,-7.60319376,16.0290364
52.09197465,-3.870390654,-13.3148613,-8.143971443,16.0807253
52.094306,-3.777070522,-13.14018536,-8.383254051,16.03775799
52.09662444,-3.564109325,-13.03490162,-8.50110054,15.96496934
52.09892991,-3.273979664,-12.93141174,-8.127222061,15.62024619
52.10126126,-2.920439959,-12.71426296,-7.119245529,14.86153118
52.1035797,-2.699702263,-12.35653591,-6.113661766,14.04810422
52.10588517,-2.45383954,-11.9653101,-5.236093998,13.28934365
52.10821652,-2.242074728,-11.4831562,-4.632504463,12.5837146
52.11053496,-2.134995937,-10.9806633,-4.157529354,11.9339107
52.11284043,-2.052443504,-10.4350996,-3.717848301,11.26615391
52.11517178,-1.926820397,-9.869794846,-3.433700562,10.62618401
52.11749022,-1.691725612,-9.358927727,-2.863610506,9.932357669
52.11979569,-1.445264935,-8.958129883,-2.134397745,9.321616569
52.12212704,-1.320239902,-8.483752251,-1.397408366,8.69884106
52.12444543,-1.231705427,-8.110472679,-1.112662554,8.278579787
52.12675095,-1.053440213,-8.235497475,-0.9337990284,8.354946772
52.1290823,-0.9583254457,-8.58006382,-0.9876375198,8.689724431
52.13140069,-0.8350951076,-8.913862228,-1.657029629,9.104947603
52.13370621,-0.4785645306,-9.090332985,-2.735594511,9.50508575
52.13603756,-0.2297109663,-9.008976936,-3.631108284,9.715934332
52.13835595,0.1411765367,-8.890532494,-3.909872293,9.71332076
52.14066147,0.4079762697,-8.74935627,-3.779463291,9.539498024
52.14299282,0.5258227587,-8.699705124,-4.379463673,9.754027931
52.14531121,0.6400800347,-8.501698494,-5.019543648,9.893654439
52.14761673,0.7489534616,-8.177471161,-5.2737813,9.759340914
52.14994808,1.003789067,-7.762914658,-5.069194794,9.325619139
52.15226647,1.456630826,-7.328019142,-4.128815651,8.536319851
52.15457199,1.839482427,-6.894320011,-3.189034462,7.81570757
52.15690334,2.04586339,-6.533602238,-2.765504837,7.383869732
52.15922173,2.240280151,-6.183053493,-2.584846735,7.066147345
52.16152725,2.367697954,-5.915655613,-2.733799934,6.933587601
52.1638586,2.459223509,-5.766104221,-3.287140131,7.078207993
52.16617699,2.520240545,-5.592624664,-3.774677753,7.202586701
52.16848251,2.671586514,-5.488536835,-3.93140769,7.260673351
52.17081387,2.811566591,-5.370092392,-3.969094515,7.245447554
52.17313225,2.895315409,-5.277370453,-4.006781578,7.231029583
52.17543777,2.879761934,-5.008177757,-4.109074593,7.089384124
52.17776913,3.008974552,-4.722833633,-4.429712772,7.140128895
52.18008751,3.115455151,-4.393820763,-4.559523582,7.056980728
52.18239303,3.124428272,-3.893720627,-4.320241451,6.602090468
52.18472433,3.114856958,-3.437289715,-3.966103554,6.103054305
52.18704277,3.045464993,-3.087339401,-3.61615324,5.646510945
52.18934829,2.914458036,-2.796611547,-3.137588739,5.114642206
52.19167959,2.758326292,-2.559721947,-2.89292264,4.746529446
52.19399803,2.654238462,-2.392822742,-2.298306227,4.248857965
52.19630355,2.520838737,-2.203191519,-1.747956991,3.776775669
52.19863485,2.236690998,-1.954936147,-1.580459356,3.364879453
52.20095329,2.148754835,-1.769492388,-1.292124271,3.068849261
52.20325881,2.221137524,-1.675574064,-1.167099237,3.017137878
52.20559012,2.175075769,-1.537388563,-1.188036442,2.916495977
52.20790855,2.086541414,-1.251446247,-1.190429211,2.708670244
52.21021407,1.898106575,-0.9535398483,-1.233500123,2.456332503
52.21254538,1.659422517,-0.628115952,-1.137188911,2.107465625
52.21486381,1.347757339,-0.2171486616,-1.10010016,1.753232372
52.21716933,1.030110121,0.07776673883,-1.05224371,1.474581755
52.21950064,0.650847733,0.366700083,-1.16769743,1.386213912
52.22181907,0.2117647976,0.5964110494,-1.264008522,1.41360108
52.22412454,-0.2273181528,0.7974081635,-1.235892892,1.488275701
52.2264559,-0.5958128572,0.9906286001,-1.188036442,1.657639458
52.22877433,-0.7782655358,0.9960124493,-1.070189953,1.656213929
52.2310798,-0.9212366939,0.7770691514,-0.9361918569,1.526095903
52.23341116,-1.210768223,0.9379864931,-1.049850941,1.856869772
52.23572959,-1.445863128,1.01874423,-1.10010016,2.082925911
52.23803506,-1.602592945,1.000798106,-1.182652593,2.229028522
52.24036642,-1.776670814,0.9385846853,-1.327418327,2.408223371
52.24268485,-1.895713687,0.8057830334,-1.475175142,2.533605806
52.24499032,-2.011167526,0.7022934556,-1.656431437,2.698476611
52.24732168,-2.048256159,0.5371887088,-1.826920033,2.796705527
52.24964012,-2.143370867,0.3858426511,-1.960319996,2.93014807
52.25195855,-2.213959217,0.2207378894,-2.131406784,3.081109461
52.25427694,-2.236690998,0.02811566554,-2.239681959,3.165399246
52.25659538,-2.313261271,-0.1130608693,-2.349751949,3.299286997
52.25891376,-2.379662037,-0.3068794906,-2.382653236,3.381420245
52.2612322,-2.378465652,-0.5371887088,-2.323430777,3.368085679
52.26355064,-2.410170555,-0.7974081635,-2.297708035,3.424068354
52.26586902,-2.398804665,-1.094716311,-2.18105793,3.421941162
52.26818746,-2.359921217,-1.338186026,-2.035693884,3.391757594
52.2705059,-2.269592285,-1.575673699,-1.804188251,3.299832116
52.27281136,-2.155933142,-1.822732687,-1.53918314,3.215507254
52.27514272,-2.017747641,-2.063809633,-1.307677627,3.168696344
52.27746116,-1.87956214,-2.324028969,-1.036690354,3.163635784
52.27976662,-1.741376638,-2.589034081,-0.7429714203,3.207412758
52.28209798,-1.619342685,-2.831307411,-0.3631108403,3.28183209
52.28441642,-1.459621787,-3.032902718,0.1220339537,3.368068726
52.28672189,-1.334596872,-3.259024382,0.7441678643,3.599468647
52.28905324,-1.238285661,-3.481556892,1.33399868,3.928631091
52.29137168,-1.164108157,-3.762115479,1.94177556,4.39080323
52.29367715,-1.124626637,-4.038486481,2.669791937,4.970105342
52.2960085,-1.147358418,-4.301696777,3.401397467,5.602725339
52.29832694,-1.189831018,-4.584648132,4.256233215,6.36790527
52.30063241,-1.305284739,-4.825725079,5.206781864,7.218169308
52.30296376,-1.502094388,-5.092525005,6.270391941,8.216319953
52.3052822,-1.792822361,-5.327619553,7.524230957,9.392113373
52.30758767,-2.058425665,-5.642873764,9.02692318,10.84271565
52.30991902,-2.440080881,-6.08135891,10.52423191,12.39743434
52.31223741,-2.94317174,-6.508477688,12.1352005,14.08139314
52.31454293,-3.512065411,-6.917650223,13.67438316,15.72187148
52.31687428,-4.010969162,-7.42612505,15.1286211,17.32369427
52.31919272,-4.542773724,-7.979465485,16.08634758,18.52239836
52.32149819,-5.002195835,-8.633303642,16.50688744,19.28816289
52.32382954,-5.204987526,-9.410971642,16.43450356,19.64054962
52.32614793,-5.251647472,-10.33101177,15.70648766,19.51930736
52.32845345,-5.389832973,-11.14756203,14.70927906,19.22709882
52.3307848,-5.405984402,-11.90369415,13.81795216,19.02257616
52.33310319,-5.224728107,-12.62094307,13.21376514,19.00498821
52.33540871,-4.945366383,-13.24487114,12.4486599,18.8375262
52.33774006,-4.411766529,-13.79462242,11.97009563,18.78931827
52.34005845,-3.68075943,-14.5758791,11.39581776,18.8644879
52.34236397,-2.906083107,-15.5485611,10.70369434,19.09900897
52.34469532,-2.422134638,-16.41775513,9.750752449,19.24802829
52.34701371,-2.163111687,-17.15294838,8.904291153,19.44708439
52.34931923,-2.175075769,-17.72603035,8.088338852,19.60521186
52.35165058,-2.426920414,-18.11725616,7.48774004,19.75325706
52.35396897,-2.896511793,-18.1340065,7.14496851,19.70488638
52.35627449,-3.514458179,-17.9330101,6.856633186,19.51813737
52.35860584,-4.069592953,-17.45145416,6.667600155,19.1199302
52.36092423,-4.614558697,-16.82094574,6.59043169,18.64596893
52.36322975,-5.085346222,-15.99601936,6.60419035,18.03742531
52.36556105,-5.347360611,-15.0466671,6.533003807,17.25330679
52.36787949,-5.450251579,-14.00698566,6.405586243,16.33806674
52.37018501,-5.427519798,-12.97926807,6.231508255,15.38671719
52.37251631,-5.318048477,-11.97846985,5.97727108,14.40462249
52.37483475,-5.140381336,-11.03330517,5.694917679,13.43835669
52.37714027,-5.0291152,-10.10907745,5.464608669,12.54381898
52.37947157,-4.867001057,-9.274580956,5.159523964,11.67588278
52.38179001,-4.836492538,-8.525627136,4.878366947,10.94881008
52.38409553,-4.822135925,-7.905886173,4.635495663,10.35586071
52.38642683,-4.729413986,-7.395616531,4.479962349,9.85558538
52.38874527,-4.581058979,-6.993024349,4.301098824,9.40148616
52.39105079,-4.476971149,-6.712465763,4.080958843,9.041830145
52.39338209,-4.240081787,-6.606583118,3.934398651,8.780929723
52.39570053,-3.923630953,-6.60419035,3.703491211,8.527957386
52.39800605,-3.639483213,-6.588637352,3.400799274,8.259625653
52.40033735,-3.513859987,-6.538387775,3.00538516,8.008125041
52.40265579,-3.446861029,-6.417550564,2.551945448,7.718693656
52.40496131,-3.447459221,-6.241079807,2.073380709,7.4252919
52.40729262,-3.507878065,-5.992824078,1.637288928,7.13441406
52.40961105,-3.628715515,-5.660222054,1.338186026,6.855394359
52.41191652,-3.74536562,-5.370690346,1.296909928,6.674882304
52.41424788,-3.851248026,-5.036293507,1.431506157,6.499659493
52.41656631,-3.951148272,-4.754538536,1.681556106,6.406624719
52.41887178,-4.166502476,-4.442275047,1.939382792,6.391772531
52.42120314,-4.42672205,-4.078566074,2.302493572,6.444536134
52.42352157,-4.705485821,-3.742972851,2.702693224,6.592115991
52.42582704,-5.048257351,-3.361317635,3.120838881,6.82077663
52.4281584,-5.403591633,-2.86480689,3.586841106,7.090229205
52.43047683,-5.801398277,-2.382653236,4.123431683,7.50572763
52.4327823,-6.155536175,-1.790429592,4.669593334,7.931038118
52.43511366,-6.56829834,-1.217946768,4.928616524,8.301638287
52.43743209,-6.952944279,-0.7423732281,4.983651161,8.586695002
52.43973756,-7.194021225,-0.4785645306,4.951348305,8.746360125
52.44206892,-7.212565422,-0.4935196638,4.932205677,8.751646386
52.44438735,-7.173084259,-0.7040880919,4.862215519,8.694251985
52.44669282,-7.130013466,-1.102493048,4.460819721,8.482422739
52.44902418,-7.042077065,-1.648056626,4.126422882,8.326722394
52.45134262,-6.772286415,-2.161915302,3.698705673,8.013623695
52.453661,-6.370292187,-2.791825771,3.133999348,7.628687016
52.45597944,-5.857629776,-3.625724554,2.620140791,7.370403171
52.45829788,-5.422734261,-4.615755081,2.172683001,7.445253068
52.46060334,-4.866403103,-5.812764645,2.119442701,7.871603988
52.4629347,-4.479962349,-7.311867714,2.210968018,8.855611311
52.46525314,-4.324428558,-9.01675415,2.615355253,10.33647043
52.4675586,-4.447659016,-10.77607632,3.524029493,12.1788454
52.46988996,-4.659423828,-12.7190485,4.781457901,14.36477514
52.4722084,-5.095515728,-14.78525066,6.934400082,17.10712782
52.47451387,-5.758327484,-16.92323875,9.834501266,20.40273904
52.47684522,-6.400800705,-19.09352875,13.11207008,24.03038642
52.47916366,-7.022934437,-21.13460541,15.96012688,27.39924823
52.48146913,-7.479365349,-23.26541519,17.32642937,29.95706268
52.48380048,-7.368099213,-25.5882473,16.8909359,31.53333159
52.48611892,-6.408577442,-28.02892685,14.62792301,32.25936665
52.48842438,-4.925625324,-30.25185776,11.72303677,32.81564069
52.49075574,-3.336791277,-31.68336487,9.166903496,33.15119764
52.49307418,-1.659422517,-32.51726151,7.274778843,33.3623798
52.49537965,0.07956135273,-32.59024429,5.420939922,33.03811349
52.497711,1.47457695,-31.28854942,3.238685369,31.49026493
52.50002939,2.751147747,-28.8891468,1.554138303,29.06143429
52.50233491,3.580859184,-26.06980324,-1.049252748,26.33549173
52.50466626,4.046861172,-22.39502525,-3.934398651,23.09531845
52.50698465,4.034897327,-18.82672882,-6.369095802,20.28032287
52.50929017,3.541975737,-15.56650734,-8.414958954,18.04642006
52.51162152,2.656033039,-12.55992603,-10.11386299,16.34308655
52.51393991,1.547558069,-9.927821159,-11.29292679,15.11577866
52.51624543,0.394217521,-7.530810833,-12.10768223,14.26409788
52.51857678,-0.7022934556,-5.444269657,-12.45703506,13.61289869
52.52089517,-1.686341763,-3.56530571,-12.40259838,13.01459181
52.52320069,-2.435893536,-1.934597135,-11.64407349,12.05241431
52.52553204,-3.061616659,-0.5288137794,-10.15693378,10.62150858
52.52785043,-3.466601849,0.6550351977,-8.676374435,9.366209096
52.53015595,-3.803989887,1.164108157,-6.932605267,7.992903268
52.5324873,-4.094717979,1.10309124,-4.883152962,6.467511767
52.53480569,-4.496113777,0.9296116233,-2.986840963,5.477265359
52.53711121,-4.886742115,0.6885347366,-1.056431174,5.046818345
52.53944256,-5.251049519,0.3086741269,1.003190875,5.354922287
52.54176095,-5.671587944,-0.07178468257,2.972483873,6.403727292
52.54406647,-5.99940443,-0.5126622319,4.895116806,7.760015762
52.54639782,-6.218348026,-0.837487936,6.445665836,8.995323579
52.54871621,-6.308078766,-1.241276741,7.11625433,9.590292037
52.55102173,-5.846862316,-1.866401672,6.346961975,8.829109834
52.55335308,-4.96391058,-2.598007202,4.384847641,7.114558208
52.55567147,-3.706482172,-3.366103172,1.788036704,5.31655301
52.55797699,-2.233101845,-4.301696777,-1.087537885,4.967300843
52.56030834,-0.799800992,-5.502893925,-4.095315933,6.906021703
52.56262673,0.5234299302,-6.571887493,-6.857231617,9.512376652
52.56493225,1.780260086,-7.565506935,-9.314062119,12.13086865
52.5672636,2.866601467,-8.392825127,-11.28754234,14.35498275
52.56958199,3.841676712,-8.997013092,-12.51506042,15.88494451
52.57188751,4.661816597,-9.791430473,-13.45543957,17.28159422
52.57421881,5.407779217,-10.48475075,-13.82632732,18.17529646
52.57653725,6.110671043,-10.96331501,-13.68275833,18.56751066
52.57884277,6.743572235,-11.97009563,-13.15932846,19.02437598
52.58117407,7.24307394,-12.99960709,-12.60838032,19.50443946
52.58349251,7.544569969,-13.61516094,-11.85703468,19.5673814
52.58579803,7.724031448,-14.22891998,-10.83051395,19.47877969
52.58812938,7.857431412,-14.97248936,-9.607182503,19.44768936
52.59044777,7.858627796,-15.57069492,-8.377271652,19.3489858
52.59275329,7.830512047,-16.01516151,-6.933801651,19.12798794
52.59508465,7.709076405,-16.45723534,-5.20917511,18.9051834
52.59740303,7.566105366,-16.89332771,-3.170490026,18.77984235
52.59970855,7.384849072,-17.11047745,-1.253240824,18.6781971
52.60203991,7.226922512,-17.21695709,0.3397808075,18.67531717
52.60435829,7.025925636,-17.13799477,1.434497118,18.57773607
52.60666381,6.7704916,-16.82632828,1.939980984,18.24084444
52.60899512,6.594619274,-16.49911118,1.979462504,17.87814154
52.61131355,6.444469452,-16.15693665,1.789233088,17.48654178
52.61361907,6.230311871,-15.75912952,1.532004714,17.01511057
52.61595038,6.002993584,-15.3475647,1.169492126,16.52124045
52.61826881,5.752345562,-14.9024992,0.6867401004,15.98892035
52.62057433,5.499902725,-14.43350601,0.2949153781,15.44868929
52.62290564,5.228915691,-13.89272785,0.2027917206,14.84555728
52.62522407,4.898705959,-13.28136253,0.09990034252,14.15633748
52.62752959,4.532006264,-12.70887947,-0.01256231871,13.49277051
52.6298609,4.244867325,-12.26919842,-0.1333998591,12.98344808
52.63217933,3.929014683,-11.86840057,-0.1914258152,12.50330886
52.63448485,3.668795347,-11.57169056,-0.1764706671,12.14064346
52.63681616,3.349353552,-11.35394382,-0.3337987661,11.84236595
52.63913459,3.016751051,-11.11765194,-0.6717849374,11.53924896
52.64144012,2.654238462,-10.83410263,-1.020538807,11.20108303
52.64377142,2.400001049,-10.55174923,-1.125224829,10.87959318
52.64608985,2.115255117,-10.42851925,-1.147358418,10.70255807
52.64839538,1.862214208,-10.36271667,-1.289133191,10.60733723
52.65072668,1.643270969,-10.3728857,-1.376471281,10.59206167
52.65304512,1.497308731,-10.49611664,-1.224527001,10.67285643
52.65535064,1.190429211,-10.5170536,-0.9451649189,10.62632933
52.65768194,0.9439685345,-10.3776722,-0.328414917,10.42569006
52.66000038,0.7531409264,-10.17966557,0.2219343036,10.20990045
52.6623059,0.4259224236,-9.984052658,1.104885817,10.05402855
52.6646372,0.04965107143,-9.698708534,1.876571178,9.878711042
52.66695564,-0.2745763958,-9.531808853,2.545365095,9.869633006
52.66926116,-0.6083751321,-9.4809618,2.966501951,9.952833304
52.67159246,-0.8219345808,-9.380462646,3.083152056,9.908303715
52.6739109,-0.9373882413,-9.287142754,2.928814888,9.783029893
52.67621642,-1.156929731,-9.076574326,2.810968399,9.572054703
52.67854772,-1.420738459,-8.910871506,2.478366137,9.357586626
52.68086616,-1.367498159,-8.944371223,1.906481385,9.246972427
52.68318459,-1.128814101,-8.953942299,1.298106313,9.117696198
52.68550298,-0.912861824,-8.915657043,0.994217813,9.017246048
52.68782142,-0.7501499057,-8.672785759,0.7076773047,8.733884867
52.69013985,-0.4396811724,-8.420941353,0.4366901219,8.443711924
52.69245824,0.004187439568,-8.17986393,0.2009970993,8.182334097
52.69477668,0.3026920557,-7.923233986,0.2159522474,7.931954025
52.69709506,0.7196413875,-7.760521889,0.08494520187,7.794279915
52.6994135,1.220339537,-7.494320393,-0.156729877,7.594644889
52.70173194,1.636690736,-7.11984396,-0.3936193287,7.316137694
52.70403746,1.703091502,-6.677171707,-0.6017948985,6.917174262
52.70636876,1.757528186,-6.436692715,-1.079761267,6.759127371
52.7086872,1.881955028,-6.141179085,-1.45782721,6.58643268
52.71099272,2.057827473,-5.714658737,-1.573879123,6.274477977
52.71332402,2.080559254,-5.411966801,-1.833500385,6.081104762
52.71564246,1.982453585,-5.189434052,-2.174477577,5.965626599
52.71794793,1.686341763,-5.14397049,-2.325823545,5.891827908
52.72027928,1.542772412,-5.175675392,-2.187638044,5.826965136
52.72259772,1.439880967,-5.13021183,-1.969891191,5.680915589
52.72491616,1.376471281,-5.149952412,-1.731805444,5.604982884
52.72723454,1.245464206,-5.143372059,-1.484746456,5.496355999
52.72955298,1.098903775,-5.261219025,-1.237687469,5.515422504
52.73187136,0.9780662656,-5.642873764,-0.9541380405,5.805946722
52.7341898,0.851246655,-6.010172367,-0.6424728632,6.104061282
52.73650824,0.7375875711,-6.324828625,-0.2739782035,6.373582714
52.73882662,0.560518682,-6.620940208,0.1465603858,6.646240319
52.74114506,0.3702892959,-6.93679285,0.5192425251,6.966047804
52.7434635,0.1357926875,-7.171887875,0.8045865893,7.218155922
52.74576902,-0.09272187948,-7.28255558,1.071386337,7.361527138
52.74810032,-0.2799602449,-7.460222721,1.237687469,7.56737544
52.75041876,-0.3601198196,-7.68275547,1.290927768,7.79877634
52.75273715,-0.4175475538,-7.885547161,1.287338614,8.00084
52.75505558,-0.494716078,-8.055437088,1.3310076,8.179632749
52.75737402,-0.4959124923,-8.203792572,1.417747378,8.34015284
52.75969241,-0.4600201547,-8.332406998,1.47158587,8.473853308
52.76201084,-0.5318048596,-8.459824562,1.31425786,8.577804017
52.76432928,-0.6460621357,-8.597412109,1.176072359,8.701496277
52.76664767,-0.7286145091,-8.700303078,1.099501967,8.799719162
52.7689661,-0.8626125455,-8.7032938,1.146162033,8.820720537
52.77128454,-0.9613165259,-8.758329391,1.193420291,8.891384323
52.77360293,-1.012762189,-8.812167168,1.255633712,8.958604437
52.77592136,-0.9864411354,-8.912666321,1.251446247,9.053993857
52.7782398,-0.9984052777,-8.999405861,1.21854496,9.136244894
52.78055819,-0.9798609018,-8.994022369,1.285543919,9.138117363
52.78287662,-0.9577272534,-8.921041489,1.242473125,9.057922621
52.78519506,-0.902692318,-8.833703041,1.21854496,8.962924448
52.78751345,-0.8051848412,-8.70688343,1.137188911,8.817672047
52.78983189,-0.7477570772,-8.494520187,1.040279627,8.590587614
52.79215032,-0.6622136831,-8.247461319,0.8817551732,8.320855566
52.79446871,-0.5036891699,-8.056633949,0.6580262184,8.099138959
52.79678715,-0.3194418252,-7.88494873,0.3625126183,7.899738917
52.79910558,-0.1333998591,-7.741977692,-0.06580262631,7.743406491
52.80141105,0.03110669367,-7.686344624,-0.5802595019,7.708278821
52.80374241,0.1800599098,-7.597211838,-1.013360381,7.666612586
52.80606084,0.2955136001,-7.514061451,-1.428515077,7.654351906
52.80836631,0.3876372576,-7.464410305,-1.771286964,7.681480414
52.81069767,0.4259224236,-7.444669247,-1.899901152,7.695072091
52.8130161,0.3924229145,-7.435696602,-1.857428551,7.674217909
52.81533449,0.313459754,-7.408178806,-1.634297848,7.592779445
52.81765293,0.2123630047,-7.457829952,-1.367498159,7.585141848
52.81997136,0.05264209956,-7.662416458,-0.9475577474,7.72096256
52.82228975,-0.1986042857,-7.859824181,-0.5335994363,7.880419289
52.82460819,-0.4546363056,-8.243872643,-0.08015955985,8.256788472
52.82692663,-0.7674978375,-8.63031292,0.3690928817,8.6722306
52.82924501,-1.131805062,-9.041280746,0.7549355626,9.143066659
52.83156345,-1.416550994,-9.364311218,1.045663476,9.528397211
52.83388189,-1.725225091,-9.645467758,1.159920812,9.866958304
52.83618735,-1.976471543,-9.887143135,1.116251707,10.14436085
52.83851871,-2.150549412,-10.1024971,0.9206385016,10.36980644
52.84083715,-2.273181438,-10.23529911,0.6580262184,10.50531771
52.84314262,-2.311466694,-10.33759212,0.3583251834,10.5989191
52.84547397,-2.263011932,-10.45244789,0.03050848842,10.69466319
52.84779241,-2.101496458,-10.52602673,-0.2159522474,10.73592853
52.85011079,-1.855633974,-10.56849957,-0.409172684,10.73796921
52.85242923,-1.511665702,-10.54636574,-0.5114658475,10.66642212
52.85474767,-1.089332461,-10.4596262,-0.5748756528,10.53189952
52.85706605,-0.5635097623,-10.30827999,-0.6191428304,10.34222014
52.85938449,0.002991028363,-10.03071213,-0.7304090858,10.05727061
52.86170293,0.6149554253,-9.719047546,-0.7890332937,9.770395536
52.8640084,1.251446247,-9.387042999,-0.8715856671,9.510118588
52.86633975,1.916052699,-9.059824944,-0.9780662656,9.31172914
52.86865819,2.524427891,-8.761918068,-1.051047325,9.178706057
52.87096366,3.058027267,-8.519644737,-1.143769264,9.123819669
52.87329501,3.554538012,-8.372486115,-1.121037364,9.164605228
52.87561345,4.00139761,-8.338388443,-1.036092162,9.306631594
52.87791892,4.355535507,-8.421539307,-0.9086744189,9.524636636
52.88025027,4.626522541,-8.592626572,-0.7908278704,9.790983145
52.88256871,4.751547337,-8.87258625,-0.6113662124,10.08334059
52.88487418,4.869992256,-9.272188187,-0.4402793646,10.48256382
52.88720553,4.894518852,-9.708877563,-0.3128615618,10.87733886
52.88952392,4.857429981,-10.14197922,-0.2099701911,11.24715324
52.89182944,4.737788677,-10.50927734,-0.1465603858,11.52879143
52.89416079,4.584050179,-10.86341476,-0.05862415582,11.79112943
52.89647923,4.415356159,-11.16969585,0.03230310604,12.01076679
52.8987847,4.186841488,-11.38624668,0.08913264424,12.13194954
52.90111605,3.888935089,-11.53220844,0.1782652885,12.17158273
52.90343444,3.659822226,-11.73440266,0.2781656384,12.29503479
52.90573996,3.468994617,-11.93599796,0.3732803464,12.43548589
52.90807131,3.279961586,-12.02213955,0.4007977843,12.46798405
52.9103897,3.155534744,-12.19741344,0.4582255483,12.60730998
52.91269522,3.060420275,-12.57428265,0.4217349887,12.94822832
52.91502657,2.921636343,-12.20818138,0.4749752879,12.56189687
52.91734501,2.81395936,-12.07597733,0.3780659735,12.40526217
52.9196634,2.713460922,-12.2416811,0.3589234054,12.54394086
52.92198183,2.682952404,-12.35294724,0.3595215976,12.64605847
52.92430027,2.629113913,-12.48873997,0.3888336718,12.76840074
52.92661866,2.54656148,-12.63470173,0.4271188378,12.89585568
52.92893709,2.450250387,-12.77109241,0.4085744619,13.01043664
52.93125553,2.354537487,-12.9326086,0.37986058,13.15068463
52.93357392,2.266003132,-13.02114296,0.3894318938,13.22257885
52.93589235,2.226521492,-13.13719463,0.390030086,13.33024397
52.93821079,2.134397745,-13.26879978,0.390030086,13.44502975
52.94052918,2.045265198,-13.34776306,0.432502687,13.51047546
52.94284762,1.932802439,-13.4027977,0.4319044948,13.54833026
52.94516605,1.822134495,-13.39143181,0.4408775866,13.52201882
52.94748444,1.695913076,-13.3220396,0.4582255483,13.43736697
52.94980288,1.58703959,-13.20897961,0.5706881881,13.31621275
52.95212131,1.508674622,-13.12941742,0.6173482537,13.23022372
52.9544397,1.390828133,-13.01216984,0.6532405615,13.10258333
52.95675814,1.258624673,-12.89910889,0.732203722,12.98103495
52.95907657,1.112064362,-12.78724384,0.8159525394,12.86141792
52.96139496,0.9577272534,-12.77169132,0.9481559992,12.84259867
52.9637134,0.8273184299,-12.75972652,1.128814101,12.83624938
52.96603178,0.7244270444,-12.72323608,1.356132269,12.81579595
52.96835022,0.6436693072,-12.63350582,1.569691658,12.74690988
52.97066866,0.5940182209,-12.61555958,1.783251047,12.75481029
52.97298709,0.643071115,-12.54197979,1.969292998,12.71192009
52.97530548,0.7441678643,-12.62572861,2.166102648,12.83178902
52.97762392,0.8632107973,-12.65145111,2.277967215,12.8838458
52.97994235,1.043270707,-12.60419369,2.269592285,12.84932533
52.98226074,1.268794179,-12.63230896,2.195414782,12.88428944
52.98457918,1.533201098,-12.72204018,2.159522533,12.99478932
52.98689756,1.817348838,-12.98046494,2.059023857,13.2678109
52.989216,2.124826431,-13.35733414,1.926222205,13.66175664
52.99153444,2.417947292,-13.73958778,1.698305845,14.05371781
52.99385288,2.670988321,-14.0805645,1.512263894,14.41122539
52.99617126,2.921636343,-14.35274887,1.459023595,14.7195825
52.9984897,3.130410194,-14.62194061,1.38185513,15.016995
53.00080808,3.317648649,-14.8337059,1.313659668,15.25684519
53.0031136,3.498904943,-15.01675701,1.311864972,15.47469924
53.00544496,3.714857101,-15.08794308,1.323829174,15.5948297
53.0077634,3.979862213,-15.01017666,1.344766378,15.58695298
53.01006886,4.241278172,-14.79721546,1.421336651,15.4585324
53.01240022,4.447061062,-14.49930859,1.535593987,15.24350191
53.01471866,4.584648132,-14.12184143,1.615155339,14.93499684
53.01702413,4.702494621,-13.74856091,1.723430514,14.63238174
53.01935548,4.721637249,-13.40219975,1.80658114,14.32398519
53.02167392,4.612165451,-13.05942822,1.850848317,13.9730589
53.0239923,4.46620369,-12.78365517,1.909472466,13.67533912
53.02631074,4.283750534,-12.55753326,1.911267042,13.40504017
53.02862918,4.122235298,-12.38345528,1.860419631,13.18347259
53.03094756,4.003790379,-12.39123249,1.749751568,13.13904907
53.033266,3.912265062,-12.51386452,1.668993831,13.21696499
53.03558444,3.853042603,-12.61615753,1.621735573,13.29072588
53.03790282,3.829114437,-12.78006554,1.575075507,13.43402603
53.04022126,3.820141315,-12.95354557,1.461416483,13.58394496
53.0425397,3.769293785,-13.10907841,1.195214868,13.69248155
53.04485808,3.672384501,-13.31366539,0.8285148144,13.8356977
53.04717652,3.555136204,-13.46082401,0.513858676,13.93186374
53.04949496,3.399004459,-13.46979713,0.3738785386,13.89706628
53.05181334,3.154936552,-13.44168091,0.4193421602,13.81333624
53.05413178,2.871387243,-13.27478218,0.6825526357,13.59891851
53.05645022,2.543570518,-13.1138649,1.165304661,13.40899469
53.0587686,2.236690998,-12.85543919,1.752144337,13.16567936
53.06108704,1.898704767,-12.68913841,2.353939295,13.04455226
53.06340548,1.508674622,-12.57248878,3.036491871,13.02166872
53.06571095,1.19880414,-12.46780205,3.848855257,13.10331661
53.0680423,0.9080761671,-12.67956734,4.587040901,13.51432479
53.07036074,0.6137589812,-12.93081379,5.14397049,13.92993459
53.07266621,0.3457628787,-13.21017551,5.578267574,14.34382648
53.07499756,0.104685992,-13.57029533,5.91266489,14.80282003
53.077316,-0.09092725813,-14.00638771,6.181259155,15.3099683
53.07962147,-0.2428714931,-14.41855145,6.239883423,15.71272597
53.08195282,-0.3302095234,-14.8145628,5.946164131,15.96675224
53.08427126,-0.2967100143,-15.36311817,5.315655708,16.25944748
53.08657673,-0.2069791555,-15.95294857,4.309473515,16.52606942
53.08890808,-0.1310070455,-16.42971802,2.897109985,16.68370592
53.09122652,-0.01375873014,-16.76590919,1.259821177,16.81318084
53.09353199,0.1872383654,-17.14876175,-0.5958128572,17.16013056
53.09586334,0.4031906128,-17.58425522,-2.384447813,17.74976579
53.09818178,0.6622136831,-18.03231239,-4.134199142,18.51200745
53.10048725,0.8656035662,-18.38106537,-5.751747608,19.2794044
53.1028186,1.030110121,-18.58684731,-7.132406235,19.93497525
53.10513704,1.124626637,-18.61017799,-8.19481945,20.3656224
53.10744251,1.173679471,-18.49412537,-8.739186287,20.48862059
53.10977386,1.188634634,-18.32124519,-8.782855988,20.35238161
53.1120923,1.142572761,-18.0963192,-8.556135178,20.04968055
53.11439782,1.057627559,-17.83370781,-8.325227737,19.70962017
53.11672913,0.9308080077,-17.62493324,-8.022536278,19.38725777
53.11904756,0.7722834945,-17.493927,-7.676773071,19.11979991
53.12135308,0.5838487148,-17.38624954,-7.207181931,18.82992363
53.12368439,0.3649054468,-17.37607956,-6.707680225,18.62939266
53.12600282,0.1597209126,-17.36112404,-6.142375946,18.41637643
53.12832126,-0.0580259487,-17.27318764,-5.395814896,18.09644154
53.13063965,-0.261415869,-17.22892189,-4.558327198,17.82364818
53.13295808,-0.4576273263,-17.27976799,-3.734597921,17.68465511
53.1352636,-0.7040880919,-17.38505363,-2.963510752,17.64987892
53.13759491,-0.9116654396,-17.50888062,-2.258226395,17.67743253
53.13991334,-1.185045362,-17.62971878,-1.620539188,17.74365983
53.14221887,-1.491924882,-17.71286964,-1.112064362,17.81034188
53.14455022,-1.866999865,-17.77328873,-0.5808576941,17.88051667
53.1468686,-2.257628202,-17.78166389,-0.03529413417,17.92444425
53.14917412,-2.673979282,-17.74696732,0.6233302951,17.95810554
53.15150543,-3.043072224,-17.56212234,1.448854089,17.8826063
53.15382387,-3.360719442,-17.28933907,2.178664923,17.74717615
53.15612938,-3.607778311,-16.98664856,2.827718258,17.5942685
53.15846069,-3.811168194,-16.65942955,3.310470104,17.40749288
53.16077913,-4.000201225,-16.43749428,3.540779352,17.2838059
53.16308465,-4.12821722,-16.25743484,3.514458179,17.13761306
53.165416,-4.150351048,-15.98943901,3.593421459,16.9056278
53.16773438,-4.200600147,-15.84168243,3.463012457,16.75101189
53.17003991,-4.098905087,-15.65743542,3.209373474,16.50019348
53.17237121,-4.055834293,-15.30210114,2.67338109,16.05462729
53.17468965,-3.994219303,-14.87916946,1.855035782,15.51723653
53.17699517,-4.008575916,-14.58365536,0.9511470199,15.15441735
53.17932652,-4.070191383,-14.2941246,-0.09631111473,14.8626287
53.18164491,-4.176671982,-14.0925293,-1.124028444,14.74135037
53.18395043,-4.336990833,-13.81436348,-2.305484533,14.66156154
53.18628178,-4.490729809,-13.37408352,-3.622135162,14.56546008
53.18860017,-4.602594376,-13.01336575,-4.517649174,14.5237983
53.19090569,-4.699503899,-12.76690483,-5.140381336,14.54313295
53.19323704,-4.760520458,-12.46660614,-5.653641701,14.49284265
53.19555543,-4.727619171,-12.1352005,-6.075974941,14.37118456
53.19786095,-4.613960266,-11.8785696,-6.267400742,14.20103367
53.2001923,-4.421936035,-11.66740322,-6.471987247,14.05590393
53.20251069,-4.0157547,-11.70628643,-6.510870457,13.98409317
53.20481621,-3.36550498,-11.78046417,-5.775675774,13.54490275
53.20714756,-2.643470764,-11.80558872,-4.671986103,12.96870529
53.20946595,-2.097907305,-11.70808125,-3.474976778,12.39176521
53.21177147,-1.762912035,-11.50648594,-2.490928411,11.90427662
53.21410282,-1.332802176,-11.18824005,-1.716252089,11.39730663
53.21642126,-0.8542376757,-11.0368948,-1.22691977,11.13768831
53.21872673,-0.5599204898,-10.86640549,-1.091725349,10.93545351
53.22105808,-0.5078766346,-10.5673027,-1.384846091,10.66975275
53.22337652,-0.5988038778,-10.10429192,-1.670190215,10.25888964
53.22568199,-0.485144794,-10.10728264,-2.198405743,10.3549754
53.22801334,-0.07298108935,-10.32921696,-2.851646423,10.71587311
53.23033178,0.3487538993,-10.33938694,-3.057429075,10.78760512
53.23263725,0.6035895348,-10.27178955,-3.55693078,10.88695263
53.2349686,0.7854440212,-10.15394306,-4.55294323,11.15566108
53.23728704,0.8955138922,-9.903294563,-5.441278458,11.33510916
53.23959251,1.075573802,-9.697511673,-5.393422127,11.14843459
53.24192387,1.309472203,-9.503094673,-4.853840828,10.75096724
53.2442423,1.400997639,-9.357132912,-4.840082169,10.62756445
53.24654777,1.490728498,-9.186644554,-4.725824833,10.43791789
53.24887912,1.604985833,-9.020941734,-4.60678196,10.25552579
53.25119756,1.732403636,-8.983852386,-4.610969067,10.24557767
53.253516,1.740180254,-8.883354187,-4.730610371,10.21375951
53.25583438,1.724626899,-8.749954224,-4.965106964,10.2072682
53.25815282,1.680957913,-8.564510345,-5.505885124,10.31945871
53.26045834,1.601994753,-8.236095428,-6.224329948,10.44710191
53.26278965,1.540977836,-7.795217991,-6.01376152,9.965207667
53.26510808,1.488933921,-7.354340553,-5.682953835,9.412715521
53.26741355,1.380060434,-6.942774773,-5.319842815,8.85479621
53.26974491,1.059422255,-6.547360897,-5.292325497,8.485223591
53.27206334,0.9858429432,-6.212365627,-4.895116806,7.970416648
53.27436887,1.177268744,-6.014359951,-4.450650215,7.57408573
53.27670017,1.245464206,-5.637490273,-4.071387768,7.06460728
53.2790186,1.345364571,-5.250451088,-3.525225878,6.465636855
53.28132413,1.415952802,-4.858027935,-2.873780012,5.819275669
53.28365543,1.485942841,-4.457828522,-2.799602509,5.469738153
53.28597386,1.567897081,-3.942175388,-2.812164783,5.089923263
53.28827938,1.677966833,-3.492324591,-2.519043922,4.621416019
53.29061069,1.848455548,-3.208775282,-2.047059774,4.231250459
53.29292912,1.990828395,-3.080160856,-1.774876237,4.074429316
53.29523465,2.039881229,-2.987439156,-1.641476393,3.97244923
53.297566,2.204387903,-2.906681299,-1.621735573,3.992261073
53.29988439,2.350948334,-2.836691141,-1.701895118,4.05835209
53.30218991,2.419143677,-2.694916487,-1.712064624,4.005745408
53.30452126,2.399402857,-2.489133835,-1.694118381,3.850059533
53.30683965,2.384447813,-2.288136721,-1.724626899,3.727666692
53.30914517,2.317448616,-2.073380709,-1.731805444,3.5593013
53.31147652,2.19242382,-1.84606266,-1.743769526,3.35490711
53.31379491,1.92741859,-1.539781332,-1.824527264,3.068349508
53.31610043,1.590628862,-1.221535921,-1.929811478,2.783239574
53.31843178,1.246062398,-0.9750752449,-2.02073884,2.566481773
53.32075017,0.9182456732,-0.680758059,-1.939980984,2.251695554
53.32305569,0.5976074338,-0.4857429862,-1.881955028,2.033429522
53.32538704,0.3182454109,-0.3577269912,-1.971685886,2.028988412
53.32770543,0.05204389244,-0.1674975902,-2.070389748,2.077805986
53.33001095,-0.1573280841,-0.009571290575,-2.049452543,2.055504673
53.3323423,-0.3068794906,0.07357929647,-2.103889227,2.127425396
53.33466074,-0.575473845,0.1292124242,-2.14995122,2.229384723
53.33696621,-0.97926265,0.4031906128,-2.060220242,2.316468314
53.33929756,-1.261017561,0.5659025311,-1.920838356,2.366438453
53.341616,-1.496710539,0.6227321029,-1.808375716,2.428612863
53.34392147,-1.693520188,0.59940207,-1.667199135,2.450886865
53.34625282,-1.878365755,0.560518682,-1.63489604,2.552513303
53.34857126,-1.971685886,0.4624129832,-1.587637782,2.573317844
53.35087673,-2.064407825,0.3547359705,-1.563709617,2.613963474
53.35320808,-2.123031855,0.209371984,-1.558325768,2.641870565
53.35552652,-2.152343988,0.06939185411,-1.615155339,2.691863043
53.35784491,-2.19242382,-0.04187439755,-1.604985833,2.717435408
53.36016334,-2.190629244,-0.1280160099,-1.537388563,2.6793298
53.36248178,-2.171486616,-0.1609173268,-1.427318692,2.603552796
53.36480022,-2.176272154,-0.2087737769,-1.260419369,2.523569687
53.3671186,-2.071586132,-0.2685943544,-1.005583763,2.318363805
53.36943704,-1.932802439,-0.37986058,-0.745962441,2.106295158
53.37175548,-1.788036704,-0.5006981492,-0.5389832854,1.933462406
53.37407387,-1.72223413,-0.5371887088,-0.299701035,1.828792721
53.3763923,-1.642074585,-0.6071787477,0.007178467698,1.750750269
53.37869782,-1.532004714,-0.709471941,0.380458802,1.730646636
53.38102918,-1.406381488,-0.8691928387,0.7262216806,1.805769368
53.38334756,-1.290927768,-1.028913736,1.11984098,1.994793673
53.38565308,-1.140778184,-1.269392371,1.59003067,2.332579986
53.38798444,-0.9816554785,-1.499701619,2.170290232,2.814766796
53.39030282,-0.8925228715,-1.790429592,2.726621389,3.381818949
53.39260834,-0.8566305041,-2.071586132,3.306880951,3.995090305
53.3949397,-0.8518448472,-2.454437733,3.938585997,4.718300953
53.39725808,-0.8775677085,-2.755933523,4.613361835,5.445034627
53.3995636,-0.927816987,-3.087339401,5.407180786,6.295245269
53.40189496,-1.110867858,-3.306282759,6.3373909,7.233813413
53.40421334,-1.274178028,-3.437289715,7.56730175,8.408480601
53.40651886,-1.458425403,-3.616751432,9.122636795,9.921209486
53.40885022,-1.730010748,-3.898506403,10.61515903,11.439969
53.41116866,-2.18105793,-4.214358807,11.98684502,12.89194661
53.41347412,-2.783450842,-4.519443989,13.15274811,14.18336192
53.41580548,-3.351746321,-4.929214478,14.0045929,15.22038045
53.41812392,-3.760919094,-5.466403484,14.51486206,15.959552
53.42042939,-4.140181541,-6.12861681,14.4879427,16.26657711
53.42276074,-4.522434711,-6.815955162,13.84606838,16.08176825
53.42507918,-4.987240791,-7.525427341,12.75434303,15.62619255
53.42738465,-5.396413326,-8.11824894,11.59621716,15.14924074
53.429716,-5.564508915,-8.608778,10.97288609,15.01595975
53.43203444,-5.689534187,-8.933005333,10.9501543,15.23401664
53.43433991,-5.729613781,-9.21117115,11.53460121,15.83417738
53.43667126,-5.404190063,-9.476176262,12.22552872,16.38495466
53.4389897,-4.978865623,-9.735198975,12.34158134,16.48871833
53.44129517,-4.672584534,-10.12283611,11.78883934,16.22595421
53.44362652,-4.515854359,-10.66899776,10.64925671,15.73617242
53.44594496,-4.461417675,-11.4382906,9.2865448,15.39411101
53.44825043,-4.491328239,-12.50249863,8.144570351,15.58263545
53.45058178,-4.728815556,-13.73898983,7.249654293,16.2381965
53.45290022,-5.183452129,-15.13879108,6.587440968,17.30449508
53.45520569,-5.685346603,-16.58285904,6.098108292,18.56074634
53.45753704,-6.194419384,-17.80559158,5.649454117,19.68060606
53.45985548,-6.848856449,-18.51326942,5.147559643,20.39964092
53.462161,-7.293323517,-18.77468491,4.811966419,20.70836503
53.4644923,-7.457829952,-18.55334854,4.417150497,20.47821252
53.46681074,-7.601399422,-17.84208298,3.952943087,19.79259855
53.46911626,-7.567899704,-16.80000687,3.478565931,18.75136682
53.47144756,-7.344171047,-15.58505249,3.184846878,17.52067234
53.473766,-7.007380962,-14.37667656,3.069393158,16.28537354
53.47607152,-6.704689026,-13.15932846,3.03948307,15.07843619
53.47840288,-6.282355785,-12.00658607,3.092125177,13.89918492
53.48072126,-6.032904148,-10.79043388,3.090330362,12.74282298
53.48302678,-6.107679844,-9.484550476,3.476173162,11.80441573
53.48535814,-6.136393547,-8.341380119,3.887140274,11.06091351
53.48767652,-6.111867428,-7.360920429,4.219144344,10.45654111
53.48998204,-6.293721676,-6.466603279,4.35852623,10.02120958
53.4923134,-6.38823843,-5.767899036,4.390829563,9.662175417
53.49463178,-6.334998131,-5.176273346,4.158127785,9.176929429
53.4969373,-6.220740795,-4.674977303,3.716651678,8.623602989
53.49926866,-5.997610092,-4.262813568,3.128615618,7.995695218
53.50158704,-5.704489231,-3.945166349,2.404188633,7.340685111
53.50389256,-5.318646431,-3.672982693,1.585245013,6.655208747
53.50622392,-5.084748268,-3.471985579,0.851246655,6.215623032
53.5085423,-4.899902344,-3.276372433,0.4079762697,5.908477294
53.51084782,-4.801796913,-3.111267567,0.1692921966,5.724150532
53.51317918,-4.821537495,-2.900699139,0.1531406492,5.6289192
53.51549762,-4.98963356,-2.687737942,0.1453639716,5.669348198
53.51780308,-5.270191669,-2.363510609,0.1310070455,5.777392619
53.52013444,-5.58066082,-1.986641049,0.1680957973,5.92610952
53.52245288,-5.978467464,-1.563111424,0.262014091,6.184985201
53.52475834,-6.292525291,-1.080957651,0.3702892959,6.395424783
53.5270897,-6.663413048,-0.6000002623,0.4061816335,6.702690302
53.52940814,-7.096513748,-0.09092725813,0.4797609448,7.113293591
53.5317136,-7.369893551,0.2009970993,0.837487936,7.420048304
53.53404496,-7.868797302,0.233300209,1.109671474,7.950079921
53.5363634,-8.271987915,-0.02991028316,1.680359721,8.440988537
53.53866887,-8.570492744,-0.6885347366,2.407777786,8.92887562
53.54100022,-8.897112846,-1.649851203,3.480360508,9.695026316
53.54331866,-9.220144272,-2.837887764,4.182653904,10.5147164
53.54562418,-9.432506561,-4.202394962,4.147359848,11.12802306
53.54795548,-9.468997002,-5.571687698,4.204787731,11.76375144
53.55027392,-9.369695663,-7.057032108,4.498506546,12.56301955
53.55257944,-9.274580956,-9.02692318,5.538786411,14.07768976
53.55491074,-9.433703423,-11.09312534,7.074379921,16.18947317
53.55722918,-9.963713646,-13.48893929,9.03828907,19.05040005
53.5595347,-10.57448101,-15.85185146,11.44008541,22.2255798
53.56186605,-11.37248802,-18.38704681,13.99801254,25.75580186
53.56418444,-12.04786205,-20.6560421,16.35075569,28.9684357
53.56648996,-12.3361969,-22.89691925,18.62573051,31.99013133
53.56882131,-11.92822075,-24.74896431,19.57807541,33.73565949
53.5711397,-10.41476059,-26.53999329,18.72623062,34.11026524
53.57344522,-8.197810173,-28.51885605,16.2897377,33.85092017
53.57577657,-5.481358528,-30.86681366,13.46860027,34.1205022
53.57809496,-2.830111027,-33.2057991,10.99023438,35.09159264
53.58040048,-0.4067798555,-34.77429199,9.577870369,36.07149088
53.58273183,2.193022013,-34.73839951,8.870791435,35.92014319
53.58505027,4.75872612,-33.4690094,8.397610664,34.83302929
53.58735574,6.764509678,-31.1096859,6.914659023,32.57888361
53.58968709,8.522636414,-27.86980438,4.35912466,29.46800461
53.59200553,9.636494637,-24.20100784,0.3355933726,26.0511695
53.594311,9.920642853,-20.63929176,-4.457828522,23.32963254
53.59664235,9.515059471,-17.26660728,-8.993423462,21.66918894
53.59896079,8.569893837,-14.49571991,-12.58146191,21.02051759
53.60126626,7.30768013,-11.84506989,-14.9587307,20.43211916
53.60359762,5.837290764,-9.019744873,-16.29452324,19.51771628
53.60591605,4.374079704,-6.3846488,-16.62174225,18.33517464
53.60822152,3.042474031,-4.228715897,-15.81057549,16.64671089
53.61055288,1.849651933,-2.48195529,-14.29711533,14.62835674
53.61287131,0.7639086246,-1.278963685,-12.41216946,12.50125014
53.61517683,-0.1136590764,-0.4695914388,-10.26999474,10.28135333
53.61750814,-1.070189953,0.04965107143,-8.06441021,8.135261753
53.61982657,-1.977069736,0.5168496966,-5.967101574,6.30731635
53.62213209,-2.88454771,0.8267202377,-3.802195072,4.84363182
53.6244634,-3.774677753,0.9684949517,-1.435693622,4.152997808
53.62678183,-4.641477585,1.096511006,0.97926265,4.868737608
53.62908735,-5.437091351,1.053440213,3.42472744,6.511563305
53.63141866,-6.101099491,0.7160521746,5.839683533,8.475732976
53.63373709,-6.607181549,-0.002392822644,8.277970314,10.59148933
53.63604262,-6.930810928,-0.9098708034,9.969695091,12.17615806
53.63837397,-7.021738052,-1.728216171,10.34776115,12.62409194
53.64069235,-6.523432732,-2.458625317,8.801998138,11.22832063
53.64299788,-5.338985443,-3.243471146,5.741578102,8.484726851
53.64532923,-3.766302824,-4.068396568,2.030908108,5.904360706
53.64764762,-2.148156643,-4.804787636,-1.707877159,5.533299701
53.64995314,-0.5659025311,-5.903093338,-5.178068161,7.872683565
53.65228449,0.9439685345,-7.261020184,-8.231309891,11.01671245
53.65460288,2.216351986,-8.292326927,-10.78385353,13.78282986
53.6569084,3.431905985,-8.977870941,-12.64786243,15.88548298
53.65923975,4.616951466,-9.558130264,-13.96870041,17.54419238
53.66155819,5.704489231,-10.22991467,-14.75055504,18.83537166
53.66386366,6.716653347,-11.07637596,-15.11725521,19.90806223
53.66619501,7.637889862,-11.89472103,-14.883955,20.52690592
53.66851345,8.37787056,-12.71127224,-14.12243938,20.76555926
53.67081892,8.967700958,-13.72762394,-12.92662621,20.87977453
53.67315027,9.502496719,-14.92283821,-11.46820068,21.08336242
53.67546871,9.703494072,-16.13540077,-9.902098656,21.2734697
53.67777423,9.771689415,-17.38325882,-7.807780266,21.41553254
53.68010553,9.626325607,-18.45883179,-5.831308842,21.61940745
53.68242397,9.302098274,-19.18385696,-4.049253941,21.70128701
53.68472949,8.871988297,-19.44527245,-2.463410854,21.51509214
53.68706079,8.322834969,-19.3256321,-1.003789067,21.06554605
53.68937923,7.862216949,-19.03191376,0.2105683982,20.59302153
53.69168475,7.465008259,-18.69392776,1.101894855,20.15945078
53.6940161,7.088139057,-18.28894234,1.557727575,19.67622022
53.69633449,6.65503788,-17.74218178,1.45483613,19.00502806
53.69864001,6.242276192,-17.07458496,1.308275819,18.22687711
53.70097136,5.860022545,-16.21974754,1.069591761,17.27900753
53.70328975,5.401198864,-15.47797298,0.5539384484,16.40266578
53.70559527,4.980660439,-14.78704548,0.1166501045,15.60375915
53.70792663,4.608576298,-14.07637787,-0.3553341627,14.81585812
53.71024501,4.226323128,-13.41835117,-0.6113662124,14.0814674
53.71255053,3.787838221,-12.81416321,-0.9008977413,13.39261415
53.71488189,3.351746321,-12.26800156,-1.257428288,12.77963972
53.71720032,2.938984394,-11.77328587,-1.388435364,12.21374808
53.71950579,2.583650351,-11.3258276,-1.34237349,11.6940834
53.72183715,2.216351986,-10.93579769,-1.396211982,11.2451454
53.72415558,1.912463546,-10.64985561,-1.272383451,10.89476485
53.72646105,1.700100541,-10.41476059,-1.223330617,10.62328187
53.72879241,1.400997639,-10.25862885,-1.279561877,10.43261898
53.73111084,1.039681435,-10.1084795,-1.274178028,10.24137808
53.73341637,0.7351947427,-10.0965147,-1.400997639,10.21973164
53.73574767,0.3206382394,-9.938589096,-1.46321106,10.05083821
53.7380661,-0.1417747438,-9.742975235,-1.468594909,9.854056906
53.74037162,-0.6556333899,-9.692128181,-1.272981644,9.79733056
53.74270293,-1.130608678,-9.808777809,-1.118644595,9.936889041
53.74502137,-1.601994753,-9.900901794,-0.9696913958,10.07643513
53.74732689,-2.06560421,-9.969097137,-0.6155536175,10.19943747
53.74965824,-2.490928411,-10.05464077,-0.1800599098,10.36016153
53.75197663,-2.888136864,-10.02473068,0.4791627228,10.44347436
53.75428215,-3.212364435,-10.08814049,1.259821177,10.66194228
53.7566135,-3.399004459,-10.11087227,2.025524378,10.85751898
53.75893188,-3.430709362,-10.21555805,2.751147747,11.12187965
53.76123741,-3.3852458,-10.28076267,3.281756163,11.31034455
53.76356876,-3.323032379,-10.20658493,3.601796389,11.32209598
53.76588715,-3.166302681,-10.164711,3.512065411,11.21077276
53.76819267,-2.897109985,-10.15394306,3.260818958,11.05118755
53.77052402,-2.513660192,-10.07856941,2.810968399,10.76092897
53.77284246,-2.117648125,-9.768099785,2.340180635,10.26531307
53.77516084,-1.60678041,-9.430113792,1.735992789,9.722266217
53.77747928,-1.113858938,-9.126823425,1.137787223,9.264672004
53.77979772,-0.7004988194,-8.748159409,0.6801598072,8.802477435
53.78210319,-0.3463610709,-8.317451477,0.3702892959,8.332891409
53.78443454,0.0568295382,-7.953144073,0.08973085135,7.953853272
53.78675298,0.4169493318,-7.585845947,-0.2584248483,7.60168987
53.7890585,0.7369893789,-7.179066181,-0.3774677813,7.226660813
53.7913898,0.9290133715,-6.608976364,-0.59940207,6.700814672
53.79370824,1.048654556,-6.140581131,-1.054636598,6.318122455
53.79601376,1.208375454,-5.729613781,-1.505085468,6.045984418
53.79834506,1.396211982,-5.240281582,-1.549950838,5.640239938
53.8006635,1.588834286,-4.76949358,-1.484746456,5.24184466
53.80296902,1.847857237,-4.586442947,-1.660020709,5.215908745
53.80530038,2.00099802,-4.539782524,-1.878365755,5.304891738
53.80761876,2.075773716,-4.619942188,-2.024926186,5.454633663
53.80992428,2.072782516,-4.68275404,-1.991426587,5.494578474
53.81225564,2.063211441,-4.893920422,-1.889731646,5.637231966
53.81457402,2.06261301,-4.984249592,-1.545763373,5.61128335
53.81689246,2.133201361,-5.208576679,-1.324427366,5.782207789
53.8192109,2.170888424,-5.399404526,-1.183848977,5.938671921
53.82152928,2.187039852,-5.720042706,-1.013958573,6.207265409
53.82384772,2.172084808,-5.983851433,-0.6406782866,6.398038688
53.82616616,2.112862349,-6.186643124,-0.3056831062,6.544630059
53.82848459,1.977667928,-6.372086525,-0.08195417374,6.672433859
53.83080298,1.823929071,-6.726224422,-0.04187439755,6.969258619
53.83312142,1.708475351,-7.060023308,-0.01615155302,7.263819794
53.83543985,1.560718536,-7.278966427,0.05563312769,7.444614808
53.83775824,1.300499082,-7.396214962,0.1824527234,7.511896074
53.84007668,1.063609719,-7.473383427,0.233300209,7.552294649
53.84239512,0.9044869542,-7.587640762,0.261415869,7.64583071
53.84471355,0.7686942816,-7.69651413,0.2943171859,7.7404033
53.84703194,0.6981059909,-7.770093441,0.337387979,7.808683289
53.84935038,0.6077769399,-7.791030407,0.4079762697,7.825342948
53.85166881,0.4785645306,-7.813164234,0.5551348329,7.847466728
53.85398725,0.3451646566,-7.883154392,0.7686942816,7.928061094
53.85630564,0.2428714931,-8.005187988,0.8500502706,8.053856638
53.85862407,0.1800599098,-8.011170387,0.9589236975,8.070365989
53.86094251,0.1351944804,-7.987840176,1.106680512,8.065271848
53.8632609,-0.009571290575,-7.948358536,1.181456208,8.035691246
53.86557933,-0.05024927482,-7.886145115,1.36211431,8.003072232
53.86789777,-0.09990034252,-7.853842258,1.509272933,7.998169984
53.87021616,-0.1393819153,-7.840083599,1.599003673,8.002696477
53.87253459,-0.1776670814,-7.845467091,1.608574986,8.010644977
53.87485303,-0.1776670814,-7.835896015,1.6181463,8.003201197
53.87717147,-0.109471634,-7.868198872,1.547558069,8.019692856
53.87948985,-0.01734796353,-7.904689789,1.476969719,8.041508637
53.88180829,0.1034895778,-7.931010723,1.320838094,8.040911295
53.88412673,0.2626122832,-7.922635555,1.064806104,7.998183006
53.88644512,0.3936193287,-7.948956966,0.8793623447,8.00713002
53.88876355,0.5922235847,-8.021339417,0.7004988194,8.073618359
53.89108199,0.7399803996,-8.071588516,0.3254238665,8.111967262
53.89340043,0.8165507317,-8.14696312,-0.002392822644,8.187781683
53.89571881,0.8829515576,-8.261219978,-0.1920240223,8.310489288
53.89803725,0.9732806087,-8.417949677,-0.2566302419,8.477913127
53.90035569,1.044467092,-8.569893837,-0.3122633696,8.6389525
53.90267407,1.096511006,-8.727222443,-0.3391826153,8.80237427
53.90499251,1.076770186,-8.900103569,-0.2811566591,8.969410607
53.90731095,0.994217813,-9.07477951,-0.1848455518,9.130950668
53.90962938,0.8069794178,-9.247062683,0.005982056726,9.282209857
53.91194777,0.589232564,-9.433703423,0.3152543902,9.457343211
53.91426621,0.2925225794,-9.690333366,0.6957131624,9.719678339
53.91658465,-0.02751746029,-9.956535339,1.037886858,10.01052258
53.91890303,-0.3296113312,-10.18863869,1.447657704,10.29624761
53.92120855,-0.5946164131,-10.38126087,1.752144337,10.54486395
53.92353991,-0.8177471161,-10.49192905,1.989033818,10.71006728
53.92585834,-1.036690354,-10.54457092,2.111665964,10.80378804
53.92817673,-1.124626637,-10.50808048,2.244467735,10.80380377
53.93049517,-1.151545882,-10.40758228,2.291127682,10.71881957
53.9328136,-1.101894855,-10.28195858,2.291127682,10.59160567
53.93513199,-0.9571290612,-10.16351414,2.243869543,10.45217997
53.93745043,-0.7411768436,-10.00020409,2.177468538,10.26132516
53.93976887,-0.4785645306,-9.811769485,2.106282234,10.0467044
53.9420873,-0.1393819153,-9.597611427,1.99800694,9.804366586
53.94440569,0.285344094,-9.399605751,1.905285001,9.595004975
53.94672412,0.7489534616,-9.226125717,1.793420553,9.428609883
53.94902965,1.219741344,-9.114261627,1.620539188,9.337220208
53.95136095,1.743171334,-9.03051281,1.433898926,9.308322837
53.95367938,2.21156621,-8.995817184,1.304088354,9.355019955
53.95598491,2.707478762,-8.979066849,1.217946768,9.457138946
53.95831626,3.110669374,-9.0418787,1.155135155,9.631519694
53.96063465,3.49471736,-9.143573761,1.140179992,9.854846572
53.96294017,3.814757586,-9.327820778,1.110867858,10.13876932
53.96527152,4.144967079,-9.550951958,1.10608232,10.4701888
53.96758991,4.433301926,-9.818349838,1.091725349,10.82802031
53.96989543,4.688735962,-10.08096218,1.033101201,11.16590084
53.97222678,4.907081127,-10.38305569,0.9320043921,11.52197565
53.97454522,5.0793643,-10.72104168,0.7692924738,11.88833408
53.97685069,5.243272781,-11.07757282,0.5778666735,12.26941152
53.97918204,5.324628353,-11.2008028,0.3744767308,12.40765422
53.98150048,5.410770416,-11.31446171,0.05204389244,12.54177774
53.98380595,5.469394207,-11.48136139,-0.17587246,12.7187603
53.9861373,5.499902725,-11.67338562,-0.3409772217,12.90864545
53.98845574,5.483152866,-11.7649107,-0.3786641955,12.98543321
53.99077418,5.389832973,-11.83968639,-0.3882354796,13.01457645
53.99309256,5.228915691,-11.87677479,-0.3559323549,12.98175745
53.995411,5.067998409,-12.00538921,-0.2039881349,13.03286573
53.99772944,4.814359188,-12.02991581,0.04725824669,12.95759091
54.00004782,4.607379913,-12.07238865,0.3696911037,12.92699458
54.00236626,4.346562386,-12.20758247,0.7070791125,12.97758203
54.0046847,4.048057556,-12.39661598,0.9870393276,13.07811548
54.00700314,3.701098442,-12.5048914,1.176072359,13.09402859
54.00932152,3.390031576,-12.71366501,1.427318692,13.23506066
54.01163996,3.103491068,-12.94158173,1.607976794,13.40528939
54.0139584,2.860021353,-13.16291714,1.755135417,13.58390997
54.01627678,2.53818655,-13.27597809,1.81495595,13.63774359
54.0185823,2.253440619,-13.34955788,1.913061738,13.672911
54.02091366,2.077568293,-13.42552948,2.050648928,13.73922461
54.02323209,1.905883193,-13.4530468,2.134995937,13.75409272
54.02553756,1.733001828,-13.4285202,2.152343988,13.70988821
54.02786892,1.563709617,-13.33639717,2.179263115,13.60345048
54.03018735,1.422533035,-13.21974659,2.167299032,13.47154354
54.03249282,1.332802176,-13.06361485,2.136790514,13.30414477
54.03482418,1.246062398,-12.81057453,2.057827473,13.03449827
54.03714262,1.13120687,-12.5928278,1.959721804,12.79450861
54.03946105,1.034895778,-12.34098244,1.8855443,12.52701617
54.04177944,0.9744769931,-12.22732353,1.87956214,12.40926267
54.04409788,0.9559326172,-12.07358456,1.887937069,12.25763263
54.04641631,0.926620543,-11.8588295,1.895115495,12.04499587
54.0487347,0.9182456732,-11.72363472,1.899302959,11.91193258
54.05105314,0.9260223508,-11.66560841,1.946561217,11.86309561
54.05337157,0.9912267923,-11.62552929,2.003988981,11.83855708
54.05569001,1.067797065,-11.67637634,2.105085611,11.91257069
54.0580084,1.174277663,-11.7649107,2.19780755,12.02590578
54.06032683,1.311864972,-11.94018459,2.281556368,12.22679424
54.06264527,1.458425403,-12.25304699,2.304288149,12.55284466
54.06496371,1.640279889,-12.64726448,2.260619164,12.9519966
54.06728209,1.828116536,-13.04686546,2.160120726,13.35023708
54.06960053,2.027917147,-13.35434341,2.078166485,13.66637157
54.07191897,2.196611166,-13.5714922,1.976471543,13.8894543
54.07423741,2.381456852,-13.70190048,1.931007862,14.04073377
54.07655579,2.548954248,-13.88016605,1.857428551,14.23398111
54.07887423,2.739183664,-14.01057434,1.727019787,14.37991369
54.08119267,2.924627542,-14.13201046,1.548156261,14.51426725
54.08351105,3.171686411,-14.17926884,1.341177106,14.59143637
54.08582949,3.445066452,-14.22592926,1.229312658,14.68866079
54.08813501,3.732205153,-14.23370552,1.160519004,14.76057358
54.09046631,3.988237143,-14.17029572,1.104885817,14.76225216
54.09278475,4.225126743,-14.05902958,1.019940615,14.71557976
54.09509027,4.427320004,-13.9483614,1.006181955,14.66868604
54.09742162,4.591228485,-13.80539036,0.9355936646,14.5788723
54.09974001,4.721637249,-13.69173145,0.9355936646,14.51319069
54.10205845,4.756931305,-13.57567883,0.9302098155,14.41501791
54.10437688,4.782654285,-13.47936821,0.9726824164,14.33573369
54.10669532,4.763511658,-13.47936821,1.001396298,14.33133648
54.10901371,4.701896667,-13.46680546,0.9146564603,14.29332984
54.11133215,4.66899538,-13.44885921,0.7615157962,14.25662086
54.11365058,4.618745804,-13.45962715,0.55154562,14.24073658
54.11596897,4.524229527,-13.41476154,0.2500499785,14.15934338
54.11828741,4.430311203,-13.37408352,-0.0466600433,14.08885888
54.12060584,4.360321045,-13.38066387,-0.2578266263,14.07554759
54.12292428,4.258625984,-13.45065403,-0.3864408433,14.11401168
54.12524267,4.114458561,-13.57448292,-0.4396811724,14.19114778
54.1275611,3.957130432,-13.64985657,-0.2973082066,14.21498708
54.12987954,3.746562004,-13.67797279,-0.06939185411,14.18197736
54.13219798,3.516851187,-13.56311703,0.2805584669,14.01446035
54.13451636,3.240479946,-13.37169075,0.7914260626,13.78147957
54.1368348,2.92941308,-13.16650677,1.37886405,13.55874727
54.13915324,2.551945448,-13.30887985,1.987239242,13.6962706
54.14147168,2.164308071,-13.42253876,2.562114954,13.83521627
54.14377715,1.70548439,-13.56670666,3.126222849,14.02631369
54.1461085,1.224527001,-13.74018574,3.629313707,14.26408386
54.14842694,0.7064808607,-13.91486168,3.921238184,14.47406645
54.15073241,0.1435693651,-14.09193039,3.903291941,14.62322817
54.15306376,-0.3541377485,-14.30608845,3.61017108,14.758825
54.1553822,-0.7914260626,-14.59083462,3.131008387,14.94396278
54.15768772,-1.073779106,-14.92463303,2.539382935,15.17715844
54.16001902,-1.271785259,-15.34397507,1.825125456,15.50438943
54.16233746,-1.360319614,-15.72204113,0.9918249846,15.8119184
54.16464298,-1.389631748,-15.97388554,0.1447657645,16.0348699
54.16697433,-1.402194023,-16.16770363,-0.7028916478,16.24360937
54.16929272,-1.386042476,-16.33759499,-1.555334687,16.46988736
54.17159824,-1.305882931,-16.59661865,-2.392822742,16.81899764
54.17392959,-1.16769743,-16.92084503,-3.142374277,17.2497255
54.17624803,-1.003190875,-17.31207275,-3.972683907,17.79034773
54.1785535,-0.8003991842,-17.71765518,-4.746163845,18.35979344
54.18088485,-0.6514459848,-18.12323952,-5.394618511,18.92030923
54.18320329,-0.5587241054,-18.41934967,-5.92642355,19.35735289
54.18550876,-0.5204389095,-18.66940117,-6.324828625,19.71854086
54.18784012,-0.5611169338,-18.89612007,-6.471388817,19.98141835
54.19015855,-0.6813562512,-19.03370857,-6.447460651,20.10761192
54.19246407,-0.8398807645,-18.99901199,-6.396613121,20.06450886
54.19479538,-1.054636598,-18.86441612,-6.218348026,19.89085987
54.19711381,-1.25503552,-18.62812424,-5.825924873,19.5582087
54.19943225,-1.473380566,-18.41157341,-5.428716183,19.2516972
54.20175064,-1.743171334,-18.1094799,-4.942375183,18.85255901
54.20406907,-2.027917147,-17.77927017,-4.402793884,18.42822536
54.20638751,-2.291127682,-17.37069511,-3.740580082,17.91597762
54.20870595,-2.547757864,-16.91007805,-2.978466034,17.35837175
54.21102438,-2.827718258,-16.46860123,-2.254039049,16.86094626
54.21332985,-3.127419233,-16.11865234,-1.663011789,16.50325158
54.21566121,-3.404388428,-15.88415527,-1.165902853,16.28666874
54.21797965,-3.675375462,-15.84228039,-0.8207381964,16.28372942
54.22028517,-3.924229145,-15.90987778,-0.5838487148,16.39709317
54.22261647,-4.148556232,-15.85185146,-0.1525424421,16.38642679
54.22493491,-4.304687977,-15.80220032,0.1561316848,16.37877439
54.22724043,-4.41296339,-15.78485298,0.5126622319,16.39812953
54.22957173,-4.484747887,-15.65085506,1.312463164,16.33354791
54.23189017,-4.500301361,-15.41396523,2.517847538,16.25369473
54.23419569,-4.369294167,-15.13400459,3.747160196,16.19166564
54.23652704,-4.121038914,-14.96890068,4.401597023,16.13768898
54.23884543,-3.914657831,-15.09332657,4.62891531,16.26529772
54.24115095,-3.724428415,-15.36790371,4.451248169,16.42733824
54.2434823,-3.474976778,-15.54975796,4.253840446,16.49137941
54.24580074,-3.272184849,-15.89133358,3.838685751,16.67264781
54.24811912,-3.091526747,-16.20539093,3.117249727,16.78956458
54.25043756,-2.980260611,-16.25205231,2.489133835,16.70948667
54.252756,-2.896511793,-16.12164307,1.711466432,16.46894875
54.25507444,-2.847458839,-15.91107464,0.8327022791,16.18529305
54.25739282,-2.886940479,-15.66461372,-0.4289134443,15.93419327
54.25971126,-2.931207657,-15.43729496,-1.59003067,15.793361
54.26201678,-3.060420275,-15.14357662,-2.490330219,15.64914789
54.26434808,-3.234498024,-14.75593948,-3.510869026,15.50889838
54.26666652,-3.366701365,-14.30967808,-4.497310162,15.37294258
54.26897204,-3.460619688,-13.83709526,-5.088337421,15.14372053
54.2713034,-3.44147706,-13.34297752,-5.496912003,14.8355942
54.27362178,-3.253042459,-12.99841118,-5.751149178,14.5813818
54.2759273,-2.978466034,-12.71785259,-5.817550182,14.29891341
54.27825866,-2.63689065,-12.46959686,-5.72123909,13.97056244
54.28057709,-2.253440619,-12.17169094,-5.161318302,13.41146008
54.28288256,-1.796411633,-11.87617683,-4.272384644,12.74848781
54.28521392,-1.269990563,-11.51545906,-3.163311481,12.00938021
54.28753235,-0.7106683254,-11.24207878,-2.469393015,11.53201139
54.28983788,-0.2584248483,-10.9806633,-1.937588096,11.15329537
54.29216918,0.1256231815,-10.7114706,-1.344766378,10.79628549
54.29448762,0.4432703853,-10.60199928,-0.9032905698,10.64963902
54.29679314,0.5694918036,-10.4596262,-1.046261668,10.52723917
54.29912449,0.7776673436,-10.36510944,-1.698904037,10.53216669
54.30144288,0.932602644,-10.24726295,-2.404786825,10.56688911
54.3037484,1.17906332,-10.18983555,-3.00837636,10.6898675
54.30607975,1.470389485,-10.1210413,-3.239881754,10.72820376
54.30839819,1.823330879,-9.93918705,-2.694916487,10.4582288
54.31070366,2.155933142,-9.781859398,-2.354537487,10.28963886
54.31303501,2.369492531,-9.546764374,-2.41136694,10.12767966
54.31535345,2.525026083,-9.287740707,-2.421536446,9.92480342
54.31765897,2.658426046,-9.097511292,-2.426322222,9.783607733
54.31999027,2.778067112,-9.008976936,-2.773879766,9.827193459
54.32230871,2.834298372,-8.975478172,-3.412763357,10.01196331
54.32461423,2.820539713,-8.933603287,-4.214957237,10.27280762
54.32694558,2.797807932,-8.786444664,-4.812564373,10.40144773
54.32926397,2.779263496,-8.441280365,-4.819743156,10.10986864
54.33156949,2.794816732,-8.003393173,-4.661218643,9.674309386
54.33390084,2.956332445,-7.529614449,-4.829912663,9.421414522
54.33621923,3.151347399,-7.024729252,-4.660022259,8.99964549
54.33852475,3.151945591,-6.496513367,-4.611567497,8.567730255
54.3408561,3.100499868,-6.118447304,-4.810171604,8.377723301
54.34317454,3.00837636,-5.924628735,-5.265406132,8.47797474
54.34548001,2.920439959,-5.740381718,-5.658427238,8.573141235
54.34781137,2.796013355,-5.484349728,-5.814558983,8.467873333
54.3501298,2.610569477,-5.238486767,-5.550152302,8.066040365
54.35243532,2.349751949,-4.892724037,-5.050052166,7.41371092
54.35476662,2.134397745,-4.560121536,-4.219144344,6.568983267
54.35708506,1.837089539,-4.196412563,-3.389433384,5.698511651
54.35939058,1.575673699,-3.798007727,-3.080160856,5.137606563
54.36172194,1.420738459,-3.485146284,-3.178864956,4.926451542
54.36404032,1.312463164,-3.160918713,-3.215953588,4.696416096
54.36634584,1.243071318,-2.894119024,-3.175275564,4.472530172
54.3686772,1.140778184,-2.593221426,-3.283550978,4.33680519
54.37099564,0.8171489239,-2.208575249,-3.981058598,4.625404258
54.3733011,1.008574724,-1.855633974,-2.259422779,3.092829079
54.37563246,1.151545882,-1.754537225,-1.362712502,2.502287784
54.3779509,1.191625714,-1.70548439,-1.19581306,2.399712008
54.38025642,1.140778184,-1.68275249,-1.415952802,2.477489282
54.38258772,1.021735311,-1.50269258,-1.465603828,2.33452835
54.38490616,0.9248259664,-1.27477622,-1.411167145,2.114651317
54.38721168,0.7399803996,-0.9332008362,-1.486541033,1.904793699
54.38954303,0.5509474277,-0.6257231236,-1.524227977,1.737338027
54.39186142,0.3158525825,-0.3768695593,-1.613958836,1.687203794
54.39416694,0.01794617064,-0.2877369225,-1.559522152,1.585945757
54.39649829,-0.3481557071,-0.05084748194,-1.316650629,1.362852428
54.39881673,-0.6711867452,0.1770688742,-1.063609719,1.270082937
54.4011222,-0.8853443861,0.2590230405,-0.793818891,1.216994679
54.40345355,-1.140778184,0.3014956415,-0.5533402562,1.303249756
54.40577199,-1.385444283,0.2961117923,-0.3553341627,1.460616453
54.40807751,-1.614557028,0.2572284341,-0.285344094,1.659633127
54.41040881,-1.768894196,0.1531406492,-0.2673979402,1.795533456
54.41272725,-1.914856315,0.08673982322,-0.3439682424,1.947437458
54.41503277,-2.102692842,0.01016949583,-0.4217349887,2.144593437
