Time (s),Acceleration x (m/s^2),Acceleration y (m/s^2),Acceleration z (m/s^2),Absolute acceleration (m/s^2)
10.00146446,-2.036292076,-7.679764271,3.260220766,8.58803261
10.00378285,-2.124826431,-7.561917782,3.239283562,8.496496095
10.00610123,-2.206780672,-7.347760201,3.223132133,8.321540822
10.00841962,-2.268395901,-7.142575741,3.120838881,8.117982723
10.010738,-2.238485575,-6.945765972,2.933600664,7.865144338
10.01305634,-2.194218397,-6.892525673,2.575873613,7.678322043
10.01537472,-2.125424623,-6.881757736,2.228316069,7.539324364
10.01769311,-1.944766641,-6.772286415,1.923829436,7.303909931
10.0200115,-1.773081541,-6.64427042,1.547558069,7.048764682
10.02232988,-1.595414519,-6.554539204,1.042672515,6.826016235
10.02464827,-1.434497118,-6.532405853,0.6191428304,6.71665438
10.02695373,-1.278365493,-6.548557281,0.2536391914,6.676986868
10.02928504,-1.110867858,-6.641279221,-0.1591227055,6.735424049
10.03160342,-0.8949156404,-6.771687984,-0.5330012441,6.85132998
10.03390884,-0.717248559,-6.906882763,-0.8069794178,6.990757525
10.03624014,-0.5700899959,-7.019345284,-1.014556766,7.115162419
10.03855853,-0.4313062727,-7.17009306,-1.183848977,7.279955905
10.040864,-0.3493520916,-7.33639431,-1.273579836,7.454309757
10.0431953,-0.3008974493,-7.5421772,-1.295115232,7.658478939
10.04551368,-0.2895315289,-7.810173035,-1.245464206,7.914152666
10.04783207,-0.3439682424,-8.118846893,-1.138385415,8.205480509
10.05015045,-0.457029134,-8.438288689,-0.9320043921,8.501895307
10.05246884,-0.6329016089,-8.739784241,-0.6311069727,8.785367894
10.05477431,-0.8243274093,-9.026325226,-0.1872383654,9.065821582
10.05710561,-1.05224371,-9.232108116,0.35174492,9.298535454
10.05942394,-1.304088354,-9.457631111,0.9948160052,9.598806778
10.06172941,-1.51944232,-9.611370087,1.633101463,9.866821185
10.06406071,-1.68574357,-9.671789169,2.252842426,10.07276209
10.0663791,-1.74735868,-9.662218094,2.785843849,10.20650022
10.06868457,-1.698904037,-9.617352486,3.12921381,10.25532656
10.07101587,-1.549352646,-9.51745224,3.235096216,10.17095071
10.07333426,-1.284945726,-9.372088432,3.131606579,9.964641833
10.07565264,-0.9547362328,-9.144171715,2.79421854,9.609113116
10.07797103,-0.513858676,-8.88993454,2.29052949,9.194645844
10.08028941,0.01016949583,-8.667402267,1.668395638,8.826523069
10.08259483,0.5497509837,-8.459226608,0.9367900491,8.528676131
10.08492613,1.230509043,-8.357531548,0.1890329868,8.449746715
10.08724452,1.92741859,-8.347361565,-0.5300102234,8.583373366
10.08954998,2.68713975,-8.417949677,-1.109671474,8.905838959
10.09188129,3.40498662,-8.517251968,-1.627119422,9.315848463
10.09419967,4.04087925,-8.833703041,-1.996212244,9.917049856
10.09650514,4.68275404,-9.232108116,-2.2259233,10.58842482
10.09883644,5.258227825,-9.670592308,-2.308475733,11.24714967
10.10115483,5.666203976,-10.12642574,-2.354537487,11.8403637
10.1034603,5.927021503,-10.63430214,-2.304886341,12.39074118
10.1057916,5.983851433,-11.18046379,-2.271985054,12.88297965
10.10810993,5.842076302,-11.63928795,-2.136192322,13.19720414
10.1104154,5.543571949,-11.94437218,-1.945963025,13.31112275
10.1127467,5.193023205,-12.13460159,-1.689931035,13.30683707
10.11506509,4.754538536,-12.2165556,-1.45483613,13.18963288
10.11737056,4.378267288,-12.30628681,-1.214357495,13.11825383
10.11970186,4.052843571,-12.35175037,-0.9493523836,13.03428357
10.12202024,3.697509289,-12.3738842,-0.6089733839,12.9288605
10.12433863,3.404388428,-12.37089348,-0.2925225794,12.83411218
10.12665702,3.102892876,-12.4301157,0.05383851007,12.8116595
10.1289754,2.852244616,-12.84287739,0.4839483798,13.1646878
10.13128087,2.465205431,-12.98166084,1.015154958,13.25259581
10.13361212,2.179861546,-12.55035496,1.301097274,12.80453279
10.13593051,1.884945989,-12.44148159,1.50269258,12.67286749
10.13823597,1.567897081,-12.44387436,1.695314884,12.65631869
10.14056728,1.229312658,-12.44207954,1.740180254,12.62318424
10.14288566,0.9337990284,-12.44925785,1.742573142,12.60525933
10.14519113,0.7046862841,-12.44507027,1.668993831,12.57624336
10.14752243,0.5108676553,-12.45942783,1.548156261,12.56563232
10.14984082,0.3882354796,-12.44806194,1.341775298,12.52618593
10.15214629,0.2697907388,-12.40319633,1.078564763,12.45292609
10.15447759,0.2039881349,-12.36730385,0.8338986635,12.39706427
10.15679597,0.185443759,-12.36311626,0.7286145091,12.38595625
10.15911431,0.2129612118,-12.29970646,0.6999006271,12.32144441
10.16143269,0.2249253243,-12.23210907,0.7088736892,12.25469647
10.16375108,0.2338984162,-12.20818138,0.7375875711,12.23267904
10.16606946,0.2799602449,-12.17827129,0.8327022791,12.20991657
10.16838785,0.214157626,-12.05922794,0.926620543,12.09667176
10.17070623,0.1878365725,-11.98325539,1.026520967,12.02860913
10.17302462,0.1310070455,-11.84985638,1.125224829,11.9038813
10.175343,0.09272187948,-11.70568848,1.257428288,11.77339653
10.17766139,0.06460621208,-11.58604717,1.442273855,11.6756506
10.17997978,0.03110669367,-11.45683479,1.612762451,11.56983292
10.18229816,0.05563312769,-11.38385391,1.855633974,11.5342361
10.1846165,0.1381855011,-11.35274696,2.18105793,11.56118387
10.18693488,0.2153540403,-11.3072834,2.505285263,11.58350075
10.18925327,0.3547359705,-11.25045395,2.821137905,11.60419626
10.19157165,0.5234299302,-11.24566841,3.141776085,11.68801925
10.19387712,0.7154539824,-11.36590767,3.454637766,11.90085096
10.19620842,0.9487541914,-11.59023476,3.677768469,12.19670682
10.19852681,1.20717907,-11.84387398,3.748954773,12.48155816
10.20084519,1.478764415,-12.16391373,3.643670797,12.78373491
10.20316358,1.811964989,-12.44447231,3.439084291,13.03746176
10.20548196,2.145763636,-12.69153118,3.128615618,13.24641465
10.20778738,2.542972326,-13.01456261,2.748156786,13.54244859
10.21011868,2.938984394,-13.42373466,2.297109842,13.9323722
10.21243707,3.326621771,-13.85264874,1.77846539,14.35706197
10.21474254,3.68674159,-14.36411476,1.323230863,14.88861298
10.21707384,3.989433527,-14.914464,1.009771109,15.47179543
10.21939222,4.196412563,-15.46241951,0.8201399446,16.04272187
10.22169769,4.34775877,-15.9631176,0.7962117195,16.56375812
10.224029,4.485944271,-16.35853195,0.9385846853,16.98841384
10.22634738,4.61814785,-16.68156242,0.9708877802,17.33621751
10.2286528,4.667798996,-16.90170288,0.8584251404,17.55542086
10.23098415,4.656432629,-16.96451378,0.6634100676,17.6044655
10.23330248,4.601995945,-16.85564041,0.5425725579,17.48100012
10.23560795,4.540380955,-16.68874168,0.5599204898,17.30441184
10.23793926,4.353142738,-16.47278976,0.614357233,17.04934278
10.24025764,4.10309267,-16.22333717,0.6628118753,16.74727912
10.24257603,3.636492252,-15.89372635,0.6179464459,16.31614142
10.24489441,2.983849764,-15.51087475,0.4755735099,15.80242909
10.2472128,2.221735716,-15.1154604,0.261415869,15.28010441
10.24951827,1.40697968,-14.74636745,0.0747757107,14.81352545
10.25184957,0.626919508,-14.41436386,-0.1304088384,14.42857997
10.25416795,-0.07776673883,-14.20080376,-0.2955136001,14.20409108
10.25647337,-0.626919508,-14.13739395,-0.5341976285,14.16136656
10.25880467,-1.015154958,-14.16132259,-0.7429714203,14.21708844
10.26112306,-1.279561877,-14.19183064,-0.9924231768,14.2839154
10.26342853,-1.45782721,-14.22054482,-1.290329576,14.35319147
10.26575983,-1.594816327,-14.19542027,-1.55892396,14.3695386
10.26807821,-1.714457393,-14.1122694,-1.822732687,14.33240616
10.27038368,-1.791625977,-14.02313709,-2.009970903,14.27929552
10.27271498,-1.876571178,-13.98186111,-2.225325108,14.28166767
10.27503337,-1.9585253,-14.08594894,-2.392822742,14.42135152
10.27733884,-2.081157446,-14.10808277,-2.513062,14.48049365
10.27967014,-2.151745796,-14.1242342,-2.53280282,14.50996526
10.28198847,-2.251646042,-14.16012573,-2.452044964,14.54618834
10.28429394,-2.336591244,-14.22413445,-2.36650157,14.6077373
10.28662525,-2.422134638,-14.27378559,-2.237887383,14.6497724
10.28894363,-2.514258385,-14.41496181,-2.180459738,14.79415506
10.29126202,-2.605783939,-14.56152248,-2.146361828,14.9477395
10.2935804,-2.654836655,-14.71585941,-2.112264156,15.10186531
10.29589879,-2.684746981,-14.8462677,-2.13559413,15.23746348
10.29821717,-2.685345173,-14.99522114,-2.220539331,15.39475659
10.30053556,-2.629712105,-15.06162167,-2.338984251,15.46734238
10.30285394,-2.583650351,-15.11366558,-2.543570518,15.54245436
10.30517233,-2.505883455,-15.29013634,-2.722434044,15.73147699
10.30749066,-2.418545485,-15.49950886,-2.863610506,15.94629745
10.30980905,-2.343171597,-15.79083443,-2.965305567,16.23680825
10.31212743,-2.278565407,-16.05344772,-3.101098061,16.50823592
10.31444582,-2.216950178,-16.33639908,-3.294318676,16.81205932
10.3167642,-2.123630047,-16.52662849,-3.592823267,17.04545784
10.31908259,-2.048256159,-16.62114334,-3.820141315,17.1770556
10.32140097,-1.887338877,-16.65643883,-4.152145386,17.26960665
10.32371936,-1.765304923,-16.65883064,-4.46620369,17.3372407
10.32602483,-1.616949916,-16.62234116,-4.69411993,17.34795419
10.32835613,-1.527219057,-16.50987816,-4.832903385,17.27036276
10.33067446,-1.500299811,-16.29332733,-4.776672363,17.04523435
10.33299285,-1.520638824,-16.09592056,-4.625924587,16.81636642
10.33531123,-1.567298889,-15.89492226,-4.298107624,16.54021489
10.33762962,-1.677966833,-15.61376572,-3.867399693,16.17287955
10.339948,-1.764108539,-15.40319729,-3.349353552,15.86154894
10.34226639,-1.819143414,-15.28355598,-2.821736097,15.64795708
10.34458478,-1.919043779,-15.06880093,-2.298904419,15.36347786
10.34689024,-1.987837434,-14.98265934,-1.756331801,15.21565904
10.34922155,-2.050050735,-15.0843544,-1.351346612,15.28288564
10.35153993,-2.083550215,-15.2291193,-0.8685946465,15.3955095
10.35384535,-2.067996979,-15.42473316,-0.404387027,15.56799709
10.35617665,-2.061416626,-15.63948917,0.0652044192,15.77489498
10.35849504,-2.052443504,-15.8249321,0.8009973764,15.97756543
10.3608005,-2.088335991,-16.04028702,1.761117458,16.27124733
10.36313181,-2.08534503,-16.28854179,2.855235577,16.66786213
10.36545019,-2.067996979,-16.56431389,3.982853174,17.16147504
10.36775566,-2.059023857,-16.78325844,4.800600529,17.57734646
10.37008696,-2.011765718,-17.06979942,5.189434052,17.95426076
10.37240535,-1.951346874,-17.22652817,5.28155756,18.12335172
10.37471082,-1.920240164,-17.37548256,4.839483738,18.13877943
10.37704212,-1.900499344,-17.5447731,4.110869408,18.11988433
10.37936051,-1.96151638,-17.67279053,3.19980216,18.06692573
10.38167884,-2.095514536,-17.69671822,2.106880426,17.94446884
10.38399722,-2.29052949,-17.54537201,0.9924231768,17.72206275
10.38631561,-2.448455811,-17.35813332,-0.1932204217,17.53103141
10.38862108,-2.751147747,-16.98844337,-1.219741344,17.25293573
10.39095238,-3.198605776,-16.49671745,-2.319243431,16.96324426
10.39327077,-3.799204111,-15.94158268,-3.597608805,16.77828356
10.39557623,-4.385445595,-15.60180187,-4.807180882,16.90435869
10.39790754,-4.915455818,-15.27099419,-5.85882616,17.0789582
10.40022592,-5.535795212,-14.80618858,-6.683153629,17.16195768
10.40253134,-6.281159401,-14.34556961,-7.532605648,17.37781571
10.40486264,-6.918846607,-14.01057434,-8.137392044,17.61771214
10.40718103,-7.427321434,-13.79282761,-8.558527946,17.85092708
10.4094865,-7.802396297,-13.59541988,-8.796614647,17.9747951
10.4118178,-7.965706348,-13.47996616,-9.013762474,18.06681708
10.41413618,-7.980063438,-13.24068451,-9.225527763,18.0029859
10.41644165,-7.774280548,-13.06780243,-9.277571678,17.81236185
10.41877295,-7.395018578,-12.87996578,-9.031708717,17.38250789
10.42109134,-6.978068829,-12.42712402,-8.259425163,16.47255172
10.42339681,-6.506084919,-12.00658607,-7.275377274,15.4731498
10.42572811,-5.934200287,-11.51545906,-6.314659119,14.41164287
10.42804644,-5.643472195,-10.69113159,-5.455037594,13.26297509
10.43035191,-5.325226784,-10.00558758,-5.099703312,12.4288695
10.43268321,-4.905286312,-9.273982048,-4.586442947,11.45006706
10.4350016,-4.432703972,-8.51844883,-4.071985722,10.43043157
10.43730707,-4.051048756,-7.816154957,-3.362514019,9.423893827
10.43963837,-3.837489367,-7.108478069,-2.560320139,8.474197562
10.44195676,-3.633501291,-6.597609997,-1.593619823,7.698728041
10.44426222,-3.495913982,-6.401398659,-0.9308080077,7.352939746
10.44659353,-3.276372433,-6.232106686,-0.3481557071,7.049466821
10.44891191,-2.840280533,-6.366104603,-0.7776673436,7.014217548
10.45121738,-2.490330219,-6.498906136,-1.703689694,7.165199518
10.45354863,-2.323430777,-6.510870457,-2.302493572,7.286373675
10.45586702,-2.233101845,-6.311667919,-2.337189436,7.091286923
10.45817248,-2.109871387,-6.068198204,-2.423929453,6.866587268
10.46050379,-1.986641049,-5.819942951,-1.966302037,6.456378421
10.46282217,-1.759322882,-5.596213818,-0.6687939167,5.904245201
10.46512764,-1.531406522,-5.521438122,0.5156532526,5.753032517
10.46745894,-1.29451704,-5.548955917,0.7896314859,5.752408541
10.46977733,-1.138385415,-5.574678421,0.4432703853,5.706964998
10.4720828,-1.030110121,-5.539982796,-0.162113741,5.637270359
10.47441405,-0.9224331379,-5.428118229,-0.8865407705,5.576854395
10.47673243,-0.7298108935,-5.276174068,-1.620539188,5.56747555
10.4790379,-0.6107679605,-5.106283665,-2.14995122,5.57399862
10.4813692,-0.4522434771,-4.901099205,-2.370090723,5.462840618
10.48368759,-0.2554338276,-4.709074974,-2.479562521,5.328120104
10.48599306,-0.1178465188,-4.600799561,-2.764906645,5.368980644
10.48832436,0.07118647546,-4.453042984,-3.022135019,5.382189091
10.49064274,0.2703889608,-4.237090588,-3.016751051,5.208342706
10.49294821,0.4241278172,-4.05523634,-2.535195589,4.8012543
10.49527952,0.5647061467,-3.867997885,-2.234298229,4.502487007
10.4975979,0.72323066,-3.763311863,-2.052443504,4.347194855
10.49990332,0.8548358679,-3.721437454,-1.999203324,4.310064387
10.50223462,1.025324464,-3.684348583,-1.988435626,4.310404967
10.504553,1.076171994,-3.543770313,-2.175075769,4.295044679
10.50687139,1.180259824,-3.358924866,-2.151745796,4.159975899
10.50918978,1.301097274,-3.111267567,-1.938186288,3.889653722
10.51150816,1.36211431,-2.77746892,-1.667797327,3.51443266
10.51381363,1.344766378,-2.53280282,-1.5224334,3.246735314
10.51614493,1.336391449,-2.249253273,-1.414756417,2.974326497
10.51846332,1.465005636,-2.097309113,-1.295713425,2.867720402
10.52076879,1.650449395,-2.093121529,-1.255633712,2.946482133
10.52310009,1.71924305,-1.995614052,-1.222732425,2.904022502
10.52541847,1.689931035,-1.794616938,-1.200598717,2.74188879
10.52773681,1.666600943,-1.664806366,-1.076770186,2.590091306
10.53005519,1.682154298,-1.577468276,-0.9056833982,2.477561636
10.53237358,1.708475351,-1.547558069,-0.7292127013,2.41776243
10.53469196,1.606182218,-1.48295188,-0.6592226624,2.283318224
10.53701035,1.398006678,-1.372283816,-0.6239284873,2.05593587
10.53932873,1.258026481,-1.308275819,-0.6161518097,1.91673141
10.54164712,1.051645517,-1.265205026,-0.5748756528,1.742751866
10.54396551,0.7154539824,-1.16769743,-0.6119644046,1.49996404
10.54628389,0.433100909,-1.135992527,-0.6436693072,1.375632798
10.54860228,0.1848455518,-1.127019525,-0.6412764788,1.309800141
10.55092061,-0.1190429255,-1.15393877,-0.6723831892,1.340837446
10.553239,-0.4677968323,-1.147358418,-0.7178468108,1.431980886
10.55554446,-0.7447660565,-1.144367456,-0.6490531564,1.511794746
10.55787577,-1.064806104,-1.151545882,-0.575473845,1.670640627
10.56019415,-1.447657704,-1.237687469,-0.6927221417,2.02668376
10.56249962,-1.499103427,-1.49431777,-1.163509965,2.415378256
10.56483092,-1.661815286,-1.68574357,-1.134796143,2.625094991
10.56714931,-1.820339799,-1.660020709,-1.069591761,2.685764746
10.56945478,-1.965703845,-1.600798368,-0.9714859724,2.714835541
10.57178608,-1.962712765,-1.585843205,-0.8380861282,2.658858482
10.57410446,-2.009372711,-1.639681697,-0.77108711,2.705681077
10.5764228,-2.046461582,-1.679163337,-0.7806583643,2.759895288
10.57874118,-2.096112728,-1.743769526,-0.8805587292,2.865275625
10.58105957,-2.090130568,-1.810768485,-0.8422735929,2.890839515
10.58337795,-2.050648928,-1.871785522,-0.8315058947,2.898300212
10.58569634,-1.954936147,-1.92203474,-0.6825526357,2.825220519
10.58801472,-1.896910191,-1.992623091,-0.5670989752,2.808988484
10.59033311,-1.792822361,-2.023131609,-0.342173636,2.724767205
10.5926515,-1.646860242,-2.067398787,0.03230310604,2.643355801
10.59496988,-1.481157184,-2.139183521,0.5060819983,2.650670053
10.5972753,-1.373480201,-2.212762833,0.9696913958,2.779040953
10.5996066,-1.170090318,-2.303091764,1.473380566,2.973918849
10.60192498,-0.9242277741,-2.387438774,1.996212244,3.246370928
10.60423045,-0.7142575383,-2.544766903,2.510071039,3.645059539
10.60656176,-0.4737788737,-2.619542599,3.136990547,4.114265371
10.60888014,-0.3613162339,-2.697309256,3.730410576,4.617574007
10.61118561,-0.2261217386,-2.770290375,4.347160339,5.159790966
10.61351691,-0.1585244983,-2.830111027,5.035097122,5.778136505
10.6158353,-0.1728814393,-2.839084148,5.631507874,6.309054424
10.61814077,-0.2279163599,-2.877967358,6.146563053,6.79079372
10.62047207,-0.3337987661,-3.028116941,6.762116909,7.416679777
10.62279045,-0.4265206456,-3.206382275,7.496713161,8.164772831
10.62509587,-0.6167500615,-3.397209883,8.126624107,8.829690539
10.62742717,-0.8847461939,-3.574877024,8.797810555,9.537504501
10.62974556,-1.060618639,-3.784249067,9.432506561,10.21849465
10.63205103,-1.232303619,-4.119244099,9.991230965,10.87710625
10.63438233,-1.564307809,-4.514657974,10.33519936,11.3861996
10.63670071,-1.7670995,-4.950749874,10.90349483,12.10449357
10.63900618,-1.993221283,-5.555535793,11.37368393,12.81396095
10.64133748,-2.374876499,-6.174678802,11.63749313,13.3864836
10.64365587,-2.766103029,-6.634100914,11.89950657,13.90183001
10.64596129,-3.236292601,-7.130013466,12.05623722,14.37579694
10.64829259,-3.636492252,-7.5954175,12.3996067,14.98881881
10.65061097,-3.790829182,-8.179265976,12.64128208,15.52651894
10.65291644,-3.857828379,-8.852845192,13.06959724,16.25023323
10.65524774,-3.759124279,-9.5754776,13.2903347,16.80636139
10.65756613,-3.577269793,-10.2281208,13.60259819,17.39085943
10.6598716,-3.443271875,-10.95553875,13.49910927,17.72303308
10.6622029,-3.34875536,-11.78465176,13.28614807,18.07246276
10.66452129,-3.255435228,-12.67597771,12.91226959,18.38491162
10.66682676,-3.309871912,-13.50449276,12.26381397,18.53989509
10.66915806,-3.492922783,-14.23609829,11.28096199,18.49667828
10.67147644,-3.823730469,-14.75474262,10.09412193,18.28153829
10.67378186,-4.290330887,-15.28236008,8.719446182,18.11038957
10.67611316,-4.805984497,-15.80997753,7.554739475,18.16939639
10.67843155,-5.252843857,-16.17727661,6.704689026,18.28249168
10.68073702,-5.65603447,-16.43809319,6.120840549,18.43003859
10.68306832,-6.034698486,-16.63011742,5.694917679,18.58522205
10.6853867,-6.366104603,-16.63370705,5.44785881,18.62489365
10.68769217,-6.572485447,-16.56670761,5.350351334,18.6085901
10.69002347,-6.645466805,-16.29990768,5.276174068,18.37626818
10.69234186,-6.581458569,-15.82253933,5.258825779,17.92550128
10.69464728,-6.387042046,-15.23211098,5.275575638,17.33906598
10.69697858,-6.02752018,-14.59442329,5.345565796,16.67043084
10.69929696,-5.56630373,-13.84307766,5.492125988,15.89899318
10.70160243,-5.141577721,-13.0073843,5.681159019,15.09647096
10.70393373,-4.763511658,-12.15314579,5.840281963,14.30031081
10.70625212,-4.427918434,-11.35693455,5.96590519,13.57123608
10.70855759,-4.019343853,-10.63609695,6.193223,12.94749762
10.71088889,-3.732205153,-9.976275444,6.367300987,12.409591
10.71320728,-3.47557497,-9.417551994,6.418148518,11.91480329
10.71551269,-3.287140131,-8.928219795,6.339783669,11.43290234
10.71784405,-3.146561861,-8.440083504,6.247061729,10.96182655
10.72016238,-2.990430117,-7.971090317,6.068796635,10.45520185
10.72246785,-2.711666346,-7.637889862,5.901896954,10.02611009
10.72479915,-2.406581402,-7.280162811,5.954539299,9.708189474
10.72711754,-2.08534503,-6.844669342,6.101697922,9.403663107
10.72942301,-1.855633974,-6.209972858,6.356533527,9.078141816
10.73175431,-1.607378602,-5.353940487,6.524031162,8.591351891
10.73407269,-1.422533035,-4.595416069,6.634698868,8.195161875
10.73637816,-1.198205948,-3.912265062,6.732206345,7.878078299
10.73870946,-1.098305583,-3.372085333,6.834499836,7.699845625
10.7410278,-1.210768223,-2.985644341,7.083353043,7.781640068
10.74333327,-1.457229018,-2.688336134,7.169494629,7.794377513
10.74566457,-1.764706731,-2.450848579,7.155138016,7.766392253
10.74798295,-2.238485575,-2.438286304,6.789036274,7.552951165
10.75028842,-2.759522676,-2.566900492,6.102894306,7.172814123
10.75261972,-3.220141172,-2.916252613,5.137390137,6.72804696
10.75493811,-3.592225075,-3.334996462,4.183252335,6.444057921
10.75724358,-3.723232031,-3.799802303,3.598805189,6.422799474
10.75957488,-3.73160696,-4.325026989,2.739183664,6.335130315
10.76189327,-3.732205153,-4.898705959,1.679761529,6.383437489
10.76419868,-3.795016766,-5.31027174,0.670588553,6.561312918
10.76652998,-3.748356581,-5.699703693,-0.3182454109,6.829207816
10.76884837,-3.69212532,-5.805585861,-0.9846464992,6.950262247
10.77115384,-3.706482172,-5.868995667,-1.423131227,7.085790197
10.77348514,-3.613760471,-6.361319065,-1.26640141,7.424918688
10.77580353,-3.712464333,-6.742375851,-0.7968099117,7.738018452
10.778109,-4.085744858,-7.119245529,-0.04785645381,8.208486961
10.7804403,-4.432105541,-7.639684677,0.8249256015,8.870673241
10.78275868,-4.893322468,-8.354539871,1.823330879,9.852282818
10.78506415,-5.453841209,-9.34038353,2.984447956,11.22025303
10.7873954,-6.033502102,-10.56670475,4.238286972,12.88493203
10.78971379,-6.756732941,-11.84566879,5.314459324,14.63614659
10.79201926,-7.562515736,-13.22213936,6.119045734,16.41521654
10.79435056,-8.251050949,-14.64347649,6.819544315,18.13883762
10.79666894,-8.878568649,-16.10788345,7.144370079,19.73157151
10.79897441,-9.265607834,-17.72603035,7.191030025,21.2549889
10.80130571,-9.268598557,-19.54218292,6.87517786,22.6951956
10.8036241,-8.976076126,-21.27518463,6.317649841,23.93984384
10.80592957,-8.237890244,-22.75634193,5.953342915,24.92300595
10.80826087,-7.112067223,-23.64766884,5.893522263,25.38754313
10.8105792,-5.828317642,-24.27518654,6.090332031,25.69720048
10.81288467,-4.498506546,-24.50310135,6.3373909,25.70605104
10.81521597,-3.36849618,-24.05385017,6.105885029,25.04428691
10.81753436,-2.446063042,-22.82872391,4.889134884,23.47418794
10.81983983,-1.614557028,-20.8696003,2.39222455,21.06821656
10.82217113,-0.8608179688,-18.18605042,-0.4067798555,18.21095569
10.82448952,-0.3499503136,-15.39362621,-2.965305567,15.68053667
10.82679498,-0.1645065546,-12.92064381,-5.638088226,14.09816079
10.82912629,-0.1232303679,-10.2969141,-8.085348129,13.09253528
10.83144467,-0.1351944804,-8.277970314,-9.616754532,12.68956413
10.83375009,-0.2673979402,-6.673582554,-10.21675491,12.20615774
10.83608139,-0.5174478889,-5.54117918,-10.11685371,11.54656434
10.83839978,-0.9044869542,-4.698307037,-9.220742226,10.38817948
10.84070524,-1.394417405,-4.035495281,-7.893921852,8.974609979
10.84303655,-1.981855392,-3.527618885,-6.480959892,7.640332906
10.84535493,-2.598007202,-3.040081263,-4.959125042,6.370608816
10.8476604,-3.183052301,-2.704487801,-3.282354355,5.31224306
10.8499917,-3.661616802,-2.592623234,-1.627717614,4.772692895
10.85231009,-4.070191383,-2.566302299,-0.1052841991,4.812842211
10.8546155,-4.270590305,-2.602194548,1.19581306,5.1419186
10.85694681,-4.277768612,-2.778067112,2.078764677,5.508014502
10.85926519,-4.061816216,-3.30089879,2.45683074,5.781894246
10.86157066,-3.598805189,-3.789632797,2.240878344,5.686321419
10.86390196,-2.955136061,-4.420141697,1.320838094,5.478603383
10.86622035,-2.239681959,-5.227719307,-0.2081755698,5.69109493
10.86852582,-1.492523074,-5.93778944,-1.870589137,6.401880371
10.87085712,-0.7890332937,-6.601797581,-3.595814228,7.558848113
10.8731755,-0.1369891018,-7.174878597,-5.136193752,8.824858931
10.87548092,0.5084748268,-7.77248621,-6.461817741,10.12053245
10.87781222,1.018146038,-8.497511864,-7.530212879,11.39949276
10.88013061,1.380658627,-9.209974289,-8.222934723,12.42362669
10.88243608,1.688734531,-9.929018021,-8.605786324,13.24751982
10.88476738,1.838884234,-10.6797657,-8.775676727,13.94458292
10.88708577,1.914258122,-11.36471081,-8.817551613,14.51103898
10.88939123,1.904088616,-11.95095253,-8.603992462,14.84855232
10.89172254,1.820937991,-12.36012554,-8.291728973,14.99470866
10.89404092,1.738385677,-12.69691563,-7.636095047,14.91789525
10.89634634,1.694716692,-13.11446285,-6.741179466,14.84266489
10.89867769,1.625923038,-13.52722454,-5.737988472,14.78356997
10.90099603,1.53080833,-14.04168129,-4.642673969,14.86830889
10.9033015,1.483550072,-14.56870079,-3.594617844,15.07876789
10.9056328,1.432702541,-15.09153271,-2.651247501,15.38948048
10.90795118,1.455434322,-15.57428455,-1.540977836,15.71786376
10.91025665,1.487139225,-16.01755524,-0.4163511395,16.09183045
10.91258795,1.576870084,-16.44168282,0.4941178858,16.52451529
10.91490634,1.722832322,-16.77308846,1.232303619,16.9063071
10.91721181,1.86580348,-16.89392662,1.673181176,17.07880308
10.91954311,1.987239242,-16.81376648,1.707278967,17.01665844
10.92186144,2.05124712,-16.59721565,1.386640668,16.78088062
10.92416691,2.126022816,-16.20240021,0.8261220455,16.36215827
10.92649821,2.258824587,-15.60957813,0.2033899277,15.77347728
10.9288166,2.39162612,-15.04547024,-0.3912265003,15.23939331
10.93113498,2.370090723,-14.56271839,-1.053440213,14.79188403
10.93345337,2.275574446,-14.02852058,-1.687538147,14.31172295
10.93577176,2.218744755,-13.58764362,-1.982453585,13.90960135
10.93807722,2.072184324,-13.04925823,-2.130808592,13.38347614
10.94040847,1.857428551,-12.48275757,-2.184048891,12.80778462
10.94272686,1.657029629,-12.00180054,-1.979462504,12.27628751
10.94503233,1.505683661,-11.63450146,-1.549950838,11.83347181
10.94736363,1.320838094,-11.26361465,-1.0863415,11.39270671
10.94968202,1.055832982,-10.89511967,-0.7196413875,10.96979032
10.95198748,0.7178468108,-10.46979523,-0.4205385745,10.50279814
10.95431879,0.3792623878,-9.987641335,-0.2219343036,9.997303347
10.95663717,0.06101697683,-9.548559189,-0.02213360928,9.548779794
10.95894264,-0.2297109663,-9.242277145,0.1345962733,9.246111081
10.96127394,-0.4941178858,-9.003593445,0.2021935135,9.019408496
10.96359228,-0.7244270444,-8.793025017,0.2416750938,8.826125443
10.96589775,-0.9206385016,-8.534002304,0.128614217,8.584480892
10.96822905,-1.049850941,-8.325227737,0.07357929647,8.391484838
10.97054743,-1.173679471,-8.145766258,0.04725824669,8.230022161
10.9728529,-1.150349498,-8.116454124,0.05204389244,8.197733839
10.9751842,-1.005583763,-8.319844246,-0.1322034448,8.381436913
10.97750259,-0.879960537,-8.548956871,-0.7680960894,8.628381409
10.97982097,-0.7716853023,-8.681758881,-1.338784218,8.818207224
10.98213931,-0.6664010882,-8.766105652,-1.752144337,8.964301896
10.98445769,-0.575473845,-8.846264839,-2.151147604,9.122226031
10.98676316,-0.418743968,-9.059824944,-2.563311338,9.424772652
10.98909446,-0.3996013701,-9.242277145,-3.091526747,9.753814931
10.99141285,-0.2985046208,-9.187840462,-3.367299557,9.790006316
10.99371832,-0.1956132501,-9.075378418,-3.506083488,9.731052328
10.99604962,0.01136590727,-8.979066849,-3.452244759,9.61986302
10.99836801,0.2883351147,-9.039485931,-3.358326674,9.64747641
11.00068639,0.6311069727,-9.214161873,-3.268595695,9.797080833
11.00300472,1.002592683,-9.248259544,-3.059821844,9.792752749
11.00532311,1.315454245,-9.110671997,-2.719442844,9.598444327
11.00762858,1.60378933,-9.102895737,-2.407179594,9.55140642
11.00995988,1.818545222,-9.058628082,-1.985444546,9.450282509
11.01227827,2.048256159,-9.028717995,-1.516451359,9.381509827
11.01458373,2.208575249,-9.043673515,-1.223928809,9.389560001
11.01691504,2.225325108,-9.056833267,-0.879960537,9.36763744
11.01923342,2.142772675,-9.072985649,-0.6424728632,9.344694468
11.02153889,2.230110645,-9.17109108,-0.5024927258,9.451709053
11.02387014,2.385644197,-9.195617676,-0.1860419661,9.501857413
11.02618853,2.162513494,-8.849854469,0.3535395563,9.117092681
11.02850691,1.856232166,-8.252845764,-0.2548356056,8.462860169
11.0308253,1.505683661,-8.012366295,-0.8081758618,8.19257256
11.03314368,1.264008522,-7.878966808,-0.8303094506,8.022795603
11.03546207,1.071984529,-7.85922575,-0.6987041831,7.962711081
11.03778045,0.8967102766,-7.925626755,-0.6185446382,8.000140389
11.04009884,0.6442674994,-8.01775074,-0.4677968323,8.057185701
11.04241722,0.2380858511,-8.045866013,-0.2231307179,8.052479872
11.04473556,-0.0783649385,-8.109873772,0.166301176,8.111957208
11.04705394,-0.1657029688,-8.130811691,0.446859628,8.144767631
11.04937233,-0.285344094,-8.185846329,0.6747759581,8.218565809
11.05169071,-0.5282155871,-8.066802979,0.7579265833,8.119530449
11.0540091,-0.7040880919,-7.950751305,0.912861824,8.033897128
11.05632748,-0.7806583643,-7.937591076,0.9786644578,8.03570555
11.05864587,-0.8943174481,-7.796414375,0.9625129104,7.906346306
11.06096426,-1.109073281,-7.576274872,0.8871390224,7.70824235
11.06328259,-1.336989641,-7.408777237,0.8075776696,7.571638075
11.06560097,-1.506880045,-7.292127132,0.7962117195,7.488641979
11.06791936,-1.652244091,-7.214360237,0.7513462901,7.439181771
11.07023774,-1.756331801,-7.231110096,0.7501499057,7.479062742
11.07255613,-1.775474429,-7.390830994,0.6514459848,7.628962845
11.07487452,-1.791625977,-7.506284714,0.6664010882,7.745858523
11.0771929,-1.800599098,-7.57806921,0.8428717852,7.83452123
11.07951129,-1.811366796,-7.60678339,1.086939692,7.894659024
11.08182962,-1.896311998,-7.704290867,1.292124271,8.038761229
11.08414801,-1.981855392,-7.777870178,1.47756803,8.161263541
11.08646639,-2.053041935,-7.82273531,1.601396561,8.244673423
11.08878478,-2.224726915,-7.840681553,1.714457393,8.328568978
11.09110316,-2.471785784,-7.764709473,1.921436548,8.372117806
11.09342155,-2.705684185,-7.659425259,2.152343988,8.403577027
11.09573993,-2.934198856,-7.530212879,2.316850424,8.407224561
11.09805832,-3.119044304,-7.438089371,2.428714991,8.423316886
11.1003767,-3.246462107,-7.291528702,2.398206472,8.334104709
11.10269509,-3.29551506,-7.197012424,2.249253273,8.229006479
11.10501342,-3.266202927,-7.115656376,1.928615093,8.063510612
11.10733181,-3.128017426,-7.007380962,1.585843205,7.835992575
11.10965019,-2.886940479,-6.815357208,1.186241865,7.496044888
11.11196858,-2.524427891,-6.658627033,0.7345965505,7.158888338
11.11428696,-2.123031855,-6.530013084,0.1555334777,6.868225812
11.11660535,-1.723430514,-6.464808464,-0.5569294691,6.713727106
11.11891077,-1.289133191,-6.464808464,-1.144367456,6.690679318
11.12124212,-0.9044869542,-6.601199627,-1.688734531,6.873554938
11.12356045,-0.5335994363,-6.803991318,-2.070389748,7.132008127
11.12586592,-0.2667997181,-6.889534473,-2.339582443,7.280831914
11.12819722,-0.05742774159,-6.985845566,-2.547159672,7.435950417
11.13051561,0.185443759,-7.16710186,-2.486142635,7.588322849
11.13282108,0.3774677813,-7.456035137,-2.363510609,7.830780567
11.13515238,0.456430912,-7.636095047,-2.055434704,7.921053501
11.13747077,0.4283152521,-7.779664516,-1.687538147,7.972102542
11.1397891,0.3613162339,-7.934001446,-1.162313581,8.026823856
11.14210748,0.2338984162,-8.118846893,-0.6466603279,8.147917091
11.14442587,0.07776673883,-8.303692818,-0.1842473447,8.306100719
11.14674426,-0.1190429255,-8.548358917,0.1501496136,8.550506202
11.14906264,-0.2895315289,-8.691329956,0.4498506486,8.707778736
11.15138103,-0.4504488707,-8.977870941,0.5982056856,9.009046612
11.1536865,-0.5736792088,-9.230313301,0.718445003,9.275988071
11.1560178,-0.6245267391,-9.476176262,0.7531409264,9.526550868
11.15833618,-0.6424728632,-9.688538551,0.6921239495,9.734453565
11.1606416,-0.5736792088,-9.926624298,0.604187727,9.961527021
11.1629729,-0.418145746,-10.16829967,0.4307080805,10.18600381
11.16529129,-0.1537388563,-10.35912704,0.2392822653,10.36303067
11.16759676,0.1806581169,-10.4913311,0.0239282269,10.49291371
11.16992806,0.6592226624,-10.51346493,-0.1633101404,10.535378
11.17224644,1.237089276,-10.45244789,-0.3732803464,10.53201761
11.17455191,1.80119729,-10.28136063,-0.5694918036,10.45346875
11.17688321,2.45383954,-10.17966557,-0.7363911867,10.49710396
11.17920155,3.095116138,-10.02114105,-0.8745766878,10.52463283
11.18150702,3.643072367,-9.77348423,-1.048056364,10.48290954
11.18383832,4.131806374,-9.613164902,-1.236491084,10.53630265
11.1861567,4.582853794,-9.487542152,-1.404586911,10.62962226
11.18846217,4.928616524,-9.364311218,-1.540977836,10.69374575
11.19079347,5.125426292,-9.215956688,-1.573879123,10.6621268
11.19311186,5.267798901,-9.174081802,-1.553540111,10.69237902
11.19541733,5.292325497,-9.211769104,-1.49132669,10.72797532
11.19774858,5.242076397,-9.35174942,-1.333400369,10.80335775
11.20006696,5.146961689,-9.477970123,-1.037288666,10.83508653
11.20237243,5.032105923,-9.552745819,-0.6897311211,10.81909293
11.20470373,4.831109047,-9.610174179,-0.4289134443,10.76471222
11.20702212,4.554139614,-9.817750931,-0.2769692242,10.82613195
11.2093405,4.197010994,-10.06600666,-0.1447657645,10.90689454
11.21165889,3.799802303,-10.30528927,0.1830509305,10.98503492
11.21397728,3.278765202,-10.52782154,0.470787853,11.03661945
11.21628269,2.807977438,-10.70189953,0.8111668825,11.09384435
11.218614,2.37786746,-10.96092224,1.191027522,11.27894572
11.22093238,1.944168448,-11.26840019,1.585245013,11.54424686
11.22323785,1.546959877,-11.50289631,1.87417829,11.75679602
11.22556915,1.216152072,-11.65902805,2.044068813,11.89916713
11.22788754,1.000199914,-12.00060368,2.111665964,12.22595688
11.230193,0.7734799385,-12.24108219,2.025524378,12.43161749
11.23252431,0.6831508875,-12.42592812,1.926222205,12.59288357
11.23484269,0.7274180651,-12.58804131,1.760519266,12.73135299
11.23714811,0.8356932998,-12.62931824,1.485344648,12.74379501
11.23947941,1.034895778,-12.69272804,1.220339537,12.79318502
11.2417978,1.210768223,-12.76570892,0.9074779749,12.85506905
11.24411618,1.396211982,-12.8386898,0.6233302951,12.92942011
11.24643457,1.614557028,-12.92542934,0.4211367965,13.03268485
11.24875295,1.822134495,-12.97388458,0.2662015259,13.10391997
11.25107134,1.948953986,-13.0384903,0.1866401732,13.18466857
11.25338967,2.047657967,-13.17009544,0.1836491376,13.3295928
11.25570806,2.182254314,-13.24367523,0.261415869,13.42480934
11.25802644,2.289931297,-13.38485146,0.4019941986,13.58527266
11.26034483,2.347358942,-13.44586849,0.5359922647,13.65974968
11.26266321,2.318047047,-13.45603848,0.6550351977,13.66994457
11.2649816,2.248655081,-13.39980698,0.8117650747,13.61140107
11.26729998,2.10209465,-13.33579922,1.048056364,13.54107694
11.26961837,1.883749604,-13.22513103,1.231705427,13.41527867
11.2719367,1.639681697,-13.11984634,1.472184181,13.30361794
11.27425509,1.382453322,-12.99123192,1.660020709,13.16962234
11.27657347,1.127617717,-12.80399418,1.899302959,12.99311896
11.27889186,0.8793623447,-12.68973637,2.197209358,12.90854043
11.28121024,0.6203392744,-12.54138184,2.446661234,12.79285857
11.28352863,0.4510470629,-12.51625729,2.664407969,12.80465578
11.2858341,0.3768695593,-12.50309658,2.940180779,12.84967384
11.2881654,0.3409772217,-12.50788212,3.282952785,12.93604111
11.29048373,0.4265206456,-12.59222889,3.570689678,13.0956471
11.2927892,0.5186443329,-12.70947742,3.744169235,13.25966107
11.2951205,0.7130611539,-12.80578899,3.703491211,13.34962678
11.29743889,0.9373882413,-12.94098282,3.501895905,13.4391595
11.29975728,1.192223907,-13.12223911,3.227917671,13.56591352
11.30207566,1.526620865,-13.37468243,2.779861689,13.74555682
11.30439405,1.890329838,-13.60738373,2.198405743,13.91284394
11.30671243,2.249851465,-13.84487152,1.545165181,14.11133709
11.30903082,2.638685226,-14.10628796,0.8919246197,14.37864907
11.31134915,2.98863554,-14.33898926,0.2907279432,14.65001973
11.31365462,3.26440835,-14.51127338,-0.2494517565,14.87600898
11.31598592,3.491726398,-14.6697979,-0.7423732281,15.09788865
11.31830431,3.617349625,-14.79242992,-1.169492126,15.27314353
11.32060978,3.634099483,-14.76909924,-1.565504193,15.28998936
11.32294108,3.532404423,-14.62313747,-1.829911113,15.15462323
11.32525946,3.273381472,-14.34138298,-1.981855392,14.84311432
11.32756488,2.97427845,-14.02134228,-1.981855392,14.46969669
11.32989618,2.573480844,-13.65165138,-2.002792597,14.03572468
11.33221457,2.139183521,-13.30648708,-1.918445587,13.6131972
11.33452004,1.682154298,-13.00977707,-1.876571178,13.2516211
11.33685134,1.223928809,-12.80399418,-1.858624935,12.9959515
11.33916972,0.7734799385,-12.72802162,-1.849053741,12.8848673
11.34147519,0.337986201,-12.82014561,-2.009372711,12.98106108
11.3438065,-0.0239282269,-12.95952702,-2.169093609,13.1398204
11.34612483,-0.3038884699,-13.11984634,-2.399402857,13.3409089
11.3484303,-0.650847733,-13.29153156,-2.678166628,13.5742768
11.3507616,-1.005583763,-13.50209999,-2.932404041,13.85340739
11.35307998,-1.369890928,-13.73659706,-3.114856958,14.15178554
11.35538545,-1.683350682,-13.96989727,-3.196810961,14.42952874
11.35771676,-2.02612257,-14.18943787,-3.117249727,14.66842069
11.36003514,-2.42273283,-14.38564968,-2.95752883,14.88501017
11.36234061,-2.82233429,-14.5196476,-2.721237659,15.03964333
11.36467186,-3.271586657,-14.56271839,-2.438884497,15.12363064
11.36699024,-3.730410576,-14.59262848,-2.23728919,15.22715443
11.36929571,-4.165306091,-14.61715508,-2.059622049,15.33796076
11.37162702,-4.615156651,-14.61775398,-1.88255322,15.44417071
11.3739454,-5.031507969,-14.64586926,-1.676172256,15.57649229
11.37625087,-5.418546677,-14.67877007,-1.455434322,15.71449101
11.37858217,-5.693123341,-14.81934929,-1.204187989,15.92089305
11.38090056,-5.920441628,-14.94437408,-0.9900303483,16.10484728
11.38320597,-6.049055576,-15.03350639,-0.8237292171,16.22577942
11.38553728,-6.150750637,-14.99223042,-0.7531409264,16.2223897
11.38785566,-6.183053493,-14.83490181,-0.8021938205,16.09186059
11.39016113,-6.164509296,-14.77687645,-0.865005374,16.03450925
11.39249243,-6.068198204,-14.95693588,-1.000798106,16.17203009
11.39481082,-5.866004944,-15.1788702,-1.059422255,16.30737533
11.3971292,-5.637490273,-15.51924992,-1.140778184,16.55082443
11.39944759,-5.374279499,-15.85903072,-1.298704505,16.79518887
11.40176592,-5.070989609,-16.16830254,-1.293918848,16.99420985
11.40407139,-4.748556614,-16.43031693,-1.298704505,17.15198932
11.40640269,-4.378865242,-16.72403526,-1.264606714,17.3339853
11.40872108,-4.019343853,-16.98425484,-1.311864972,17.50260058
11.41102655,-3.66101861,-17.14876175,-1.388435364,17.59007787
11.41335785,-3.336193085,-17.31446457,-1.5224334,17.69854997
11.41567623,-3.01974225,-17.3312149,-1.639083505,17.66851573
11.41798165,-2.715255499,-17.27618027,-1.798804402,17.58052088
11.42031295,-2.450250387,-17.13619995,-1.868794441,17.41107315
11.42263134,-2.166102648,-16.88435555,-1.892124534,17.12756837
11.42493681,-1.974676847,-16.53440475,-1.907079697,16.76075303
11.42726811,-1.798804402,-16.18385506,-1.81794703,16.38468166
11.4295865,-1.688734531,-15.69631863,-1.658226132,15.87375055
11.43189196,-1.648654819,-15.31107426,-1.389033556,15.46209791
11.43422327,-1.569691658,-14.9527483,-1.037288666,15.07065298
11.4365416,-1.479362607,-14.62852097,-0.8195417523,14.72595627
11.43885998,-1.396810174,-14.55434418,-0.6382854581,14.63514337
11.44117837,-1.351346612,-14.51904964,-0.5048855543,14.59053973
11.44349676,-1.334596872,-14.49930859,-0.2470589429,14.56269674
11.44581514,-1.334596872,-14.60399437,0.06400800496,14.66498883
11.44813353,-1.332802176,-14.74756432,0.3176472187,14.81107405
11.45045191,-1.316052437,-14.93360615,0.6628118753,15.00612895
11.45275738,-1.285543919,-15.1100769,1.012163997,15.19840528
11.45508868,-1.26341033,-15.38764381,1.482353687,15.51042102
11.45740702,-1.219143152,-15.59701633,2.060818434,15.77974021
11.45971248,-1.194616675,-15.80160236,2.644667149,16.06586476
11.46204379,-1.268195987,-16.08036613,3.237488985,16.45198563
11.46436217,-1.355534077,-16.44646835,3.99302268,16.97845765
11.46666764,-1.398006678,-16.80180168,4.525425911,17.45664464
11.46899894,-1.405185103,-17.22353745,5.0291152,17.99768838
11.47131728,-1.35074842,-17.75534248,5.314459324,18.58279274
11.47362274,-1.225125194,-18.16989899,5.246861935,18.95193186
11.47595405,-1.182652593,-18.41456413,4.929812908,19.0996831
11.47827243,-1.173679471,-18.48216248,4.596612453,19.08131807
11.4805779,-1.203589797,-18.29611969,4.112663746,18.79123804
11.4829092,-1.323829174,-17.99821281,3.260220766,18.33895383
11.48522759,-1.517049551,-17.69312859,1.987837434,17.86896013
11.48753306,-1.842473388,-17.45384598,0.6759724021,17.56383746
11.48986431,-2.239681959,-17.09552193,-0.9421738982,17.26733149
11.49218269,-2.659622431,-16.64746475,-2.418545485,17.03117836
11.49448816,-3.053839922,-15.98166275,-3.623929977,16.66950362
11.49681946,-3.513261795,-15.30748463,-4.457828522,16.32587912
11.49913785,-4.00199604,-14.81575966,-5.172086239,16.1948505
11.50144332,-4.568496704,-14.48435402,-5.804389477,16.25910855
11.50377462,-4.926223755,-14.20559025,-6.214758396,16.26928691
11.506093,-5.021936417,-14.0057888,-6.202794552,16.12006903
11.50839842,-4.908875465,-13.71865082,-5.751149178,15.66442324
11.51072972,-4.584648132,-13.34058475,-5.135595798,15.01214656
11.51304811,-4.09172678,-13.07318687,-4.393222332,14.38578623
11.51535358,-3.580260992,-12.85843086,-3.980460405,13.92844493
11.51768488,-3.15433836,-12.57488155,-3.959523201,13.55563796
11.52000327,-2.800200701,-12.1352005,-4.331607342,13.18586506
11.52230873,-2.611167669,-11.40598774,-4.660022259,12.59486246
11.52464004,-2.288734913,-10.74078274,-4.804787636,11.98702238
11.52695837,-1.928016901,-10.20419216,-5.139782906,11.58706845
11.52926384,-1.568495274,-9.509077072,-5.294120312,10.99592807
11.53159514,-1.279561877,-8.941379547,-5.676971912,10.66834368
11.53391353,-1.160519004,-8.516654015,-5.83669281,10.38976337
11.536219,-0.94277215,-8.22353363,-6.023332596,10.23698492
11.5385503,-0.5545366406,-8.08953476,-6.058627129,10.12200801
11.54086868,-0.2452643216,-7.861618996,-6.057430744,9.927621822
11.54317415,-0.2087737769,-7.515257835,-6.417550564,9.884717601
11.5455054,-0.1980060786,-7.174280643,-6.472585201,9.664567675
11.54782379,-0.2362912297,-6.737590313,-6.099305153,9.091340942
11.55012926,-0.3445664644,-6.060421467,-4.869394302,7.781930048
11.55246056,-0.5928218365,-5.74337244,-4.130012035,7.09892697
11.55477894,-0.8745766878,-5.744568825,-4.055834293,7.086236461
11.55708441,-1.104287624,-5.822933674,-4.290929317,7.316972197
11.55941571,-1.34237349,-5.799603939,-4.450650215,7.432742413
11.5617341,-1.581655741,-5.594419479,-4.430311203,7.309365331
11.56403952,-1.763510346,-5.352744102,-3.971487284,6.894530398
11.56637082,-1.905285001,-5.124229908,-3.086741209,6.278201524
11.5686892,-2.033301115,-4.981258392,-2.440679073,5.90797452
11.57099467,-2.078764677,-4.712066174,-1.755733609,5.441271057
11.57332597,-2.006979942,-4.429712772,-0.2835494876,4.8714191
11.57564436,-1.902892232,-4.377070904,0.8285148144,4.844190886
11.57794978,-1.853241086,-4.572085857,1.198205948,5.076826677
11.58028108,-1.859223247,-4.759922504,0.7980063558,5.172077675
11.58259946,-1.858026743,-4.80897522,0.1645065546,5.158058593
11.58491785,-1.83469677,-4.78085947,-0.4701896608,5.142354308
11.58723623,-1.721037745,-4.669593334,-1.299900889,5.143618877
11.58955462,-1.624128342,-4.500899315,-2.11585331,5.231894756
11.59186009,-1.55054903,-4.121038914,-2.962314367,5.306832429
11.59419139,-1.424327731,-3.701098442,-3.355335474,5.194719945
11.59650978,-1.292722464,-3.357728481,-3.643072367,5.120297666
11.59881519,-1.024726272,-3.028715372,-3.084946632,4.442980583
11.6011465,-0.7220342159,-2.818146944,-2.272583246,3.691601308
11.60346488,-0.4175475538,-2.790031195,-1.616949916,3.251637596
11.60578327,-0.0652044192,-2.820539713,-1.423131227,3.159904805
11.60810165,0.1166501045,-2.76371026,-1.717448473,3.255968505
11.61042004,0.337986201,-2.642872572,-1.740180254,3.182332073
11.6127255,0.5814558864,-2.49332118,-1.667797327,3.055534222
11.61505681,0.8099704385,-2.324627161,-1.470987678,2.867707847
11.61737514,0.9559326172,-2.066800594,-1.538584948,2.748220425
11.61968061,0.9834501147,-1.686939955,-1.441077471,2.426859043
11.62201191,1.049850941,-1.329213023,-1.376471281,2.182582747
11.6243303,1.124626637,-1.073180914,-1.42971158,2.112007942
11.62663577,1.205384374,-0.860219717,-1.497308731,2.105911415
11.62896707,1.401595831,-0.6149554253,-1.149153113,1.913947211
11.63128545,1.55054903,-0.442073971,-0.6957131624,1.756032031
11.63359087,1.678565025,-0.3038884699,-0.4241278172,1.757786435
11.63592217,1.844268084,-0.342771858,-0.09810572863,1.878414769
11.63824056,1.829911113,-0.6514459848,-0.3200400174,1.968599036
11.64055894,1.68574357,-0.7226324677,-0.5688936114,1.920304405
11.64287733,1.381256819,-0.7010970116,-0.7196413875,1.708007947
11.64519571,1.049252748,-0.7328019142,-0.8219345808,1.521021509
11.6475141,0.6388836503,-0.7328019142,-0.8446664214,1.287879003
11.64983248,0.3056831062,-0.7363911867,-0.8955138922,1.1990243
11.65215082,-0.05982056633,-0.7782655358,-0.9744769931,1.248551623
11.6544692,-0.3529413342,-0.8285148144,-1.091127157,1.414766008
11.65678759,-0.59940207,-0.9020941257,-1.140778184,1.573032587
11.65910597,-0.8685946465,-0.9613165259,-1.262213945,1.808803518
11.66141144,-1.118046403,-1.048654556,-1.392622828,2.071014843
11.66374274,-1.320239902,-1.111466169,-1.575075507,2.336504504
11.66606113,-1.521835208,-1.188634634,-1.752742529,2.607861397
11.66836655,-1.640279889,-1.326221943,-2.024327993,2.923574282
11.67069785,-1.838884234,-1.466202021,-2.411965132,3.368800883
11.67301623,-2.068595171,-1.490130305,-2.179861546,3.354306287
11.6753217,-2.199003935,-1.301097274,-2.044068813,3.272107843
11.67765301,-2.23130703,-1.186241865,-1.954337835,3.194579346
11.67997139,-2.295913219,-1.101296663,-1.908276081,3.182073138
11.68228978,-2.359921217,-1.040279627,-1.828116536,3.161237087
11.68460816,-2.389831543,-1.012163997,-1.785643935,3.150284911
11.68692655,-2.420340061,-0.9744769931,-1.619342685,3.070817831
11.68924488,-2.356332064,-0.9625129104,-1.347159147,2.879855841
11.69156327,-2.379063845,-0.9050851464,-1.061216831,2.757771757
11.69388165,-2.367099762,-0.8997012973,-0.798604548,2.655257602
11.69620004,-2.428714991,-0.8524430394,-0.37986058,2.601847363
11.69851842,-2.403590441,-0.8937192559,0.2027917206,2.572373534
11.70083681,-2.376072884,-1.026520967,0.8189435601,2.714799477
11.70314222,-2.291127682,-1.191027522,1.422533035,2.948120223
11.70547353,-2.166102648,-1.427318692,2.111665964,3.344902461
11.70779191,-2.021337032,-1.734796405,2.87856555,3.921920651
11.71009738,-1.851446509,-2.070389748,3.617349625,4.560656333
11.71242868,-1.648056626,-2.428714991,4.417748928,5.30389034
11.71474707,-1.463809252,-2.773281336,5.257031441,6.121291241
11.71705254,-1.317248821,-3.167499065,6.110072613,7.007223567
11.71938384,-1.205384374,-3.561716557,7.087540627,8.023216839
11.72170217,-1.220937729,-3.958925009,7.982456207,8.993518959
11.72400764,-1.26640141,-4.347160339,8.958129883,10.03741334
11.72633894,-1.327418327,-4.754538536,10.22453117,11.35379733
11.72865733,-1.419542074,-5.187639713,11.20439243,12.42839955
11.7309628,-1.597209096,-5.626722336,12.13579845,13.47177365
11.7332941,-1.892124534,-6.107081413,13.08634663,14.56465058
11.73561248,-2.23728919,-6.68076086,13.9986105,15.67160248
11.73791795,-2.630310297,-7.336992264,14.62014675,16.56800165
11.7402492,-3.066402197,-7.908278942,14.8779726,17.12593843
11.74256759,-3.454637766,-8.580661774,14.95573997,17.58511975
11.74487306,-3.811168194,-9.299705505,14.71944809,17.82334642
11.74720436,-4.227519512,-10.02592659,14.24866104,17.92806366
11.74952274,-4.675575256,-10.80598736,13.81137276,18.14894995
11.75182821,-5.125426292,-11.53759289,13.33579922,18.36381183
11.75415952,-5.464608669,-12.45882893,12.82433319,18.69619983
11.7564779,-5.609374523,-13.64985657,12.1734848,19.13053578
11.75878332,-5.774479389,-14.87557983,11.15533924,19.46969648
11.76111462,-5.870192051,-16.14258003,9.913464546,19.83226725
11.76343301,-5.833701611,-17.26720619,8.973683357,20.3154
11.76573847,-5.813961029,-18.16630936,8.259425163,20.78545267
11.76806978,-5.831308842,-18.62932014,7.71864748,20.99126606
11.77038816,-5.900700569,-18.7615242,7.332805157,20.9900712
11.77269363,-6.068198204,-18.62692833,6.91106987,20.77374245
11.77502493,-6.047261238,-18.3720932,6.427121639,20.3816356
11.77734327,-5.98803854,-17.98266029,6.110072613,19.91395652
11.77964873,-5.931209087,-17.35215187,5.891727448,19.26107131
11.78198004,-5.819344521,-16.42852211,5.585446358,18.30186658
11.78429842,-5.673382282,-15.37388515,5.354538918,17.23991584
11.78660389,-5.449653625,-14.23968792,5.338387489,16.15443647
11.78893519,-5.295316696,-13.0833559,5.489135265,15.14414694
11.79125358,-5.160720348,-11.91745281,5.749354839,14.20259825
11.793559,-5.123631477,-10.84546852,5.96590519,13.3965597
11.7958903,-5.13021183,-9.899106979,6.130411625,12.72373134
11.79820868,-5.161916733,-9.092725754,6.209972858,12.16087204
11.80051415,-5.271986485,-8.528617859,6.229115486,11.80394188
11.80284545,-5.448457241,-8.138587952,6.153143406,11.56648062
11.80516384,-5.662016392,-7.7838521,6.110072613,11.40086709
11.80746931,-5.799603939,-7.624131203,6.079564095,11.34565476
11.80980061,-5.925227165,-7.526025295,5.982056618,11.29311184
11.81211894,-5.935994625,-7.526025295,6.134599209,11.38026346
11.81442441,-5.897709846,-7.395616531,6.291328907,11.36041129
11.81675571,-5.804389477,-7.138388157,6.299703598,11.15050618
11.8190741,-5.694917679,-6.775875568,6.29790926,10.86315968
11.82137957,-5.684150219,-6.439683914,6.286543369,10.64423413
11.82371087,-5.694917679,-6.280561447,6.533003807,10.70316207
11.82602926,-5.816951752,-6.273382664,6.842276573,10.95486223
11.82833467,-6.106483459,-6.476174355,7.298707485,11.51091245
11.83066597,-6.333801746,-6.836294174,7.690532207,12.08289072
11.83298436,-6.486343861,-7.430312634,7.832306862,12.59473038
11.83530274,-6.546164513,-8.041678429,7.740182877,12.93952444
11.83762113,-6.412764549,-8.654241562,7.388438225,13.06171756
11.83993952,-6.101697922,-9.113064766,6.941578388,12.97937508
11.84224498,-5.664409637,-9.546764374,6.184848309,12.70742284
11.84457629,-5.31027174,-9.851848602,5.226522923,12.35210301
11.84689462,-5.063212872,-10.02114105,4.03788805,11.93163578
11.84920009,-4.753342152,-10.05882835,3.043670416,11.53421948
11.85153139,-4.427918434,-9.960722923,2.583650351,11.20257613
11.85384978,-4.29392004,-9.704092026,2.220539331,10.84149188
11.85615524,-4.275974274,-9.366703987,2.475374937,10.58992826
11.85848655,-4.367499352,-9.208778381,3.313461065,10.71707395
11.86080493,-4.660620213,-9.270991325,4.41236496,11.27570953
11.86311035,-5.21994257,-9.497711182,5.878567219,12.32930942
11.86544165,-5.835496426,-9.721440315,7.272386074,13.47022715
11.86776004,-6.494719028,-10.02772141,8.361120224,14.58234903
11.87006551,-7.007979393,-10.25444126,8.931210518,15.29809995
11.87239681,-7.192226887,-10.30708313,8.843274117,15.36774503
11.87471519,-6.88893652,-10.26819992,7.77248621,14.6049621
11.87703358,-6.121438503,-10.052248,5.870192051,13.15214256
11.87935196,-5.176273346,-9.774680138,3.68674159,11.65891252
11.8816703,-4.317848682,-9.527621269,1.712662816,10.59965085
11.88397577,-3.677768469,-9.260822296,0.128614217,9.965207079
11.88630707,-3.237488985,-9.002995491,-0.94277215,9.613744435
11.88862545,-2.96291256,-8.700303078,-1.739582062,9.354157911
11.89093092,-3.063411236,-8.366504669,-2.119442701,9.15832551
11.89326222,-3.297309637,-8.002795219,-2.09072876,8.904388183
11.89558061,-3.690330744,-7.584649563,-2.044667006,8.679061767
11.89788603,-3.883551121,-7.1563344,-2.016551256,8.388180394
11.90021733,-3.90568471,-6.859025955,-1.985444546,8.138955716
11.90253571,-3.713660717,-6.701099873,-1.946561217,7.904752747
11.90484118,-3.309871912,-6.681957245,-1.838286042,7.68004559
11.90717248,-2.742773056,-6.730412006,-1.66600275,7.456327177
11.90949087,-2.21216464,-6.803991318,-1.488933921,7.307865247
11.91179634,-1.712662816,-6.9649086,-1.416550994,7.310935812
11.91412764,-1.424925923,-7.188637257,-1.488933921,7.478224637
11.91644603,-1.341177106,-7.389634609,-1.744367719,7.71027071
11.91875144,-1.343569875,-7.726424217,-2.170888424,8.137294866
11.92108275,-1.353141189,-8.130811691,-2.592623234,8.640762991
11.92340113,-1.384846091,-8.459226608,-2.986242771,9.077111842
11.9257066,-1.453041553,-8.657830238,-3.32901454,9.388913249
11.9280379,-1.470987678,-8.779266357,-3.634099483,9.614884377
11.93035629,-1.42372942,-8.845666885,-4.038486481,9.827624391
11.93266176,-1.291526079,-9.054440498,-4.364508629,10.13409433
11.934993,-1.048654556,-9.337391853,-4.594817638,10.45939349
11.93731139,-0.912861824,-9.526425362,-4.840082169,10.72438773
11.93961686,-0.7256234884,-9.705288887,-5.013561726,10.94782915
11.94194816,-0.5790630579,-9.836296082,-5.044668198,11.06963016
11.94426655,-0.456430912,-10.03011417,-4.889134884,11.16759416
11.94657202,-0.380458802,-10.27717304,-4.557130814,11.24866552
11.94890332,-0.3038884699,-10.5918293,-4.096512318,11.36048455
11.95122165,-0.2225325108,-11.00160027,-3.454039574,11.53321805
11.95352712,-0.1537388563,-11.42632675,-2.887538671,11.78653716
11.95585842,-0.1698904037,-11.91087246,-2.258824587,12.12435706
11.95817681,-0.08913264424,-12.41216946,-1.749153376,12.53512795
11.96048228,-0.008973085321,-12.87518024,-1.320838094,12.94275705
11.96281358,0.1465603858,-13.30828094,-0.9008977413,13.33954416
11.96513196,0.3786641955,-13.70549011,-0.6191428304,13.72469248
11.96743743,0.5437689424,-14.00878048,-0.5395814776,14.02971002
11.96976868,0.509073019,-14.2935257,-0.6520441771,14.31744369
11.97208707,0.5521438122,-14.64287853,-0.7489534616,14.67241241
11.97439254,0.6562315822,-14.93839169,-0.888933599,14.97919854
11.97672384,0.8781659007,-15.15015697,-1.047458172,15.21169288
11.97904222,1.15094769,-15.33619881,-1.177268744,15.42431963
11.98134769,1.402792215,-15.42652798,-1.384846091,15.55195776
11.983679,1.60977149,-15.41695595,-1.678565025,15.59139107
11.98599733,1.83469677,-15.32602882,-1.948953986,15.55801059
11.98831571,1.996212244,-15.0723896,-2.154736757,15.35593313
11.9906341,2.249253273,-15.05683613,-2.209771633,15.38345037
11.99295248,2.371287346,-14.92463303,-2.401197433,15.30141901
11.99527087,2.338984251,-14.70509148,-2.650649309,15.12403731
11.99758926,2.284547329,-14.42812252,-2.76311183,14.86689823
11.99990764,2.180459738,-14.08535004,-2.770888567,14.5199626
12.00222597,2.088335991,-13.69292736,-2.660220623,14.10440288
12.00454436,1.901097536,-13.30349541,-2.559721947,13.68025359
12.00686275,1.739582062,-13.04327583,-2.334198475,13.36419368
12.00918113,1.575673699,-12.85843086,-2.107478619,13.12491745
12.01149952,1.396810174,-12.67059422,-1.829312921,12.87794324
12.0138179,1.17068851,-12.31525993,-1.590628862,12.47261957
12.01612332,0.9816554785,-11.88694477,-1.357328653,12.00439272
12.01845462,0.7597211599,-11.50708389,-1.108475089,11.58528692
12.020773,0.6005984545,-11.13619614,-0.9170492887,11.19002066
12.02307847,0.4809573591,-10.86520958,-0.5916253924,10.89192911
12.02540978,0.2991028428,-10.69113159,-0.4558327198,10.70502409
12.02772816,0.09631111473,-10.40279675,-0.4552344978,10.41319809
12.03003363,-0.07417750359,-10.11386299,-0.3774677813,10.12117626
12.03236493,-0.262014091,-9.887741089,-0.2524427772,9.894432908
12.03468332,-0.3768695593,-9.722038269,-0.1495514214,9.730489422
12.03698873,-0.5258227587,-9.518648148,-0.1573280841,9.534458782
12.03932004,-0.6317051649,-9.314660072,-0.102293171,9.336616495
12.04163842,-0.6993024349,-9.12861824,-0.03708875179,9.155439391
12.04394389,-0.8105686903,-9.002396584,-0.1968096644,9.040956802
12.04627519,-0.917647481,-8.88993454,-0.3463610709,8.943879416
12.04859358,-1.042672515,-8.81097126,-0.4145565331,8.882130242
12.050899,-1.134796143,-8.741579056,-0.4875376225,8.828400739
12.0532303,-1.161117196,-8.785248756,-0.6065805554,8.88238306
12.05554868,-1.22691977,-8.815756798,-0.6550351977,8.9247953
12.05786707,-1.214955688,-8.901898384,-0.6921239495,9.011045873
12.06018545,-1.190429211,-9.08853817,-0.7142575383,9.193955166
12.06250384,-1.103689432,-9.489934921,-0.7202396393,9.581009358
12.06482222,-0.9643075466,-9.909874916,-0.6969096065,9.981041674
12.06714056,-0.8817551732,-10.3346014,-0.6837490797,10.39466167
12.06945894,-0.8590233326,-10.6175518,-0.8051848412,10.6826331
12.07177733,-0.8614161611,-10.8107729,-1.075573802,10.89824332
12.07409571,-0.8333004713,-10.83051395,-1.552343726,10.97288445
12.0764141,-0.8781659007,-10.80359459,-2.029711723,11.02762717
12.07871957,-0.8446664214,-10.87537861,-2.420938253,11.17355195
12.08105087,-0.7764709592,-10.93101215,-2.371885538,11.21230462
12.08336926,-0.6125625968,-11.07099247,-2.154138565,11.29523883
12.08568759,-0.4013960063,-11.14756203,-2.056631088,11.3427946
12.08800597,-0.1597209126,-11.12243748,-1.897508383,11.28426623
12.09032436,0.1100698411,-10.9621191,-1.596012712,11.07824116
12.09264275,0.4773681164,-10.68395329,-1.317847013,10.77550272
12.09496113,0.9170492887,-10.4279213,-1.039083242,10.51961102
12.09727952,1.438684583,-10.19880867,-0.8069794178,10.33134683
12.09958498,1.802393675,-9.888339996,-0.8159525394,10.08432791
12.10191623,1.966900229,-9.457033157,-1.213759303,9.735367702
12.10423462,2.05124712,-9.077172279,-1.701895118,9.460397366
12.10654009,2.184647083,-8.623134613,-1.999801517,9.117584085
12.10887139,2.159522533,-8.051848412,-1.932802439,8.557542035
12.11118978,1.976471543,-7.451249599,-1.838286042,7.925077661
12.11349525,1.752742529,-6.970890522,-1.715055585,7.389643882
12.1158265,1.604985833,-6.628716946,-1.647458434,7.016408423
12.11814488,1.384846091,-6.436692715,-1.55054903,6.764097434
12.12045035,1.117448211,-6.26979351,-1.454237938,6.532519357
12.12278165,0.8273184299,-6.286543369,-1.490130305,6.51349151
12.12510004,0.4731806815,-6.299105644,-1.335793257,6.456545167
12.1274055,0.2183450609,-6.314060688,-1.046261668,6.403881668
12.12973681,0.0005982056609,-6.314060688,-0.6526423693,6.347700748
12.13205519,-0.2482553422,-6.415157318,-0.2105683982,6.423411335
12.13436061,-0.5306084156,-6.68016243,0.1280160099,6.702425194
12.13669191,-0.8321040869,-6.897909641,0.3792623878,6.958260888
12.1390103,-1.151545882,-6.78484869,0.643071115,6.911857212
12.14131577,-1.493121386,-6.5288167,0.7477570772,6.738990994
12.14364707,-1.845464468,-6.407381058,0.8530412912,6.722198343
12.14596545,-2.176272154,-6.385845661,1.002592683,6.820584827
12.14827087,-2.422134638,-6.47796917,1.077966571,6.999488031
12.15060217,-2.592623234,-6.520441532,1.062413216,7.096941232
12.15292056,-2.697309256,-6.738786697,1.043868899,7.333238415
12.15522603,-2.780459881,-7.014559746,1.05523479,7.61895833
12.15755733,-2.870789051,-7.241877556,1.174875975,7.878232915
12.15987571,-2.915056229,-7.444669247,1.419542074,8.120083294
12.1621941,-2.931207657,-7.63190794,1.63489604,8.337318645
12.16451248,-2.886940479,-7.894520283,1.742573142,8.584546405
12.16683082,-2.820539713,-8.061419487,1.744367719,8.716923033
12.1691492,-2.726023197,-8.231907845,1.750947952,8.846543278
12.17146759,-2.64227438,-8.33539772,1.823929071,8.932367341
12.17378597,-2.572882652,-8.477770805,1.959123492,9.073614926
12.17610436,-2.490928411,-8.557332039,2.117648125,9.160627138
12.17842274,-2.388036966,-8.684151649,2.239083767,9.280663044
12.18074113,-2.266003132,-8.791828156,2.236690998,9.350604212
12.18305946,-2.179861546,-8.780462265,2.155334949,9.300203368
12.18537785,-2.06560421,-8.715856552,1.960319996,9.169281906
12.18769623,-1.977069736,-8.579465866,1.707877159,8.968438196
12.19001462,-1.831705689,-8.365307808,1.330409408,8.666228109
12.192333,-1.673181176,-8.069794655,0.7956135273,8.279741657
12.19465139,-1.441077471,-7.801199913,0.195015043,7.935581593
12.19695681,-1.194018483,-7.561319351,-0.5108676553,7.672041204
12.19928811,-0.890130043,-7.223931789,-1.417149186,7.415243341
12.2016065,-0.6436693072,-6.908079147,-2.33838582,7.32146952
12.20391196,-0.3296113312,-6.638288021,-3.076571703,7.323988321
12.20624327,-0.0382851623,-6.305685997,-3.591626883,7.256922578
12.20856165,0.2237289101,-6.020939827,-3.896711588,7.175383768
12.21086712,0.4785645306,-5.852245808,-4.162314892,7.19740719
12.21319837,0.7160521746,-5.76072073,-4.284946918,7.215220311
12.21551676,0.9649057388,-5.816951752,-4.172484398,7.223406178
12.21782222,1.069591761,-5.886343479,-3.909274101,7.146711837
12.22015353,1.098903775,-6.023931026,-3.55992198,7.082964
12.22247191,1.052842021,-6.231508255,-3.086143017,7.03309677
12.2247903,0.9445667267,-6.486942291,-2.389233351,6.977181565
12.22710868,0.7633104324,-6.7202425,-1.611566067,6.952801397
12.22942702,0.4821537733,-6.994220734,-0.8009973764,7.056429177
12.23173248,0.1926222295,-7.292127132,0.005383851007,7.294672743
12.23406379,-0.09571290761,-7.586444378,0.7010970116,7.619372433
12.23638217,-0.3505485058,-7.855038643,1.259222865,7.963049577
12.23868764,-0.5862415433,-8.081160545,1.573280931,8.253729326
12.24101894,-0.7387840152,-8.28155899,1.630708575,8.472852624
12.24333733,-0.7375875711,-8.4646101,1.484148264,8.625332204
12.24564275,-0.6843472719,-8.626724243,1.256830096,8.744616873
12.24797405,-0.5389832854,-8.825327873,1.010967612,8.899380347
12.25029243,-0.2721835673,-9.08853817,0.8105686903,9.128670854
12.2525979,0.09870393574,-9.353543282,0.6059823632,9.37367212
12.2549292,0.5473581553,-9.675378799,0.3930211067,9.698815466
12.25724759,1.022931695,-9.928419113,0.2081755698,9.98314742
12.25955306,1.488335729,-10.15813065,0.02333002165,10.26661121
12.26188431,1.950748682,-10.29153061,-0.08673982322,10.47513945
12.26420269,2.325225353,-10.35494041,-0.2165504545,10.61500627
12.26650816,2.630908489,-10.33340454,-0.3188436031,10.66782968
12.26883946,2.921038151,-10.26939678,-0.4169493318,10.6848875
12.27115785,3.12383008,-10.13958549,-0.4827519655,10.62085485
12.27346332,3.257229805,-9.949356079,-0.5162515044,10.48168632
12.27579462,3.406781197,-9.840482712,-0.4965106845,10.42534321
12.27811295,3.609572887,-9.763314247,-0.4857429862,10.42052147
12.28041842,3.74536562,-9.64068222,-0.590429008,10.35949438
12.28274972,3.786043644,-9.514460564,-0.6675975323,10.26181138
12.28506811,3.698107481,-9.439684868,-0.6544370055,10.15932759
12.2873865,3.539582968,-9.457033157,-0.4648058116,10.10842066
12.28970488,3.318246841,-9.630513191,-0.2368894368,10.18889901
12.29202327,3.078964472,-9.866206169,0.03529413417,10.3355354
12.2943416,2.87318182,-10.33579731,0.394217521,10.73495632
12.29665998,2.606382132,-10.8364954,0.7962117195,11.17393456
12.29897837,2.291127682,-11.2755785,1.149751306,11.56329817
12.30128384,2.005185366,-11.74696445,1.44646132,12.00434057
12.30361514,1.695314884,-12.19143105,1.670788407,12.42161895
12.30593353,1.431506157,-12.74895859,1.868196249,12.9643863
12.308239,1.200000525,-13.27298737,2.132004976,13.49657883
12.3105703,0.9212366939,-13.4087801,2.279163599,13.63226494
12.31288863,0.7537391186,-13.55713463,2.249851465,13.76320652
12.3151941,0.6011967063,-13.73360538,2.106282234,13.90718445
12.3175254,0.4761717021,-13.98186111,1.907079697,14.11935313
12.31984379,0.3882354796,-14.22951794,1.740778446,14.34085831
12.32214926,0.3792623878,-14.36949825,1.536790371,14.4564188
12.32448056,0.3840480447,-14.50887966,1.380658627,14.57948216
12.32679894,0.433100909,-14.52204037,1.247856975,14.5819882
12.32910436,0.509073019,-14.48674679,1.167099237,14.54259635
12.33143566,0.6179464459,-14.41256905,1.062413216,14.46487906
12.33375405,0.7381857634,-14.23250866,0.9756734371,14.28499771
12.33607243,0.836291492,-13.94656658,0.8793623447,13.99926359
12.33839082,0.8973084688,-13.69053459,0.7495517135,13.74036854
12.3407092,0.9355936646,-13.45962715,0.614357233,13.50608505
12.34302759,0.9672985673,-13.18564892,0.5413761139,13.23216128
12.34534592,1.026520967,-13.06421375,0.4552344978,13.11238593
12.34766431,1.157527924,-12.95534039,0.4552344978,13.01491275
12.34998269,1.25503552,-12.8757782,0.5222335458,12.94733587
12.35230108,1.37587297,-12.80040455,0.6424728632,12.89015727
12.35461946,1.506880045,-12.74477196,0.7812566161,12.85730382
12.35693785,1.600200176,-12.6993084,0.8434699774,12.82749063
12.35925618,1.64626193,-12.6687994,0.9631111026,12.81156663
12.36157457,1.691725612,-12.63888931,1.135394335,12.8020537
12.36389295,1.712064624,-12.56112289,1.335195065,12.74738089
12.36621134,1.71924305,-12.5365963,1.559522152,12.74967265
12.36852972,1.697707653,-12.51266766,1.830509305,12.75930356
12.37084811,1.62652123,-12.44148159,2.143969059,12.72920417
12.3731665,1.560120344,-12.38046455,2.46819663,12.7201365
12.37548483,1.562513232,-12.36550903,2.754138947,12.76450323
12.3777903,1.610967875,-12.44088268,2.907279491,12.87723004
12.3801216,1.685145378,-12.59701443,3.052045345,13.0705573
12.38243998,1.81495595,-12.84826088,3.169891834,13.35739821
12.38475837,2.07098794,-13.14975643,3.217149973,13.69507719
12.38707676,2.297109842,-13.38963699,3.125624657,13.94018013
12.38939514,2.539382935,-13.66241932,2.972483873,14.2107645
12.39171347,2.824128866,-13.94895935,2.84805727,14.51415175
12.39403186,3.139383316,-14.26900005,2.66739893,14.85177118
12.39635024,3.468994617,-14.61655712,2.520240545,15.23250728
12.39865571,3.726821184,-14.90369606,2.248056889,15.52620727
12.40098702,3.944568157,-15.16810226,2.069791555,15.80869955
12.4033054,4.11386013,-15.37089443,1.91066885,16.02619407
12.40561087,4.238286972,-15.5174551,1.741376638,16.17982948
12.40794212,4.274777889,-15.55035591,1.456032634,16.19281711
12.4102605,4.212564468,-15.47558022,1.226321578,16.08549493
12.41257889,4.061218262,-15.30210114,1.017547846,15.86452636
12.41489728,3.75134778,-15.05444336,0.8703892231,15.53919086
12.41721566,3.333201885,-14.70927906,0.7447660565,15.10058945
12.41953405,2.848655462,-14.37069416,0.537786901,14.66018088
12.42185243,2.308475733,-14.05304718,0.2303091735,14.24325235
12.42417077,1.808973908,-13.85324669,-0.0568295382,13.97097205
12.42647623,1.312463164,-13.72164154,-0.3918247223,13.7898344
12.42880754,0.8279166222,-13.68574905,-0.7489534616,13.73120914
12.43112592,0.3930211067,-13.74437332,-1.091127157,13.79321652
12.43343139,-0.03649054468,-13.82213974,-1.37587297,13.89049693
12.43576269,-0.4342973232,-13.88913918,-1.574477315,13.98484108
12.43808108,-0.7878368497,-13.98903942,-1.75334084,14.12048565
12.4403865,-1.060020447,-14.10688591,-1.883749604,14.2715236
12.4427178,-1.376471281,-14.22951794,-1.914258122,14.42353071
12.44503618,-1.645663738,-14.33181095,-1.934597135,14.55512557
12.44734165,-1.8628124,-14.45683575,-1.802393675,14.68736848
12.44967295,-2.053041935,-14.50409412,-1.689332843,14.74576458
12.45199134,-2.25104785,-14.46999645,-1.538584948,14.72464795
12.45429676,-2.416152716,-14.3874445,-1.387837172,14.6547755
12.45662806,-2.575873613,-14.31446362,-1.299302697,14.60230054
12.45894644,-2.726621389,-14.25524044,-1.262812138,14.56849473
12.46125191,-2.80857563,-14.22353554,-1.259222865,14.55275584
12.46358321,-2.875574589,-14.21037579,-1.212562919,14.5490212
12.4659016,-2.947957516,-14.19781303,-1.164706469,14.54733273
12.46821998,-2.97427845,-14.29950809,-1.154536963,14.65111667
12.47053837,-2.931805849,-14.45205021,-1.186840057,14.79411471
12.4728567,-2.902493954,-14.63390541,-1.223928809,14.96909017
12.47517509,-2.861217737,-14.73859119,-1.289133191,15.0689914
12.47749347,-2.820539713,-14.82892036,-1.316650629,15.15209201
12.47981186,-2.781058073,-14.86660671,-1.368694544,15.18629658
12.48213024,-2.69850564,-15.09033585,-1.452443361,15.39836876
12.48444863,-2.553141832,-15.32244015,-1.473380566,15.60341487
12.48676702,-2.428116798,-15.54557037,-1.499103427,15.80530988
12.48908535,-2.298904419,-15.74896049,-1.515254974,15.98783024
12.49140373,-2.14157629,-15.89372635,-1.584646821,16.11545816
12.49372212,-2.044068813,-16.13659859,-1.672582984,16.35131692
12.49604051,-1.999801517,-16.34297943,-1.799402595,16.56291135
12.49835889,-1.919641972,-16.62892151,-1.963310957,16.85409878
12.50067728,-1.820339799,-16.88674736,-2.179861546,17.12389178
12.50298274,-1.741376638,-17.07279015,-2.550150633,17.34980761
12.505314,-1.649253011,-17.19123459,-2.915654421,17.5145546
12.50763238,-1.637288928,-17.16252136,-3.306880951,17.55472347
12.50993785,-1.722832322,-17.09791374,-3.608974695,17.55937083
12.51226915,-1.850848317,-16.83769417,-3.969692707,17.39804715
12.51458754,-1.911267042,-16.63310814,-4.18145752,17.25681938
12.516893,-1.988435626,-16.38066483,-4.312464714,17.0551285
12.51922431,-2.140379906,-16.23470306,-4.290929317,16.92805022
12.52154264,-2.263011932,-15.9445734,-4.165904045,16.63446424
12.52386103,-2.398206472,-15.774683,-3.900899172,16.42586474
12.52617941,-2.536391973,-15.743577,-3.473181963,16.3204318
12.5284978,-2.653042078,-15.61556053,-2.998206854,16.12059575
12.53081618,-2.708076954,-15.53420448,-2.374876499,15.94632334
12.53313457,-2.751147747,-15.5485611,-1.692323804,15.88050774
12.53545295,-2.749951363,-15.63350677,-0.9619147182,15.90264275
12.53775837,-2.752344131,-15.75255013,-0.2841476798,15.99371669
12.54008967,-2.760120869,-15.85185146,0.4037888348,16.09541883
12.54240806,-2.825325251,-15.96730518,1.234098315,16.26223528
12.54471353,-2.858226538,-16.09592056,2.164308071,16.49037135
12.54704483,-2.862414122,-16.26700592,3.281756163,16.83979868
12.54936321,-2.883351326,-16.48176193,4.275375843,17.26965633
12.55166868,-2.849253654,-16.73899078,5.007579803,17.70276573
12.55399993,-2.721835852,-16.85504341,5.524429321,17.94492123
12.55631832,-2.48195529,-17.00220108,5.895316601,18.16561866
12.55862379,-2.254637241,-17.28515244,5.84746027,18.38620884
12.56095509,-2.04586339,-17.60878181,5.207380295,18.47624322
12.56327347,-1.820937991,-17.81635857,4.027718544,18.35649652
12.56559186,-1.679761529,-17.85464478,2.522035122,18.10995859
12.56791024,-1.664208174,-17.70868301,0.6843472719,17.79987006
12.57022863,-1.816750646,-17.34557152,-1.146162033,17.47807545
12.57253405,-2.008774519,-16.82453346,-2.687737942,17.15587469
12.57486535,-2.286342144,-16.16471291,-3.52044034,16.70086237
12.57718373,-2.733799934,-15.36969757,-3.935595036,16.09938427
12.5794892,-3.385843992,-14.65125275,-4.609772682,15.72810067
12.58182051,-4.00199604,-14.02852058,-5.401797295,15.55618128
12.58413889,-4.565505505,-13.5912323,-6.116054535,15.587545
12.58644431,-4.944169998,-13.28016567,-6.985247612,15.79877532
12.58877561,-5.14397049,-13.06540966,-7.732406139,16.02983053
12.591094,-5.072185993,-12.78066349,-8.077570915,15.94740047
12.59339946,-4.889732838,-12.56112289,-8.297112465,15.82824598
12.59573077,-4.588237286,-12.40977669,-8.343173981,15.64170806
12.59804915,-4.194019794,-12.38106251,-8.258827209,15.46249455
12.60035462,-3.884149313,-12.28235817,-7.984848976,15.15588174
12.60268587,-3.583850145,-11.9724884,-7.716853142,14.68789579
12.60500426,-3.102892876,-11.68654537,-7.386045456,14.16887273
12.60730972,-2.536391973,-11.35573769,-7.035496712,13.59721577
12.60964103,-2.240878344,-10.76351452,-7.161119938,13.12083912
12.61195941,-2.184647083,-10.03729248,-7.618747234,12.7892624
12.61426488,-2.096112728,-9.429515839,-7.60319376,12.29300667
12.61659618,-1.872981906,-9.164510727,-7.11685276,11.75354888
12.61891457,-1.688136339,-8.895318031,-6.682555676,11.25313456
12.62121998,-1.529611826,-8.530412674,-6.107081413,10.6020798
12.62355129,-1.468594909,-8.186444283,-5.326423168,9.876508734
12.62586967,-1.465603828,-7.791030407,-4.581058979,9.156104562
12.62817514,-1.554736495,-7.331608772,-3.988237143,8.489742532
12.63050644,-1.588235974,-6.840481758,-3.119044304,7.68395221
12.63282483,-1.548754454,-6.47796917,-2.115255117,6.988349528
12.63513025,-1.571486235,-6.183053493,-0.7531409264,6.423934989
12.63746155,-1.717448473,-6.20817852,0.299701035,6.448327729
12.63977993,-1.823330879,-6.440880299,0.6011967063,6.720930888
12.6420854,-1.670788407,-6.677769661,0.1704886109,6.885724937
12.6444167,-1.470389485,-6.866204739,-0.390030086,7.032704758
12.64673509,-1.355534077,-7.052246571,-1.040877819,7.256382085
12.64905347,-1.332802176,-6.952346325,-1.856830359,7.318421964
12.65137186,-1.425524116,-6.533003807,-2.367099762,7.093336241
12.65369019,-1.412961721,-5.845067501,-2.003988981,6.338552418
12.65599566,-1.420140266,-5.311468124,-1.616949916,5.73088292
12.65832696,-1.387238979,-4.988437176,-1.433300734,5.372456462
12.66064535,-1.433898926,-4.788038254,-1.630708575,5.257431588
12.66295082,-1.539781332,-4.613960266,-2.099701881,5.297952801
12.66528212,-1.681556106,-4.439882278,-2.221735716,5.241783587
12.66760051,-1.794018745,-4.284348965,-2.395813704,5.226286694
12.66990592,-1.801795483,-4.139583111,-1.924427629,4.907752743
12.67223722,-1.695913076,-4.10309267,-1.570888042,4.709477664
12.67455561,-1.606182218,-4.086342812,-1.5224334,4.64713055
12.676874,-1.497906923,-4.079762459,-1.84606266,4.721878251
12.67919238,-1.374078393,-4.004986763,-2.065006018,4.710866189
12.68151077,-1.174277663,-3.909274101,-2.369492531,4.719729535
12.68382915,-1.00737834,-3.843471289,-2.559123755,4.726118604
12.68614754,-0.8608179688,-3.768097401,-2.66799736,4.696570612
12.68846587,-0.5826523304,-3.650849104,-2.637488842,4.54142382
12.69078426,-0.366700083,-3.477967739,-2.73260355,4.438226077
12.69310264,-0.2578266263,-3.206980467,-2.904886723,4.334693202
12.69542103,0.08554340899,-3.03948307,-2.30189538,3.813724866
12.6977265,0.4253242314,-3.07836628,-1.693520188,3.539103033
12.7000578,0.6065805554,-3.194418192,-1.943570137,3.788101428
12.70237618,0.747158885,-3.105883837,-2.48195529,4.045350772
12.7046816,0.9164510965,-2.948555708,-2.65364027,4.071322888
12.7070129,0.9260223508,-2.717648268,-2.826521635,4.02893957
12.70933129,0.9523434043,-2.462812662,-2.742773056,3.807257307
12.71164967,0.9960124493,-2.264208317,-2.313859463,3.387126469
12.71396806,1.04685986,-2.180459738,-1.808973908,3.020381902
12.71628644,1.16769743,-2.143370867,-1.517049551,2.873846777
12.71860483,1.161715388,-2.143370867,-1.37886405,2.800872611
12.72092316,1.098305583,-2.11585331,-1.241276741,2.687727354
12.72324155,1.086939692,-2.091925144,-1.140778184,2.618962308
12.72555993,0.912861824,-1.99501586,-1.133599758,2.469504687
12.72787832,0.7597211599,-1.984248161,-1.121037364,2.402320082
12.7301967,0.6299105883,-1.977667928,-1.045663476,2.324084742
12.73251509,0.5156532526,-2.003988981,-1.018146038,2.30618548
12.73483347,0.3852444589,-1.963909149,-0.9337990284,2.208468489
12.73715186,0.2452643216,-1.895115495,-0.9116654396,2.117250859
12.73947019,0.1196411327,-1.820937991,-0.9367900491,2.051269062
12.74178858,-0.006580262445,-1.709073544,-1.05822587,2.010178517
12.74410696,-0.0933200866,-1.628913999,-1.140179992,1.990497392
12.74642535,-0.1788634956,-1.612164259,-1.304088354,2.081276575
12.74874373,-0.3008974493,-1.615155339,-1.472184181,2.206035428
12.75106212,-0.409172684,-1.6181463,-1.687538147,2.373521589
12.7533805,-0.5359922647,-1.650449395,-1.869392633,2.550666527
12.75569884,-0.6538388133,-1.658226132,-2.032702923,2.703534774
12.75801722,-0.7962117195,-1.666600943,-2.066800594,2.771854343
12.76033561,-0.8368897438,-1.711466432,-2.248056889,2.946737444
12.762654,-0.8015955687,-1.753939033,-2.353341103,3.042543661
12.76497238,-0.7328019142,-1.819741607,-2.342573404,3.055504593
12.76729077,-0.6598208547,-1.932802439,-2.19242382,2.996299557
12.76960915,-0.5659025311,-2.055434704,-2.209771633,3.070528972
12.77192754,-0.5599204898,-2.112862349,-2.176272154,3.084454368
12.77424587,-0.5647061467,-2.136790514,-2.090130568,3.041942229
12.77656426,-0.4983053207,-2.21156621,-1.802991867,2.896569172
12.77888264,-0.3930211067,-2.319243431,-1.439282775,2.757696609
12.78120103,-0.2691925466,-2.430509567,-1.050449133,2.661444113
12.78351941,-0.2883351147,-2.511865616,-0.7064808607,2.625208795
12.7858378,-0.3996013701,-2.55254364,-0.3924229145,2.613265397
12.78814321,-0.3248256743,-2.69850564,0.2434697002,2.728868246
12.79047452,-0.07058826834,-2.825923443,1.091127157,3.030079946
12.7927929,0.05742774159,-2.690729141,1.997408748,3.351561272
12.79509837,0.05383851007,-2.641676188,2.860619545,3.894161764
12.79742967,0.09571290761,-2.677568436,3.696312666,4.565222997
12.79974806,0.111864455,-2.805584431,4.532006264,5.331313012
12.80205353,0.03409772366,-2.983849764,5.290530682,6.074062641
12.80438483,-0.1304088384,-3.158525944,6.177670002,6.939517221
12.80670316,-0.3056831062,-3.31465745,7.146164894,7.883404649
12.80900863,-0.4731806815,-3.479762316,8.304888725,9.016863228
12.81133993,-0.7615157962,-3.719642878,9.382257462,10.12138353
12.81365832,-1.10010016,-3.907479286,10.66361427,11.41013953
12.81596379,-1.336989641,-4.223331928,12.09930801,12.88477118
12.81829509,-1.712662816,-4.541577339,13.52483177,14.36941937
12.82061347,-2.199003935,-4.948955536,14.92582989,15.87791476
12.82291889,-2.793620348,-5.368896008,16.03071594,17.13514554
12.82525019,-3.239283562,-5.920441628,16.98485374,18.27648335
12.82756858,-3.454637766,-6.664011002,17.70329857,19.22889349
12.82987405,-3.664607763,-7.634898663,17.28455353,19.24777437
12.83220535,-4.052843571,-8.582456589,16.35733604,18.91154527
12.83452373,-4.502095699,-9.34815979,15.40977764,18.5773573
12.8368292,-4.97826767,-9.937392235,14.77567959,18.48933803
12.8391605,-5.308476925,-10.6420784,14.21934891,18.53708832
12.84147884,-5.506483078,-11.31505966,13.7413826,18.63270047
12.84378431,-5.583651543,-12.01974678,13.20598793,18.70961235
12.84611561,-5.440082073,-12.76630688,12.53599739,18.70091749
12.848434,-5.164907455,-13.8233366,11.41077328,18.65386423
12.85073946,-4.973481655,-14.94975758,10.14736271,18.74032394
12.85307077,-4.805386066,-16.04267883,8.882157326,18.95658192
12.85538915,-4.928616524,-16.8789711,7.786244869,19.23061453
12.85769457,-5.09372139,-17.4317131,7.034898758,19.47563657
12.86002587,-5.439484119,-17.54656792,6.455237389,19.47152082
12.86234426,-5.826523304,-17.33540154,5.930611134,19.22593739
12.86464972,-6.108277798,-16.86281967,5.509474277,18.76219741
12.86698103,-6.212365627,-16.24606895,5.165505886,18.14416419
12.86929941,-6.102295876,-15.49472332,5.046463013,17.4008981
12.87160488,-5.903691769,-14.64467239,4.941776752,16.54512507
12.87393618,-5.671587944,-13.65942764,4.922634602,15.58779025
12.87625452,-5.396413326,-12.69751358,4.932205677,14.65178422
12.87855998,-5.103890896,-11.68175983,5.01774931,13.70003734
12.88089129,-4.93579483,-10.65464115,5.121836662,12.81080245
12.88320967,-4.779065132,-9.714859962,5.192425251,12.00746633
12.88551514,-4.726422787,-8.829515457,5.271986485,11.31782917
12.88784644,-4.675575256,-8.050053596,5.324030399,10.72425599
12.89016483,-4.569094658,-7.395018578,5.363512039,10.21421496
12.89247024,-4.559523582,-6.865606308,5.378467083,9.841428425
12.89480155,-4.635495663,-6.503093719,5.341976643,9.608057161
12.89711993,-4.689334393,-6.235695839,5.301298618,9.432789973
12.8994254,-4.760520458,-6.025725842,5.123033047,9.231326803
12.9017567,-4.839483738,-5.826523304,4.839483738,8.988302371
12.90407509,-4.871188641,-5.63090992,4.599005222,8.751369855
12.90638056,-4.870590687,-5.414957523,4.396811485,8.507430273
12.90871181,-4.831109047,-5.237290382,4.205385685,8.273698927
12.91103019,-4.842474937,-5.098506927,3.999004841,8.089275377
12.91333566,-4.878965378,-4.95015192,3.945166349,7.992036331
12.91566696,-4.92143774,-4.807180882,3.881756544,7.899213336
12.91798535,-4.992624283,-4.66899538,4.051646709,7.946172421
12.92029082,-5.222335339,-4.539782524,4.28255415,8.137731981
12.92262207,-5.401797295,-4.332205296,4.646861553,8.339109007
12.92494045,-5.710471153,-4.127619267,4.976472855,8.626239254
12.92724592,-6.046662807,-3.971487284,5.330012321,8.985759495
12.92957722,-6.345765591,-3.900899172,5.541777134,9.284236591
12.93189561,-6.574280262,-3.935595036,5.626124382,9.505963644
12.934214,-6.732804775,-4.203591347,5.449653625,9.628061331
12.93653238,-6.731608391,-4.670191765,5.018945694,9.608072571
12.93885077,-6.610770702,-5.120042324,4.475176334,9.483898244
12.9411691,-6.397211552,-5.648856163,3.884747505,9.376841407
12.94348748,-6.026922226,-6.304489613,3.243471146,9.305400898
12.94580587,-5.736194134,-6.859624386,2.754138947,9.35647643
12.94811134,-5.473581791,-7.382455826,2.607578516,9.553021373
12.95044264,-5.139184952,-8.098507881,3.064009428,10.06902208
12.95276103,-4.893322468,-8.754739761,3.748954773,10.70722816
12.9550665,-4.753940582,-9.46002388,4.79521656,11.62265481
12.95739775,-4.633102894,-10.11266708,6.088537216,12.6807714
12.95971613,-4.587040901,-10.83948612,7.539783955,13.97797359
12.9620216,-4.681557655,-11.60279655,8.727222443,15.25471342
12.9643529,-4.823930264,-12.37687492,10.00498962,16.63000762
12.96667129,-5.013561726,-13.14317703,11.10628605,17.92284836
12.96897676,-5.185844898,-13.96630764,12.06939697,19.17344726
12.97130806,-5.249254704,-14.79781342,12.57607746,20.11685068
12.97362644,-5.127220631,-15.63111401,12.58325577,20.71131194
12.97593186,-4.713860512,-16.42014694,11.81037426,20.76840501
12.97826316,-4.006781578,-17.13081551,10.36690426,20.42037812
12.98058155,-3.195016384,-17.70150375,8.541778564,19.91264287
12.98288702,-2.362314224,-18.12682724,6.553342819,19.41928671
12.98521832,-1.695913076,-18.48395729,4.878366947,19.19195827
12.9875367,-1.194616675,-18.66222191,3.629313707,19.04934523
12.98984217,-0.9224331379,-18.61915207,2.825325251,18.85487124
12.99217347,-0.9667003751,-18.23151398,2.288136721,18.39995058
12.99449181,-1.108475089,-17.4436779,1.956132531,17.58798085
12.99679728,-1.281954765,-16.30110359,1.407577872,16.4119061
12.99912858,-1.496710539,-15.0969162,0.4809573591,15.17854872
13.00144696,-1.67437768,-13.79222965,-0.6652047038,13.90940821
13.00375243,-1.802393675,-12.49591827,-2.006979942,12.78376177
13.00608373,-1.95015049,-11.14816093,-3.492324591,11.84402424
13.00840207,-1.983051777,-9.98943615,-4.926821709,11.31348315
13.01070754,-2.008774519,-9.083752632,-5.873781204,11.00231987
13.01303884,-2.124228239,-8.011170387,-6.282954216,10.4003226
13.01535722,-2.268395901,-7.039684296,-6.305685997,9.719282424
13.01766269,-2.526222467,-6.387639999,-6.021538258,9.134695819
13.019994,-2.786442041,-5.921638012,-5.421537876,8.498419202
13.02231238,-3.083750248,-5.538786411,-4.692923546,7.887407807
13.0246178,-3.373281717,-5.298905849,-3.85244441,7.368769279
13.0269491,-3.594617844,-5.100899696,-2.987439156,6.918471498
13.02926748,-3.753740549,-4.905884743,-2.236690998,6.569707744
13.03157295,-3.844667673,-4.758127689,-1.532602906,6.306355548
13.03390426,-3.870988846,-4.657031059,-0.9182456732,6.125003514
13.03622264,-3.853042603,-4.5930233,-0.394217521,6.008095188
13.03852811,-3.68075943,-4.67976284,-0.1010967568,5.954694852
13.04085941,-3.418745279,-4.893920422,0.03708875179,5.969895473
13.04317775,-3.034099102,-5.063212872,0.1848455518,5.90559479
13.04548321,-2.558525562,-5.167300701,0.09870393574,5.766870213
13.04781452,-1.979462504,-5.442475319,-0.457029134,5.809275775
13.0501329,-1.369890928,-5.703292847,-1.237089276,5.994542545
13.05243837,-0.6586244106,-6.023931026,-2.11046958,6.416822654
13.05476967,0.08135596663,-6.479763508,-3.050250769,7.162261072
13.05708806,0.7280163169,-6.989434719,-4.161716938,8.167134952
13.05939347,1.387238979,-7.610372543,-5.257629395,9.353334651
13.06172478,2.099701881,-8.474181175,-6.247061729,10.73528178
13.06404316,2.727817774,-9.421140671,-7.155138016,12.14062936
13.06634863,3.208775282,-10.1270237,-7.746763229,13.14782067
13.06867993,3.549752474,-10.65224838,-8.136195183,13.86610292
13.07099832,3.922434568,-11.32642555,-8.423334122,14.65011831
13.07330379,4.267599106,-12.06820107,-8.525029182,15.37953191
13.07563504,4.450650215,-12.71127224,-8.437690735,15.89274533
13.07795342,4.523631096,-13.1898365,-8.280961037,16.21756273
13.08025889,4.52482748,-13.49193001,-8.011768341,16.33078905
13.08259019,4.554738045,-13.86939812,-7.536194801,16.42863582
13.08490858,4.519443989,-14.14337635,-6.985845566,16.40922018
13.08721405,4.501497746,-14.35932827,-6.454638958,16.37425279
13.08954535,4.439284325,-14.56092358,-5.776872158,16.28189156
13.09186368,4.300500393,-14.88933849,-5.231906891,16.35724775
13.09416915,4.156930923,-15.16152287,-4.864010334,16.45631936
13.09650045,3.975076675,-15.31825256,-4.291527271,16.39717361
13.09881884,3.760320902,-15.29851151,-3.750151396,16.19407617
13.10112431,3.573680639,-15.23988724,-3.256033421,15.98834294
13.10345561,3.436691523,-15.08734512,-2.657229662,15.70030894
13.105774,3.278765202,-14.83131313,-2.2259233,15.35164112
13.10807941,3.145365477,-14.6321106,-1.733001828,15.06636253
13.11041071,2.911466837,-14.33001614,-1.512862086,14.70084192
13.1127291,2.738585472,-13.97288799,-1.345364571,14.30214862
13.11503457,2.545365095,-13.53081417,-1.288534999,13.8283093
13.11736587,2.285145521,-13.08096313,-1.19880414,13.33306484
13.11968426,2.009970903,-12.64008522,-1.02711916,12.84004327
13.12198972,1.815554142,-12.23151112,-0.7411768436,12.38771343
13.12432103,1.615753531,-11.94317627,-0.5976074338,12.06678306
13.12663936,1.336391449,-11.62253761,-0.6687939167,11.71821693
13.12894483,1.03549397,-11.39940739,-0.7351947427,11.46992798
13.13127613,0.7651050687,-11.26660538,-0.7716853023,11.31889044
13.13359452,0.500099957,-11.11944675,-0.9134600163,11.16810661
13.13589998,0.2518445849,-10.91426182,-0.9984052777,10.96272547
13.13823129,0.05024927482,-10.64985561,-1.092323542,10.70584515
13.14054967,-0.1507478207,-10.34776115,-1.397408366,10.44277913
13.14285509,-0.3230310678,-10.04028416,-1.673181176,10.18386912
13.14518639,-0.4935196638,-9.72323513,-1.767697692,9.894928913
13.14750478,-0.6352944374,-9.385248184,-1.847259045,9.586388709
13.14981025,-0.7956135273,-9.114859581,-1.779063582,9.320876209
13.15214155,-1.033101201,-8.981459618,-1.730010748,9.204719015
13.15445993,-1.192223907,-8.908478737,-1.688734531,9.145174442
13.15676535,-1.372283816,-8.974879265,-1.609173179,9.220686472
13.15909665,-1.546959877,-9.127422333,-1.437488198,9.368526865
13.16141504,-1.737189293,-9.232108116,-1.156929731,9.465100808
13.1637205,-2.015953064,-9.10349369,-0.6693921089,9.348034549
13.16605181,-2.353341103,-8.855237961,0.1657029688,9.164109949
13.16837019,-2.787638426,-8.758329391,1.05822587,9.251978368
13.17067566,-3.16869545,-8.746963501,1.607976794,9.44116469
13.17300691,-3.44985199,-8.854042053,1.916052699,9.693647269
13.1753253,-3.583251953,-9.053842545,1.939980984,9.92850873
13.17763077,-3.552743435,-9.230911255,1.731805444,10.041457
13.17996207,-3.486342669,-9.359525681,1.557129383,10.10841026
13.18228045,-3.507279873,-9.393623352,1.332802176,10.11521297
13.18459884,-3.381656647,-9.372088432,1.042672515,10.0179244
13.18691722,-2.992822886,-9.397212982,0.7507480979,9.890815101
13.18923556,-2.558525562,-9.296115875,0.4438686073,9.651986467
13.19155394,-2.127219439,-9.080761909,0.04546362907,9.326701793
13.19387233,-1.646860242,-8.748159409,-0.3158525825,8.907424125
13.19619071,-1.256231904,-8.441878319,-0.6005984545,8.555942184
13.19849618,-0.9230313301,-8.193622589,-0.7280163169,8.277526546
13.20082748,-0.4480560422,-7.914260864,-0.7734799385,7.964580997
13.20314587,0.1208375469,-7.713861942,-0.994217813,7.778607641
13.20545129,0.6843472719,-7.475776196,-1.277767301,7.615001654
13.20778259,1.317248821,-7.158128738,-1.469791293,7.425243292
13.21010097,1.840678811,-6.896114826,-1.567298889,7.307593584
13.21240644,2.218744755,-6.561119556,-1.647458434,7.119356531
13.21473774,2.482553482,-6.24766016,-1.661815286,6.92516854
13.21705613,2.563909531,-5.880959988,-1.720439434,6.642231124
13.2193616,2.589632273,-5.544169903,-1.846660852,6.391726803
13.22169285,2.647060156,-5.211567879,-1.762912035,6.105344058
13.22401123,2.580659151,-5.208576679,-1.782652855,6.080043082
13.2263167,2.517847538,-5.41136837,-1.624128342,6.18548759
13.228648,2.428116798,-5.662614822,-1.551745534,6.353650291
13.23096639,2.3216362,-5.972485542,-1.517049551,6.584984247
13.23328478,2.276172638,-6.276373863,-1.386640668,6.81884177
13.23560316,2.191825628,-6.623332977,-1.021735311,7.050998678
13.2379215,2.060220242,-7.009773731,-0.6149554253,7.332094202
13.24023988,1.825723648,-7.466204643,-0.2512463629,7.6902928
13.24255827,1.498505235,-7.813762188,0.05383851007,7.956336849
13.24487665,1.171884894,-8.137989998,0.2584248483,8.225994093
13.24718212,0.9134600163,-8.326424599,0.3912265003,8.385512147
13.24951342,0.6951149702,-8.423334122,0.470787853,8.465068443
13.25183181,0.513858676,-8.456234932,0.5790630579,8.491600202
13.25415019,0.328414917,-8.489136696,0.6442674994,8.519881385
13.25646853,0.0765703246,-8.542975426,0.7573283911,8.576819832
13.25878691,-0.111864455,-8.642875671,0.7704889178,8.677872245
13.2611053,-0.3469592929,-8.74935627,0.7310073376,8.786693782
13.26342368,-0.5898307562,-8.947361946,0.6681957245,8.991644546
13.26574207,-0.8063812256,-9.062815666,0.6388836503,9.121022465
13.26804754,-1.039681435,-9.0921278,0.6939185858,9.177649395
13.27037879,-1.259222865,-8.962915421,0.9056833982,9.096139702
13.27269717,-1.475175142,-8.794221878,1.179661512,8.994780788
13.27500264,-1.664806366,-8.740981102,1.401595831,9.007818922
13.27733394,-1.779661894,-8.819944382,1.677966833,9.152824048
13.27965233,-1.898106575,-8.937192917,1.944766641,9.341217431
13.2819578,-2.001596212,-9.020941734,2.077568293,9.471011941
13.2842891,-2.078166485,-9.056235313,2.263610125,9.563373086
13.28660743,-2.158924341,-9.091529846,2.325225353,9.629306424
13.28892582,-2.203191519,-9.077771187,2.410768747,9.647372105
13.2912442,-2.295315027,-9.008378983,2.428714991,9.608226656
13.29356259,-2.270190477,-8.892327309,2.446661234,9.498073539
13.29588097,-2.224128723,-8.81456089,2.408375978,9.404440819
13.29819936,-2.168495417,-8.688937187,2.164308071,9.213263876
13.30051774,-2.088335991,-8.524430275,1.797009826,8.958588228
13.30283608,-1.946561217,-8.353343964,1.396211982,8.69004395
13.30515446,-1.774876237,-8.230113029,0.9768698215,8.475802073
13.30747285,-1.563709617,-8.154141426,0.5060819983,8.318132552
13.30977832,-1.361516118,-8.078168869,0.102293171,8.19274083
13.31210962,-1.124626637,-8.09671402,-0.2679961324,8.178837626
13.31442801,-0.8931210637,-8.120641708,-0.5473581553,8.187923298
13.31673347,-0.6957131624,-8.121239662,-0.7597211599,8.186313376
13.31906472,-0.5048855543,-8.09312439,-0.8775677085,8.156206035
13.32138311,-0.3690928817,-8.13320446,-0.9619147182,8.198202502
13.3237015,-0.2787638307,-8.15473938,-0.822532773,8.200856284
13.32601988,-0.2404786795,-8.211568832,-0.717248559,8.246340896
13.32833827,-0.2063809484,-8.267800331,-0.5593222976,8.28926757
13.33065665,-0.2171486616,-8.267800331,-0.4019941986,8.280415158
13.33297504,-0.2219343036,-8.339585304,-0.2009970993,8.344958821
13.33529337,-0.2937189937,-8.346165657,-0.1351944804,8.352426568
13.33761176,-0.3326023519,-8.351549149,-0.01555334684,8.358183978
13.33993014,-0.4121637046,-8.444869041,0.0747757107,8.455251827
13.34224853,-0.4761717021,-8.547162056,0.04187439755,8.560518218
13.34456691,-0.5060819983,-8.625527382,-0.1345962733,8.641409478
13.3468853,-0.4959124923,-8.764909744,-0.3672982752,8.786607994
13.34920368,-0.4887340367,-8.971290588,-0.6089733839,9.005207625
13.35152202,-0.3918247223,-9.296115875,-0.8679963946,9.344769378
13.3538404,-0.1980060786,-9.743574142,-1.043868899,9.801331836
13.35615879,0.04307080805,-10.17966557,-1.100698471,10.23909094
13.35846426,0.366700083,-10.53679466,-1.095314622,10.59991627
13.36079556,0.732203722,-10.86939716,-0.9373882413,10.93428615
13.36311394,1.149751306,-11.18106174,-0.8069794178,11.26895228
13.36541941,1.552941918,-11.37727356,-0.5593222976,11.49638307
13.36775066,1.936989903,-11.52144146,-0.2829512656,11.68655658
13.37006905,2.25104785,-11.59023476,0.04067798331,11.80687989
13.37237452,2.530410051,-11.60698414,0.3290131092,11.88416196
13.37470582,2.684148788,-11.55015469,0.5395814776,11.87020961
13.3770242,2.799602509,-11.44666576,0.7118647099,11.8055361
13.37932967,2.881556749,-11.34855938,0.8835497499,11.74196872
13.38166097,2.959921598,-11.27438164,1.021735311,11.70114354
13.38397931,2.965305567,-11.12542915,1.08335042,11.56468154
13.38629769,2.965903759,-10.97169018,1.134796143,11.42201089
13.38861608,2.976073265,-10.82213879,1.167099237,11.28440608
13.39093446,2.947359324,-10.66481018,1.132403374,11.12238466
13.39325285,2.939582586,-10.53978539,1.112064362,10.99840483
13.39557123,2.94377017,-10.48654556,1.054636598,10.94283688
13.39788962,2.915654421,-10.50688457,1.001396298,10.94981547
13.40020795,2.814557552,-10.61934662,0.9110672474,11.02371536
13.40252634,2.724228621,-10.74736309,0.7345965505,11.11156456
13.40484472,2.565105915,-10.77547836,0.4283152521,11.08486158
13.40716311,2.414956331,-10.942976,0.03230310604,11.20632773
13.4094815,2.221735716,-11.26540947,-0.3535395563,11.48784359
13.41179988,1.986641049,-11.46820068,-0.7357929349,11.66223653
13.41410535,1.776670814,-11.74277687,-1.102493048,11.92748334
13.41643665,1.633699656,-12.02572823,-1.364507079,12.2126571
13.41875498,1.488335729,-12.24048424,-1.579262972,12.4313583
13.42106045,1.344766378,-12.36431313,-1.707877159,12.55394281
13.42339176,1.228116274,-12.43908882,-1.785045743,12.62638462
13.42571014,1.220339537,-12.50189972,-1.803590059,12.69014036
13.42802853,1.177866936,-12.53121185,-1.77009058,12.71030533
13.43034691,1.20717907,-12.58325577,-1.669592023,12.75080956
13.43266524,1.197607756,-12.62154102,-1.564307809,12.77437361
13.43498363,1.1395818,-12.43071365,-1.456630826,12.56754001
13.43730202,1.079162955,-12.32662582,-1.377069473,12.45016535
13.4396204,1.056431174,-12.22612762,-1.296909928,12.34002508
13.44193879,1.021137118,-12.19322586,-1.130010486,12.28797793
13.44425717,0.985244751,-12.13579845,-1.001994491,12.21688603
13.44657556,0.9290133715,-12.04606724,-0.8171489239,12.10943988
13.44889389,0.865005374,-11.99462128,-0.708275497,12.04661065
13.45121228,0.7902296782,-11.89531994,-0.6047859192,11.93687
13.45353066,0.6765705943,-11.82054424,-0.4731806815,11.84934234
13.45584905,0.5916253924,-11.71167088,-0.3026920557,11.73051055
13.45816743,0.5443671346,-11.62552929,-0.0652044192,11.63845
13.46048582,0.4079762697,-11.57587814,0.1764706671,11.58440941
13.46280415,0.2973082066,-11.44786167,0.4462614357,11.46041353
13.46512254,0.204586342,-11.42094231,0.6598208547,11.44181552
13.46744092,0.08733802289,-11.37547874,0.8871390224,11.4103532
13.46975931,0.02333002165,-11.36231804,1.077966571,11.41336179
13.47207769,-0.06879365444,-11.35454178,1.205982566,11.41861399
13.47439608,-0.04785645381,-11.4640131,1.3310076,11.54112074
13.47671446,0.04187439755,-11.64885902,1.442872047,11.73795339
13.4790328,0.2297109663,-11.93300629,1.541576028,12.03436175
13.48135118,0.3954139352,-12.24586773,1.536192179,12.34817861
13.48366957,0.6107679605,-12.61077309,1.440479279,12.707463
13.48598795,0.8464609981,-12.99003601,1.259222865,13.07834753
13.48830634,1.100698471,-13.34477234,1.082752228,13.43379463
13.49061181,1.350150228,-13.71326637,0.8919246197,13.80840721
13.49294311,1.599003673,-14.06860065,0.7345965505,14.17822165
13.4952615,1.909472466,-14.40239906,0.6155536175,14.54146107
13.49756691,2.222932339,-14.68774319,0.5156532526,14.86395393
13.49989821,2.483151674,-14.95095444,0.3912265003,15.16080931
13.5022166,2.719442844,-15.18126297,0.2566302419,15.42504372
13.50452207,2.860619545,-15.28834248,0.2063809484,15.55503626
13.50685337,2.947359324,-15.2913332,0.1351944804,15.57337714
13.50917176,3.025724173,-15.16451359,0.1112662554,15.46382421
13.51149014,3.03948307,-14.9527483,0.08135596663,15.25876004
13.51380847,2.959921598,-14.65663719,0.1501496136,14.95328374
13.51612686,2.830111027,-14.29472256,0.2225325108,14.57388562
13.51844524,2.679363251,-13.86580944,0.327816695,14.12611492
13.52076363,2.513062,-13.54756355,0.4576273263,13.78627512
13.52308202,2.312663078,-13.22094345,0.6346961856,13.43668841
13.5254004,2.088934183,-12.92842102,0.7734799385,13.11891716
13.52771873,1.898106575,-12.59103298,0.8931210637,12.76458324
13.53003712,1.700100541,-12.36550903,0.9756734371,12.51990791
13.53234259,1.532602906,-12.19621658,1.140179992,12.34490101
13.53467389,1.380060434,-12.06521034,1.295115232,12.21274707
13.53699228,1.226321578,-12.05862999,1.465603828,12.20911202
13.53931066,1.136590719,-12.15194988,1.613360643,12.31115986
13.54162905,1.08335042,-12.34457207,1.780858278,12.51932761
13.54394743,0.9936196208,-12.57727432,1.825125456,12.74779166
13.54626577,0.888933599,-12.77169132,1.863410592,12.93748821
13.54858415,0.7980063558,-12.96610737,1.892722726,13.1278008
13.55090254,0.6460621357,-13.04626751,2.00638175,13.21544778
13.55322092,0.4695914388,-13.06481171,2.081157446,13.23786378
13.55553931,0.2380858511,-12.99781227,2.222334146,13.18857755
13.55785769,-0.02033899166,-13.00858021,2.377269268,13.22403047
13.56017608,-0.3020938635,-13.02473164,2.441875458,13.25509904
13.56249446,-0.6323033571,-13.00319672,2.510071039,13.25833281
13.5648128,-0.9260223508,-12.96191978,2.721835852,13.27694514
13.56711827,-1.210170031,-12.92004585,2.938386202,13.30511968
13.56944957,-1.510469317,-13.10010624,2.956332445,13.51422223
13.57176795,-1.7138592,-13.23410416,3.074777126,13.69427182
13.57407342,-1.951945066,-13.43151188,3.074178934,13.91639957
13.57640472,-2.100898266,-13.71865082,2.97427845,14.19371291
13.57872306,-2.269592285,-13.96750355,2.817548752,14.42847135
13.58102853,-2.396411896,-14.19242954,2.746362209,14.65299804
13.58335983,-2.499901533,-14.39641762,2.64227438,14.84883705
13.58567821,-2.593221426,-14.59083462,2.385644197,15.01028149
13.58798368,-2.710469961,-14.76251888,2.036890268,15.14686546
13.59031498,-2.787638426,-14.95693588,1.565504193,15.29482469
13.59263337,-2.801397085,-15.16092396,0.9846464992,15.44897957
13.59493879,-2.730808735,-15.46301842,0.2488535494,15.70427276
13.59727009,-2.616551638,-15.69213104,-0.7076773047,15.92451338
13.59958847,-2.430509567,-15.90569019,-1.844268084,16.19566862
13.60189394,-2.243271112,-16.1389904,-3.023929596,16.57236937
13.60422524,-2.024327993,-16.34297943,-4.118047714,16.97495795
13.60654363,-1.801795483,-16.55055618,-5.092525005,17.40980149
13.60884905,-1.591227055,-16.70070648,-5.862415314,17.77114273
13.6111804,-1.404586911,-16.88435555,-6.474380016,18.13758317
13.61349873,-1.24366951,-17.08774376,-6.853642464,18.45291618
13.6158042,-1.158724308,-17.18226051,-7.076174736,18.61840399
13.61813551,-1.146760225,-17.23490334,-7.223333359,18.72253981
13.62045389,-1.185045362,-17.20738602,-7.25743103,18.71279699
13.62275936,-1.284347534,-17.12782478,-7.039684296,18.56257216
13.62509066,-1.440479279,-16.94297981,-6.612565517,18.24460381
13.627409,-1.645663738,-16.76471329,-5.976672649,17.87412758
13.62972738,-1.899901152,-16.57209206,-5.269593716,17.49321232
13.63204577,-2.200798512,-16.42912102,-4.471587181,17.16841936
13.63436415,-2.569891453,-16.25803375,-3.541377544,16.83654829
13.63666962,-2.970091105,-16.07318878,-2.45383954,16.52846536
13.63900092,-3.361317635,-16.05643845,-1.260419369,16.45285169
13.64131931,-3.719642878,-16.21137428,-0.007178467698,16.63263211
13.64362472,-4.048655987,-16.44766426,1.27477622,16.98653376
13.64595603,-4.316053867,-16.61037636,2.475374937,17.33956184
13.64827441,-4.469194412,-16.79402542,3.748954773,17.77829155
13.65057988,-4.509872437,-16.99442482,4.770689964,18.2183673
13.65291118,-4.508676052,-17.00818253,5.224130154,18.35478053
13.65522957,-4.399204254,-17.03390694,5.315655708,18.37833451
13.65753504,-4.265206337,-17.00220108,5.154737949,18.27123833
13.65986629,-4.000799656,-16.9920311,4.870590687,18.12341503
13.66218467,-3.735196114,-16.95314789,4.395615101,17.9076058
13.66449014,-3.472583771,-16.87179184,3.453441381,17.56822288
13.66682144,-3.297309637,-16.79821396,2.156531334,17.25406823
13.66913983,-3.131606579,-16.72941971,0.8548358679,17.04145498
13.6714453,-3.087937593,-16.60080528,-0.261415869,16.88758221
13.6737766,-3.118446112,-16.46860123,-1.059422255,16.79469881
13.67609498,-3.1405797,-16.28315735,-1.914856315,16.69344568
13.6784004,-3.231507063,-16.07976723,-2.537588358,16.59641246
13.6807317,-3.412165165,-15.87877083,-3.236292601,16.56055023
13.68305009,-3.607778311,-15.61137295,-4.108476639,16.54117922
13.68535556,-3.772284985,-15.2853508,-4.866403103,16.47889445
13.68768686,-3.951746702,-14.95932865,-5.64227581,16.46915578
13.69000524,-4.127020836,-14.60937881,-6.343372822,16.45310393
13.69231066,-4.28255415,-14.23430347,-6.647859573,16.28341802
13.69464196,-4.390829563,-13.95314693,-6.540780544,16.02346728
13.69696035,-4.46620369,-13.68574905,-6.300302029,15.71434085
13.69926582,-4.468596458,-13.25683594,-5.621338367,15.07685307
13.70159712,-4.382454872,-12.83031464,-4.603192329,14.31824933
13.70391551,-4.229912281,-12.51685524,-3.206382275,13.59576075
13.70622097,-3.943371773,-12.22911835,-1.808375716,12.97581362
13.70855228,-3.696312666,-11.9718895,-0.6771687865,12.5478055
13.71087061,-3.335594654,-11.77866936,0.0783649385,12.2421152
13.71317608,-2.926422119,-11.42213917,0.8422735929,11.82110969
13.71550738,-2.63689065,-11.07398319,1.176670551,11.44424963
13.71782577,-2.419741869,-10.89691448,0.8620143533,11.19557791
13.72013123,-2.172084808,-10.60798073,0.4899304509,10.83915308
13.72246254,-1.847259045,-10.31186962,0.6669993401,10.49723341
13.72478092,-1.59003067,-10.03190899,0.9583254457,10.20224403
13.72708634,-1.357926846,-9.805189133,1.08335042,9.957878659
13.72941764,-1.261615753,-9.649655342,1.082752228,9.791826945
13.73173603,-0.9020941257,-9.607182503,1.281356573,9.734146296
13.7340415,-0.5324030519,-9.603593826,0.9690931439,9.667037235
13.7363728,-0.2261217386,-9.635896683,0.4097708762,9.647255988
13.73869118,0.03290131316,-9.635896683,-0.4133601189,9.644814875
13.74099665,0.185443759,-9.537791252,-1.347757339,9.634329307
13.7433279,0.3092723191,-9.440283775,-2.219941139,9.702718474
13.74564629,0.4157529473,-9.420542717,-3.130410194,9.935740716
13.74795176,0.3020938635,-8.973683357,-4.122235298,9.879831858
13.75028306,0.2123630047,-8.284550667,-4.652843475,9.504095444
13.75260144,0.03050848842,-7.622336388,-4.96450901,9.09655388
13.75490691,-0.2021935135,-7.027719975,-5.218746185,8.755857582
13.75723821,-0.3649054468,-6.517450809,-5.042873859,8.248690672
13.75955655,-0.3816552162,-5.958726406,-4.107280254,7.24719478
13.76186202,-0.4307080805,-5.367699623,-2.981456995,6.155224976
13.76419332,-0.4857429862,-5.007579803,-2.612962246,5.669159853
13.7665117,-0.5509474277,-4.874777794,-2.623729944,5.563358736
13.76881717,-0.6424728632,-4.757529736,-2.901895761,5.609622053
13.77114847,-0.7310073376,-4.669593334,-3.447459221,5.850166554
13.77346686,-0.77108711,-4.540979385,-3.615555048,5.855536475
13.77577228,-0.6999006271,-4.337589264,-3.678366661,5.730176507
13.77810358,-0.589232564,-4.138985157,-3.874577999,5.700065597
13.78042196,-0.5174478889,-3.877569199,-4.12821722,5.68730803
13.78272743,-0.446859628,-3.497110367,-4.087539196,5.397910811
13.78505873,-0.2949153781,-3.156731367,-3.860221148,4.995321342
13.78737712,-0.228514567,-2.818745136,-3.690330744,4.649310062
13.78968259,-0.1842473447,-2.519642353,-3.6299119,4.422533784
13.79201389,-0.08195417374,-2.310270309,-3.387040377,4.100744799
13.79433222,-0.007178467698,-2.178664923,-3.048455954,3.746960912
13.79663769,0.1142572835,-2.165504456,-2.747558594,3.50022035
13.798969,0.2404786795,-2.128415823,-2.589034081,3.360220436
13.80128738,0.3266202807,-2.107478619,-2.660220623,3.409533795
13.80359285,0.4456632137,-2.05722928,-2.797807932,3.501219393
13.80592415,0.4019941986,-2.01475668,-2.860021353,3.521443731
13.80824254,0.2470589429,-1.638485312,-2.602194548,3.08497791
13.81054795,0.1842473447,-1.32263267,-2.304288149,2.663277706
13.81287926,0.2255235314,-1.176670551,-1.980658889,2.314827009
13.81519764,0.1866401732,-1.071386337,-1.619342685,1.950634248
13.81750311,0.06221338734,-0.9493523836,-1.411765337,1.702416465
13.81983441,-0.07178468257,-0.8129615188,-1.199402332,1.450732721
13.8221528,-0.1800599098,-0.7429714203,-0.9900303483,1.250834998
13.82445827,-0.2650051117,-0.6628118753,-0.7058826685,1.003901207
13.82678952,-0.4085744619,-0.5353940725,-0.4743770957,0.8237800269
13.8291079,-0.5132604837,-0.4414757788,-0.3086741269,0.744054369
13.83141337,-0.6167500615,-0.3337987661,-0.1866401732,0.7256974638
13.83374467,-0.6777670383,-0.2291127741,-0.07357929647,0.719218141
13.83606306,-0.7776673436,-0.09690931439,0.04905286431,0.785215955
13.83838144,-0.8338986635,0.02691925503,0.1573280841,0.8490369564
13.84069983,-0.8949156404,0.1262213886,0.2751746178,0.9447364249
13.84301821,-1.136590719,0.2452643216,0.2817548811,1.196402467
13.84533655,-1.210170031,0.3014956415,0.3906283081,1.306905352
13.84765493,-1.290927768,0.285344094,0.4283152521,1.38973728
13.84997332,-1.348355532,0.2793620527,0.484546572,1.459757232
13.8522917,-1.47756803,0.2667997181,0.5647061467,1.604145382
13.85461009,-1.673779488,0.2673979402,0.5868397355,1.793716897
13.85692847,-1.837687731,0.2243271172,0.366700083,1.887296427
13.85924686,-1.953141451,0.1256231815,0.2135594189,1.968794133
13.86156519,-2.00099802,-0.03409772366,0.1573280841,2.00746304
13.86388358,-2.01475668,-0.2315055877,0.1106680483,2.031030953
13.86620196,-2.105085611,-0.4109672904,0.06819544733,2.145910102
13.86852035,-2.204986095,-0.5964110494,0.06400800496,2.285118563
13.87083873,-2.244467735,-0.769890666,0.1698904037,2.378913576
13.87315712,-2.306680918,-0.9589236975,0.2087737769,2.506770433
13.8754755,-2.368894339,-1.142572761,0.2859423161,2.645542649
13.87779389,-2.449652195,-1.369890928,0.4061816335,2.835909122
13.88011222,-2.489133835,-1.576870084,0.6215356588,3.011413802
13.88243061,-2.54656148,-1.822732687,0.8231309652,3.238035578
13.884749,-2.594418049,-2.073380709,1.111466169,3.502180695
13.88706738,-2.596810818,-2.274377823,1.499103427,3.763446823
13.88938577,-2.57228446,-2.464607239,2.044068813,4.107207506
13.89170415,-2.53818655,-2.678765059,2.64227438,4.538698833
13.89400957,-2.526222467,-2.801995277,3.306880951,5.016815635
13.89634087,-2.51844573,-2.954537868,4.056432724,5.614847225
13.89865926,-2.491526604,-3.139383316,4.87417984,6.310393136
13.90096472,-2.416750908,-3.342773199,5.734997749,7.064348292
13.90329603,-2.341975212,-3.555136204,6.647859573,7.894167355
13.90561441,-2.32701993,-3.82731986,7.494320393,8.730878376
13.90791988,-2.362314224,-4.023531437,8.334799767,9.551870019
13.91025118,-2.455035925,-4.216153622,9.256035805,10.46314253
13.91256952,-2.605783939,-4.386044025,10.23888779,11.43950677
13.91487498,-2.891726255,-4.539782524,11.21097183,12.4361407
13.91720629,-3.043072224,-4.877170563,12.19861031,13.48529476
13.91952467,-3.312264681,-5.257031441,13.10070419,14.49951472
13.92183014,-3.763910055,-5.669793129,13.72523022,15.31977537
13.92416144,-4.37348175,-6.178267956,14.04766369,15.95729277
13.92647983,-4.965705395,-6.672984123,13.86461258,16.16831559
13.9287853,-5.319842815,-7.223931789,13.49372482,16.2039047
13.93111655,-5.535795212,-7.922037601,12.92901897,16.14197138
13.93343493,-5.640480995,-8.554341316,12.55573845,16.20612073
13.9357404,-5.717051506,-9.080761909,11.92941761,16.04543297
13.9380717,-5.697908878,-9.479764938,11.43649578,15.90991969
13.94039009,-5.611168861,-9.890732765,11.46879864,16.15070131
13.94269556,-5.410171986,-10.11625576,11.48195934,16.23095752
13.94502686,-5.050650597,-10.35793114,11.44367409,16.24048908
13.94734519,-4.645665169,-10.69472122,11.44487095,16.33843132
13.94965066,-4.259224415,-10.90110207,11.4640131,16.38287567
13.95198196,-3.927220106,-11.1433754,11.28275681,16.3370277
13.95430035,-3.746562004,-11.52383423,10.91964626,16.31177969
13.95660582,-3.627519131,-11.88754272,10.30827999,16.14723516
13.95893712,-3.364308596,-12.30030441,9.702896118,16.02380273
13.9612555,-3.327818155,-12.57906818,9.037691116,15.84257526
13.96356097,-3.303291559,-12.76211929,8.323433876,15.59047708
13.96589222,-3.305086374,-12.81177044,7.55593586,15.23670648
13.96821061,-3.329612732,-12.76032448,6.868597507,14.86908987
13.97051608,-3.367897987,-12.5994072,6.303891182,14.48540102
13.97284738,-3.480360508,-12.3050909,5.728417397,14.01224241
13.97516577,-3.649652719,-11.89771271,5.227719307,13.49831774
13.97747123,-3.764508247,-11.41555882,4.908277512,12.98374728
13.97980254,-3.914059639,-10.93938732,4.750949383,12.55235348
13.98212087,-4.174877167,-10.45005512,4.764708042,12.22029845
13.98442634,-4.438685894,-10.05284595,4.868795872,12.01943499
13.98675764,-4.546362877,-9.666405678,5.117649555,11.84479426
13.98907603,-4.599603176,-9.34038353,5.362913609,11.71153091
13.9913815,-4.519443989,-9.011369705,5.562116146,11.51378712
13.9937128,-4.481756687,-8.669196129,5.707480431,11.30559319
13.99603118,-4.418945312,-8.369495392,5.839683533,11.12103568
13.9983366,-4.302295208,-8.112266541,5.938985825,10.93572883
14.0006679,-4.089931965,-7.838288784,5.881557941,10.61880588
14.00298629,-3.842873096,-7.616952896,5.843871117,10.34100936
14.00529176,-3.558127165,-7.412964344,6.021538258,10.19172371
14.00762306,-3.270988464,-7.160521984,6.279364586,10.06989872
14.00994144,-2.986242771,-6.865008354,6.66640377,10.02431668
14.01224691,-2.80259347,-6.5288167,7.061219692,10.01702557
14.01457821,-2.67338109,-6.199205399,7.15573597,9.837767597
14.01689655,-2.528017044,-5.883352757,7.068996429,9.538103604
14.01920202,-2.388635159,-5.510670662,6.90030241,9.148073153
14.02153332,-2.239681959,-5.166702271,6.865606308,8.879613596
14.0238517,-2.371885538,-4.909473896,7.09172821,8.945467229
14.02615717,-2.80259347,-4.673780918,7.577471256,9.333639637
14.02848847,-3.412165165,-4.442873478,7.951947689,9.727048263
14.03080686,-4.08873558,-4.194019794,8.21635437,10.09039344
14.03311228,-4.810171604,-3.95653224,8.251050949,10.33787889
14.03544358,-5.59142828,-3.879363775,7.809575081,10.35871597
14.03776196,-6.200999737,-4.054039955,7.056434155,10.23136847
14.04006743,-6.594020844,-4.439284325,6.1399827,10.04428911
14.04239873,-6.842874527,-4.932205677,4.891527653,9.750827012
14.04471712,-6.79920578,-5.505286694,3.665206194,9.485310604
14.04702259,-6.726224422,-6.105287075,2.434697151,9.404486986
14.04935384,-6.570691109,-6.675376892,1.496112347,9.485409345
14.05167222,-6.183053493,-7.171887875,0.5437689424,9.484820022
14.05397769,-5.827121258,-7.569096088,-0.2751746178,9.556269085
14.056309,-5.469992638,-7.796414375,-0.7280163169,9.551696411
14.05862738,-5.47597456,-7.907082558,-0.756131947,9.647797027
14.06093285,-5.280959606,-8.535198212,0.1471585929,10.03791804
14.06326415,-5.486144066,-9.166903496,1.041476011,10.73380495
14.06558254,-5.977869034,-9.911071777,2.388036966,11.81807863
14.06788795,-6.803991318,-10.90289593,3.90030098,13.43055417
14.07021926,-7.852047443,-12.09571838,5.864808083,15.56782021
14.07253764,-8.933005333,-13.38485146,8.092526436,18.01226851
14.07484311,-10.00379372,-14.9718914,9.982855797,20.58860925
14.07717441,-11.08654594,-16.52243996,11.44487095,22.9540322
14.0794928,-11.97547913,-18.00599098,12.33978653,24.89775378
14.08179827,-12.33679581,-19.52244186,12.37627697,26.20104003
14.08412952,-11.99402332,-20.94736671,11.68355465,26.81705086
14.0864479,-10.95972633,-22.06900406,10.09352398,26.62772555
14.08875337,-9.493523598,-22.714468,8.341380119,25.9933197
14.09108467,-7.869993687,-23.0159626,6.765107632,25.24753486
14.09340306,-6.325426579,-22.827528,5.565705299,24.33277895
14.09570853,-4.787439823,-22.28375816,4.807180882,23.29365678
14.09803983,-3.550350666,-21.26202393,4.228117466,21.96714885
14.10035821,-2.683550596,-19.56611061,3.613162279,20.07707822
14.10266363,-2.188236237,-17.42931938,2.738585472,17.77834082
14.10499493,-2.003988981,-14.91984749,1.314856052,15.11114381
14.10731332,-1.947757602,-12.07478142,-0.694516778,12.25056976
14.10961879,-1.79521513,-9.539586067,-3.063411236,10.17894828
14.11195009,-1.510469317,-7.390830994,-5.638088226,9.417745971
14.11426847,-1.363310695,-6.238687038,-7.581658363,9.912687605
14.11657389,-1.336989641,-5.10149765,-8.639286041,10.12176283
14.11890519,-1.362712502,-3.955335855,-9.18245697,10.0905492
14.12122358,-1.424327731,-3.015554667,-9.290133476,9.870605829
14.12352905,-1.570888042,-2.456232548,-8.937192917,9.400754481
14.12586035,-1.873580098,-2.1302104,-7.945965767,8.437207518
14.12817873,-2.259422779,-1.959721804,-6.733402729,7.367782105
14.1304842,-2.620738983,-1.912463546,-5.19182682,6.122161004
14.13281551,-3.010170937,-1.909472466,-3.668795347,5.115395729
14.13513384,-3.411566973,-1.925624013,-2.226521492,4.506019863
14.13743931,-3.687339783,-2.030309916,-0.7639086246,4.278105821
14.13977061,-3.912863255,-2.143969059,0.3176472187,4.473030509
14.142089,-3.950550079,-2.253440619,1.224527001,4.710021967
14.14439446,-3.75134778,-2.578864574,1.877169371,4.924115911
14.14672577,-3.452843189,-3.110071182,2.060220242,5.083224989
14.14904415,-3.011965513,-3.791427374,1.587637782,5.095826872
14.15134957,-2.375474691,-4.624129772,0.5066801906,5.223234723
14.15368087,-1.621137381,-5.319842815,-0.950548768,5.642017099
14.15599926,-0.7932206988,-5.850451469,-2.575873613,6.441436668
14.15830472,0.1076770201,-6.442675114,-4.137788773,7.657738105
14.16063603,0.9068797827,-7.064808846,-5.428118229,8.955357194
14.16295441,1.661815286,-7.735397339,-6.385247231,10.16707353
14.16525988,2.35274291,-8.411968231,-7.06600523,11.23499171
14.16759113,2.846262455,-9.121439934,-7.490133286,12.14100379
14.16990952,3.285345554,-9.952347755,-7.766504288,13.0445893
14.17221498,3.670589924,-11.00459099,-7.727022648,13.93847668
14.17454629,3.937389612,-12.13161087,-7.60678339,14.85066237
14.17686467,4.086941242,-13.21256828,-7.22094059,15.60182785
14.17917014,4.072584152,-14.13440323,-6.665207386,16.14906455
14.18150144,4.144368649,-14.92822266,-5.815157413,16.54822283
14.18381978,4.193421841,-15.67897034,-4.764110088,16.91483498
14.18612525,3.749552965,-16.1389904,-3.829712629,17.00567133
14.18845655,3.529413462,-16.66122437,-2.640479803,17.23442167
14.19077493,3.521636724,-17.28754616,-1.342971683,17.69363587
14.1930804,3.582055569,-17.95693779,-0.1884347796,18.31169693
14.1954117,3.661616802,-18.53001785,0.6801598072,18.90057186
14.19773009,3.708875179,-18.87338829,1.289133191,19.27751034
14.20003556,3.836292982,-18.87936974,1.490728498,19.32278492
14.20236686,3.982853174,-18.68854332,1.60977149,19.17592592
14.20468519,4.150351048,-18.44447517,1.385444283,18.95635867
14.20699066,4.379463673,-18.01675797,1.207777262,18.58068878
14.20932196,4.581058979,-17.45564079,0.9954141974,18.07419006
14.21164035,4.738985062,-16.8664093,0.7393822074,17.53511985
14.21395873,4.855635166,-16.30768394,0.4265206456,17.02056604
14.21627712,4.919044971,-15.71067524,0.1034895778,16.46308082
14.21859545,4.942973614,-15.08614826,-0.1920240223,15.87645208
14.22090092,4.855037212,-14.51306725,-0.5407779217,15.31316257
14.22323222,4.746163845,-13.93938828,-0.7363911867,14.74363892
14.22555061,4.544568539,-13.2963171,-0.9242277741,14.08188015
14.22785608,4.23230505,-12.78963661,-1.064207911,13.51368748
14.23018738,3.850051641,-12.40020561,-1.132403374,13.03343141
14.23250577,3.42472744,-12.03051376,-1.004985452,12.54878541
14.23481118,3.056232691,-11.68774223,-0.7058826685,12.10132832
14.23714248,2.586641312,-11.35274696,-0.4354937077,11.65183383
14.23946087,2.146361828,-11.02193928,-0.05024927482,11.22909344
14.24176634,1.692323804,-10.72941685,0.2105683982,10.86410074
14.24409764,1.296909928,-10.43031406,0.3810569942,10.51753922
14.24641603,0.8757730722,-10.04207802,0.5461617708,10.09497905
14.2487215,0.5324030519,-9.732806206,0.6885347366,9.771645191
14.2510528,0.2398804724,-9.364311218,0.8644071817,9.407181672
14.25337113,-0.1100698411,-9.127422333,0.9122636318,9.173558674
14.2556766,-0.4085744619,-8.846863747,0.9409775138,8.906142258
14.2580079,-0.7381857634,-8.475378036,0.9493523836,8.560269916
14.26032629,-1.073779106,-8.151748657,0.7202396393,8.253650882
14.26263176,-1.455434322,-7.820342541,0.2949153781,7.960089296
14.26496306,-1.759921074,-7.448856831,0.06041877344,7.65417799
14.26728139,-2.032702923,-7.292127132,-0.2769692242,7.575203709
14.26958686,-2.333600283,-7.165307522,-0.6813562512,7.566476624
14.27191816,-2.483151674,-7.135995388,-1.112064362,7.63709104
14.27423655,-2.542972326,-7.484749317,-1.458425403,8.038357124
14.27654202,-2.460419893,-7.953742504,-1.926222205,8.54552619
14.27887332,-2.508874655,-8.498707771,-2.409572363,9.183056397
14.2811917,-2.601596355,-8.94377327,-3.093919754,9.814872559
14.28349717,-2.842075109,-9.056235313,-3.739383698,10.20175374
14.28582842,-3.074777126,-8.941379547,-3.656233072,10.13758171
14.28814681,-3.159722328,-8.77448082,-3.104687452,9.829264623
14.29045228,-3.252444267,-8.713463783,-2.471785784,9.623542475
14.29278358,-3.287140131,-8.785248756,-2.047059774,9.600850987
14.29510196,-3.211766243,-8.812167168,-1.840678811,9.558129057
14.29742035,-2.955734253,-8.824729919,-1.576271892,9.439113105
14.29973873,-2.560918331,-8.876773834,-1.219741344,9.318969114
14.30205707,-2.142174482,-8.919844627,-0.9720842242,9.22482994
14.30437545,-1.658226132,-8.893523216,-0.7866404653,9.080929045
14.30669384,-1.284347534,-8.80738163,-0.6550351977,8.924605923
14.30901222,-1.047458172,-8.60518837,-0.5353940725,8.685222065
14.31131769,-0.6544370055,-8.538188934,-0.3702892959,8.571235164
14.313649,-0.4642075896,-8.393424034,-0.2027917206,8.4086967
14.31596738,-0.4767699242,-8.268997192,-0.242273286,8.286273015
14.31828571,-0.5389832854,-8.207980156,-0.3810569942,8.234479076
14.3206041,-0.650847733,-8.268997192,-0.5581258535,8.313327962
14.32292248,-0.6400800347,-8.44726181,-0.7286145091,8.502753298
14.32524087,-0.613160789,-8.556734085,-0.70348984,8.607471308
14.32755926,-0.5431707501,-8.67039299,-0.7357929349,8.718494154
14.32987764,-0.3619144261,-8.690134048,-0.6053841114,8.718709868
14.33219603,-0.2380858511,-8.585447311,-0.328414917,8.595024536
14.33451436,-0.09870393574,-8.534002304,-0.05503492057,8.534750532
14.33683274,-0.001794616925,-8.444869041,0.0783649385,8.445232822
14.33915113,-0.004187439568,-8.372486115,0.1160518974,8.373291427
14.34146952,0.08733802289,-8.394021988,0.1076770201,8.395166907
14.3437879,0.1597209126,-8.436494827,0.09930214286,8.438590917
14.34610629,0.1250249892,-8.359924316,0.007776673418,8.360862773
14.34842467,0.08913264424,-8.221738815,-0.09451649338,8.222765176
14.35074301,0.1262213886,-8.144570351,-0.2470589429,8.149294212
14.35306139,0.1692921966,-8.076375008,-0.457029134,8.091067219
14.35537978,0.2225325108,-7.931608677,-0.4432703853,7.947101708
14.35769816,0.1770688742,-7.860422611,-0.3487538993,7.870147794
14.36001655,0.09571290761,-7.708477974,-0.2458625287,7.712991768
14.36233493,-0.02153540403,-7.605587006,-0.2189432681,7.608768207
14.36465332,-0.1615155339,-7.546364307,-0.2159522474,7.551181159
14.3669717,-0.2380858511,-7.562515736,-0.08315058798,7.566719444
14.36929004,-0.3726821244,-7.593622684,0.1166501045,7.603657323
14.37160842,-0.5066801906,-7.630113125,0.2638086975,7.651466927
14.37392681,-0.6747759581,-7.648059368,0.4576273263,7.691395027
14.37624519,-0.8039883971,-7.698906898,0.7052844763,7.772836739
14.37856358,-0.927816987,-7.749754429,0.8805587292,7.854611495
14.38088196,-1.081555843,-7.781459332,1.133001566,7.937541491
14.38320035,-1.180858016,-7.884350777,1.371087432,8.089332084
14.38551868,-1.211366415,-8.038089752,1.515254974,8.268874959
14.38783707,-1.257428288,-8.111070633,1.520040631,8.347521562
14.39015545,-1.344766378,-8.088936806,1.60977149,8.356474108
14.39247384,-1.383051515,-8.109275818,1.700100541,8.400209975
14.39479222,-1.391426325,-8.142775536,1.71924305,8.437811168
