Time (s),Acceleration x (m/s^2),Acceleration y (m/s^2),Acceleration z (m/s^2),Absolute acceleration (m/s^2)
30.00215358,-0.2847459018,-16.38844299,-6.735197544,17.72075139
30.00448488,-0.3906283081,-16.30947876,-6.927819729,17.72417485
30.00680332,-0.4815555513,-16.48953819,-6.960721016,17.90498262
30.00910879,-0.6723831892,-16.50329781,-6.881159782,17.89305166
30.01144014,-0.9086744189,-16.4650135,-6.682555676,17.79266448
30.01375853,-1.1395818,-16.47518158,-6.403193474,17.71245724
30.01606405,-1.390828133,-16.4656105,-5.981458187,17.57351912
30.01839535,-1.706082582,-16.41954803,-5.564508915,17.42056356
30.02071379,-2.039283037,-16.23410606,-5.024927616,17.11592161
30.02301926,-2.322832584,-15.99901009,-4.323232174,16.73482033
30.02535056,-2.62851572,-15.81296825,-3.583251953,16.42555188
30.027669,-2.947957516,-15.55514145,-2.734398127,16.06641877
30.02997446,-3.244069338,-15.30090427,-1.717448473,15.73503374
30.03230582,-3.58504653,-15.12383556,-0.7585247755,15.56143697
30.0346242,-3.944568157,-15.12622833,0.04965107143,15.63217409
30.03692967,-4.266402721,-15.25783348,0.7435696125,15.860535
30.03926103,-4.616951466,-15.31825256,1.271187067,16.0493308
30.04157941,-4.854438782,-15.31286812,1.735992789,16.15744958
30.04388493,-5.024927616,-15.33081436,2.19780755,16.28232553
30.04621623,-5.023731232,-15.51207066,2.670988321,16.5226024
30.04853467,-4.998008251,-15.66939926,2.972483873,16.71364174
30.05084014,-4.934000492,-15.6436758,3.16869545,16.70657309
30.0531715,-4.914259434,-15.50369644,3.229712248,16.58148336
30.05548988,-4.92442894,-15.26441383,3.16570425,16.34851716
30.05779535,-4.955535889,-15.01077461,2.605783939,16.0209488
30.0601267,-4.915455818,-15.0209446,1.819143414,15.9091095
30.06244509,-4.832903385,-15.16989708,0.9667003751,15.95046213
30.06476353,-4.7844491,-15.12204075,0.08973085135,15.8611198
30.06708191,-4.766502857,-14.9647131,-0.8697910309,15.72954939
30.06940035,-4.727619171,-14.72064495,-1.744367719,15.55926057
30.07170582,-4.720440865,-14.44307709,-2.414358139,15.38551796
30.07403712,-4.719842434,-14.07039547,-3.122633457,15.16587554
30.07635556,-4.708476543,-13.59063435,-3.680161238,14.84650397
30.07866103,-4.653441906,-13.16291714,-4.202394962,14.58002169
30.08099238,-4.527220249,-12.78544998,-4.546961308,14.30518478
30.08331077,-4.356133461,-12.53240871,-4.715056896,14.08079999
30.08561629,-4.11386013,-12.30568886,-4.738387108,13.81325942
30.08794759,-3.783650875,-12.18245792,-4.717449665,13.60083183
30.09026603,-3.346960783,-12.10050392,-4.661218643,13.39221046
30.0925715,-2.882753134,-11.98385429,-4.663012981,13.17826694
30.0949028,-2.467000246,-11.83490086,-4.607978344,12.93771359
30.09722123,-2.025524378,-11.65543938,-4.342374802,12.60191394
30.0995267,-1.53918314,-11.3892374,-3.98763895,12.16491175
30.10185806,-1.167099237,-11.14875889,-3.528217077,11.75181948
30.10417644,-0.8279166222,-10.93878841,-3.149552822,11.4132476
30.10648196,-0.4265206456,-10.71266651,-2.780459881,11.07583409
30.10881327,-0.01495514158,-10.52841949,-2.300698996,10.77687601
30.11113165,0.2835494876,-10.42014408,-1.831705689,10.58371148
30.11343717,0.5802595019,-10.35972595,-1.533799291,10.48871599
30.11576847,0.7920243144,-10.31605625,-1.269990563,10.42406807
30.11808691,1.029511929,-10.27537823,-0.6622136831,10.34803457
30.12039238,1.409372568,-10.30469036,-0.3439682424,10.40631004
30.12272373,1.583450437,-10.36331463,-0.4803591371,10.49458671
30.12504212,1.691127419,-10.46261692,-1.083948612,10.65369463
30.12734759,1.833500385,-10.441082,-1.636690736,10.72644739
30.12967894,1.902892232,-10.30528927,-1.832902193,10.63858619
30.13199738,1.955534339,-10.13121128,-1.800000787,10.47404217
30.13430285,2.032702923,-10.11984539,-1.971087694,10.50848888
30.13663415,2.159522533,-10.09412193,-2.437688112,10.60646777
30.13895259,2.322234392,-10.02473068,-3.285943747,10.80210276
30.14125806,2.526222467,-9.786046028,-4.00139761,10.87012786
30.14358941,2.631506681,-9.346364975,-4.237090588,10.59397481
30.1459078,2.642872572,-8.798408508,-3.873979807,9.970179901
30.14821332,2.690130949,-8.431110382,-3.246462107,9.426555204
30.15054462,2.752344131,-8.207381248,-2.803789854,9.099326498
30.152863,2.697309256,-7.96391201,-2.706282377,8.83308191
30.15516853,2.630310297,-7.753942013,-2.732005358,8.631685946
30.15749983,2.482553482,-7.536793232,-2.825325251,8.42311028
30.15981827,2.191227436,-7.308876991,-2.953939438,8.182109676
30.16212373,2.148156643,-7.242475986,-3.097508907,8.164716579
30.16445509,1.992024899,-7.097112179,-3.133401155,8.009704569
30.16677347,1.716850281,-6.844669342,-3.042474031,7.684641925
30.169079,1.302293777,-6.498906136,-2.996412039,7.273942201
30.1714103,0.9637092948,-6.126822472,-3.020938635,6.898750571
30.17372868,0.6981059909,-5.68175745,-2.935993433,6.433488722
30.1760342,0.4474578202,-5.23130846,-2.846262455,5.972270646
30.17836551,0.3601198196,-4.867599487,-2.635095835,5.546795571
30.18068394,0.3726821244,-4.61814785,-2.650649309,5.337801354
30.18298941,0.4001995921,-4.344169617,-2.776870728,5.171361562
30.18532077,0.3511467278,-4.124628067,-2.788236618,4.991004323
30.18763915,0.3367897868,-3.966103554,-2.679961443,4.798499567
30.18994467,0.2949153781,-3.832105398,-2.652443886,4.669846403
30.19227597,0.2793620527,-3.611367464,-2.601596355,4.459632464
30.19459441,0.2117647976,-3.434896946,-2.432304144,4.214198003
30.19689988,0.2231307179,-3.21356082,-2.246860504,3.927485529
30.19923123,0.1214357466,-2.990430117,-2.182852507,3.704357433
30.20154962,-0.02333002165,-2.743371248,-2.124228239,3.469722713
30.20385514,-0.1280160099,-2.587239504,-2.045265198,3.300500883
30.20618644,-0.2877369225,-2.360519648,-1.952543259,3.07689303
30.20850483,-0.4037888348,-2.14696002,-1.783849239,2.820390196
30.21081035,-0.5676971674,-1.972882271,-1.667199135,2.644635605
30.21314165,-0.7375875711,-1.842473388,-1.660020709,2.58735625
30.21546009,-0.8997012973,-1.668395638,-1.634297848,2.502785625
30.21776556,-1.141974568,-1.534397483,-1.594218135,2.489982532
30.22009691,-1.384247899,-1.400997639,-1.57866478,2.524107588
30.2224153,-1.647458434,-1.229312658,-1.45782721,2.520037515
30.22472082,-1.81495595,-1.069591761,-1.308275819,2.47985428
30.22705212,-1.98963201,-0.9822536707,-1.185643673,2.515791869
30.22937056,-2.0769701,-0.9457631707,-1.100698471,2.533734378
30.23168894,-2.179263115,-1.020538807,-1.20179522,2.689795333
30.23400733,-2.378465652,-1.039681435,-1.298704505,2.902528163
30.23632577,-2.511267424,-1.043270707,-1.328614831,3.026564919
30.23864415,-2.592025042,-1.049850941,-1.386640668,3.121466507
30.24096259,-2.697309256,-1.057029366,-1.377667665,3.2079209
30.24328097,-2.787638426,-1.073779106,-1.388435364,3.294189175
30.24559941,-2.834298372,-1.098903775,-1.407577872,3.349942124
30.2479178,-2.875574589,-1.143171072,-1.441077471,3.41357197
30.25023623,-2.91266346,-1.191625714,-1.464407444,3.471032906
30.25255462,-2.897109985,-1.225125194,-1.450050473,3.463643224
30.25487306,-2.835494757,-1.247856975,-1.396810174,3.398272533
30.25719144,-2.801397085,-1.29451704,-1.329213023,3.360120125
30.25950988,-2.700898647,-1.339980721,-1.160519004,3.230666525
30.26182827,-2.618346214,-1.44347024,-0.9349954724,3.132660174
30.26414665,-2.497508526,-1.607976794,-0.670588553,3.045131724
30.26646509,-2.414956331,-1.755135417,-0.3684946895,3.008039686
30.26878347,-2.246262312,-1.918445587,-0.02691925503,2.954124657
30.27110191,-2.049452543,-2.066800594,0.3098705411,2.927104401
30.27340738,-1.896910191,-2.187039852,0.6885347366,2.975817815
30.27573873,-1.727617979,-2.355733871,0.9774680734,3.080517779
30.27805712,-1.533799291,-2.4173491,1.433300734,3.201635196
30.28036264,-1.298704505,-2.463410854,2.017149448,3.438592492
30.28269394,-1.089930773,-2.572882652,2.525624275,3.766490702
30.28501238,-0.8500502706,-2.758326292,2.934198856,4.115880504
30.28731785,-0.6765705943,-2.960519791,3.348157167,4.520241323
30.2896492,-0.5485545993,-3.067000389,3.826721668,4.934693735
30.29196759,-0.4857429862,-3.237488985,4.28614378,5.393357922
30.29427311,-0.4905286431,-3.376272678,4.731208801,5.833024282
30.29660441,-0.4971089065,-3.500101328,5.341976643,6.40582087
30.29892285,-0.5700899959,-3.620938778,5.924628735,6.966880642
30.30122832,-0.7447660565,-3.835096598,6.425326824,7.519804997
30.30355967,-0.9840483069,-3.979264021,7.011568546,8.121883199
30.30587806,-1.26341033,-4.118646145,7.835297585,8.941551318
30.30818353,-1.594816327,-4.298107624,8.663214684,9.801451776
30.31051488,-1.891526341,-4.585844517,9.745368004,10.93526586
30.31283327,-2.306082726,-4.92502737,10.84606647,12.13305692
30.31513879,-2.840280533,-5.271986485,11.95573807,13.37163818
30.31747009,-3.394817114,-5.700900078,12.98883915,14.58543751
30.31978853,-3.890131474,-6.186643124,13.81795216,15.63148994
30.322094,-4.383651257,-6.778268337,14.24267864,16.37117024
30.32442535,-4.762315273,-7.483552933,14.46820259,16.97091917
30.32674373,-5.094319344,-8.10090065,14.34138298,17.24099611
30.32904926,-5.456233978,-8.557332039,13.99801254,17.28996171
30.33138056,-5.751747608,-8.97308445,13.55055428,17.23996422
30.333699,-5.884549141,-9.447462082,13.18026543,17.25114069
30.33600446,-5.736792088,-9.713663101,12.85424328,17.10256135
30.33833582,-5.238486767,-10.06241703,12.498909,16.87947589
30.3406542,-4.652245522,-10.43390274,12.04367447,16.59999426
30.34295972,-3.865604877,-10.75214863,11.90548897,16.50128082
30.34529103,-3.032304525,-11.16491032,11.67278671,16.43484234
30.34760946,-2.263011932,-11.53101254,11.52443218,16.45897962
30.34991493,-1.552343726,-11.86122227,11.31864929,16.46846036
30.35224623,-0.8811569214,-12.13819122,11.26002502,16.58011723
30.35456467,-0.3684946895,-12.41874981,11.30967617,16.80089016
30.35687014,0.02213360928,-12.77468204,11.3820591,17.10977091
30.3592015,0.1651047617,-13.15095329,11.37189007,17.38662462
30.36151988,0.03768695518,-13.3268261,11.21456146,17.41758028
30.3638254,-0.2955136001,-13.4219408,10.84487057,17.25824559
30.3661567,-0.822532773,-13.32024574,10.12403297,16.75116565
30.36847514,-1.227517962,-13.28315639,9.347561836,16.28882919
30.37078061,-1.573280931,-13.12523079,8.489136696,15.71026219
30.37311196,-1.805384636,-12.91585827,7.627122402,15.10800465
30.37543035,-1.980658889,-12.58923817,6.955337048,14.51856194
30.37773587,-2.105085611,-12.21416283,6.374479294,13.93740095
30.38006717,-2.164308071,-11.81815147,5.989234924,13.42474837
30.38238561,-2.143969059,-11.40479088,5.66740036,12.91453774
30.38469108,-2.041077614,-10.92742252,5.506483078,12.4054793
30.38702243,-2.009372711,-10.44167995,5.331807137,11.89514297
30.38934082,-1.977069736,-9.970891953,5.123631477,11.38328119
30.39164634,-1.993221283,-9.448060036,4.852644444,10.80680006
30.39397764,-2.037488461,-8.95513916,4.576871395,10.26126836
30.39629608,-2.19242382,-8.416753769,4.304089546,9.704311054
30.39860155,-2.344367981,-7.853243828,4.194019794,9.206481515
30.4009329,-2.474178553,-7.289135933,4.302893162,8.818613934
30.40325129,-2.52682066,-6.74835825,4.345963955,8.415020167
30.40555676,-2.66739893,-6.184848309,4.512863636,8.107607776
30.40788811,-2.770888567,-5.581258774,4.760520458,7.841608762
30.4102065,-2.823530674,-4.952544689,5.175076962,7.69944452
30.41251202,-2.966501951,-4.331008911,5.517251015,7.615630688
30.41484332,-3.067000389,-3.689134359,5.860022545,7.573378898
30.41716176,-3.079562664,-3.093919754,6.10349226,7.503909875
30.41946722,-3.081955671,-2.535793781,6.328417778,7.481816119
30.42179858,-3.196810961,-1.972284079,6.333203316,7.363353111
30.42411696,-3.351148129,-1.447657704,6.093921185,7.103645685
30.42642248,-3.58504653,-0.9403793216,5.650052547,6.757215823
30.42875871,-3.921836376,-0.5898307562,4.800002098,6.226453326
30.43107715,-4.294518471,-0.3792623878,3.568894863,5.59676151
30.43338262,-4.779663086,-0.3355933726,2.08534503,5.225558919
30.43571397,-5.379065514,-0.4917250574,0.5551348329,5.429946042
30.43803235,-5.909673691,-0.7806583643,-0.7447660565,6.007357746
30.44033788,-6.387639999,-1.216152072,-1.676172256,6.714947807
30.44266918,-6.750751019,-1.84606266,-2.490928411,7.428681647
30.44498762,-6.920042992,-2.643470764,-3.230310678,8.08145035
30.44729308,-7.189235687,-3.692723513,-3.802195072,8.931853339
30.44962444,-7.392027378,-4.691727161,-3.796811342,9.543068106
30.45194282,-7.568498135,-5.694319725,-3.495913982,10.09598216
30.45424834,-7.712067604,-6.59043169,-2.860619545,10.54006266
30.45657965,-8.030312538,-7.600203037,-2.11645174,11.25736975
30.45889808,-8.35274601,-8.992825508,-0.7974081635,12.29939577
30.46120355,-8.734998703,-10.40578747,0.902692318,13.61600046
30.46353491,-9.300303459,-11.90070343,2.563909531,15.31979173
30.46585329,-10.03848934,-13.47936821,4.577469826,17.41889393
30.46815876,-10.75932693,-15.22553062,7.402794838,20.05944342
30.47049012,-11.43529987,-17.08834267,11.01177025,23.32459265
30.47280855,-12.13400364,-18.98106575,14.47238922,26.77620121
30.47511402,-12.51266766,-21.11187363,17.53340721,30.16120734
30.47744538,-12.46361542,-23.42154694,19.55414581,32.95868912
30.47976376,-11.75115204,-25.61815834,19.92922211,34.5188862
30.48206928,-10.40459061,-27.60659218,18.52942085,34.83846831
30.48440058,-8.38564682,-28.94657326,16.10010719,34.16777177
30.48671902,-6.099305153,-29.33062172,12.93679523,32.63200216
30.48902449,-3.702893019,-28.96332359,9.768698692,30.78981982
30.49135584,-1.282552958,-27.85604477,6.442675114,28.62013688
30.49367423,0.7884350419,-25.71865654,3.521636724,25.97061511
30.4959797,2.292922258,-23.00878525,0.9583254457,23.14260311
30.49831105,3.071786165,-19.9543457,-1.418345571,20.23915727
30.50062944,3.013161898,-16.79522133,-3.845864296,17.49140578
30.50293496,2.787040234,-12.91884899,-5.531009674,14.32676937
30.50526626,2.863610506,-9.270991325,-7.961519241,12.55138773
30.5075847,3.217149973,-6.87457943,-9.87398243,12.45413286
30.50989017,3.53718996,-5.40000248,-11.1505537,12.88435437
30.51222152,3.2895329,-4.229912281,-11.47657585,12.66589823
30.51453991,2.768495798,-3.419343472,-11.00040436,11.84758941
30.51684543,2.038684845,-2.886940479,-9.70827961,10.33157075
30.51917673,1.216750264,-2.504088879,-7.800601959,8.282531814
30.52149517,0.432502687,-1.990230203,-5.631507874,5.988485265
30.52380064,-0.2835494876,-1.498505235,-3.4809587,3.800393627
30.52613199,-0.8727820516,-1.268794179,-1.575075507,2.202827735
30.52845038,-1.392024517,-1.258624673,0.1716850251,1.884501014
30.5307559,-1.761117458,-1.442872047,1.548156261,2.753216711
30.5330872,-2.014158487,-1.701895118,2.50169611,3.634799146
30.53540564,-2.222932339,-2.042274237,2.888735056,4.17816975
30.5377111,-2.207378864,-2.584248543,2.678166628,4.32705887
30.54004246,-1.959123492,-3.238685369,1.797608018,4.190303374
30.54236084,-1.514058471,-3.80159688,0.4893322289,4.121159779
30.54467928,-0.9661021233,-4.368695736,-1.243071318,4.643714251
30.54699767,-0.3098705411,-4.985445976,-3.121437073,5.890166444
30.5493161,0.4277170599,-5.687141418,-4.856233597,7.490629089
30.55162157,1.074377418,-6.433701992,-6.333203316,9.091549505
30.55395293,1.654038668,-7.200003147,-7.800601959,10.74361579
30.55627131,2.0769701,-7.822137356,-9.09990406,12.17817275
30.55857683,2.379662037,-8.504091263,-10.20419216,13.49473591
30.56090814,2.661417007,-9.195018768,-11.01177025,14.59077087
30.56322657,2.994617462,-9.936794281,-11.39940739,15.41603396
30.56553204,3.217149973,-10.60379314,-11.43589783,15.92388904
30.5678634,3.399004459,-11.26720333,-11.17149067,16.226685
30.57018178,3.531806231,-11.94018459,-10.68335533,16.40657626
30.5724873,3.618546009,-12.55155087,-9.962516785,16.42823926
30.5748186,3.709473372,-13.13898945,-9.280562401,16.50824264
30.57713704,3.813561201,-13.69651699,-8.502895355,16.56614186
30.57944251,3.881158352,-14.06321716,-7.450053215,16.38110985
30.58177387,3.961916208,-14.42872047,-6.158527374,16.18061229
30.58409225,4.02652216,-14.78943825,-4.738985062,16.04363873
30.58639777,4.130012035,-15.54796314,-3.200998545,16.40251654
30.58872907,4.238885403,-16.55594063,-1.551745534,17.1602807
30.59104751,4.237689018,-17.46102524,-0.1956132501,17.96896422
30.59335298,4.191029072,-18.13759613,0.7010970116,18.62870514
30.59568433,4.133002758,-18.46900177,1.261615753,18.96779936
30.59800272,4.120440483,-18.48754501,1.690529227,19.01644655
30.60030824,4.115056515,-18.33380699,1.899302959,18.88569619
30.60263954,4.124029636,-17.91147423,1.81495595,18.46950445
30.60495798,4.155136585,-17.52742577,1.402792215,18.06775138
30.60726345,4.220939159,-16.99801445,0.955334425,17.54028182
30.6095948,4.215555191,-16.44706726,0.4360919297,16.98431933
30.61191319,4.208376884,-16.00618935,-0.1256231815,16.55065904
30.61423163,4.186243057,-15.52762413,-0.6580262184,16.09548821
30.61655001,4.070191383,-14.99282837,-1.106680512,15.5748548
30.61886845,3.907479286,-14.48375511,-1.498505235,15.07624205
30.62117392,3.743571043,-14.00279808,-1.631905079,14.58615071
30.62350527,3.553341627,-13.49372482,-1.622931957,14.04780248
30.62582366,3.305086374,-12.92363548,-1.634297848,13.43930353
30.62812918,3.023929596,-12.51685524,-1.758724689,12.99649675
30.63046048,2.827718258,-12.08016491,-1.97826612,12.5634355
30.63277892,2.559721947,-11.61595726,-2.198405743,12.09609967
30.63508439,2.309672117,-11.15593719,-2.185245275,11.60020762
30.63741574,2.08235383,-10.88794136,-2.079362869,11.27861758
30.63973412,1.880758643,-10.70010471,-1.925025821,11.03336841
30.64203965,1.516451359,-10.36690426,-1.645065546,10.60559142
30.64437095,1.082154036,-10.09292603,-1.321436286,10.2364255
30.64668939,0.575473845,-9.917651176,-1.188634634,10.00519002
30.64899485,0.06281159073,-9.722636223,-0.8895317912,9.763445459
30.65132621,-0.4929214716,-9.581459999,-0.499501735,9.607124922
30.65364459,-1.090528965,-9.46002388,-0.1196411327,9.523424764
30.65595012,-1.783251047,-9.317052841,0.1692921966,9.487682425
30.65828142,-2.453241348,-9.260822296,0.3110669553,9.585300484
30.66059985,-3.062813044,-8.962915421,0.3750749528,9.479206602
30.66290532,-3.59043026,-8.663214684,0.3535395563,9.384426904
30.66523668,-4.008575916,-8.379665375,0.4145565331,9.298350918
30.66755506,-4.307080746,-8.17986393,0.6777670383,9.26933043
30.66986058,-4.502095699,-8.092526436,0.9756734371,9.311809086
30.67219188,-4.419543266,-8.065607071,1.296311617,9.287992459
30.67451032,-4.402793884,-8.185248375,1.397408366,9.398703905
30.67681579,-4.244269371,-8.397610664,1.323829174,9.501905653
30.67914715,-3.9200418,-8.516056061,1.12283206,9.441964328
30.68146553,-3.428914785,-8.610571861,0.8745766878,9.309365648
30.68378397,-2.827718258,-8.755337715,0.6520441771,9.223724338
30.68610235,-2.325823545,-8.709874153,0.4606183469,9.026822929
30.68842079,-1.899302959,-8.560921669,0.2961117923,8.774076233
30.69073918,-1.506880045,-8.321639061,-0.03589234129,8.457047498
30.69305762,-1.186241865,-7.882555962,-0.4229314029,7.982526494
30.695376,-1.068993568,-7.333403111,-0.7692924738,7.450728779
30.69768152,-0.9649057388,-6.720840454,-0.9062815905,6.849969767
30.70001282,-0.8039883971,-6.126224041,-0.8757730722,6.240512544
30.70233126,-0.6239284873,-5.853442192,-1.061815023,5.981598733
30.70463673,-0.3726821244,-5.737390518,-1.155733347,5.86449158
30.70696808,0.01256231871,-5.964110374,-1.480558991,6.145146483
30.70928647,0.3260220885,-6.188437462,-1.814357758,6.457162124
30.71159199,0.500099957,-6.251847267,-1.92203474,6.559718878
30.71392329,0.5946164131,-6.263811588,-1.797009826,6.543557794
30.71624173,0.7375875711,-6.312864304,-1.523629785,6.535880879
30.7185472,0.8961120844,-6.418746948,-1.307079315,6.611488909
30.72087855,1.046261668,-6.559325218,-1.189831018,6.747970706
30.72319694,1.241276741,-6.588038921,-0.9684949517,6.773552041
30.72550246,1.326820135,-6.479763508,-0.7543373108,6.657087319
30.72783376,1.377667665,-6.439683914,-0.6251249313,6.615004028
30.7301522,1.417149186,-6.357131481,-0.4540380836,6.528980247
30.73247058,1.40997076,-6.477370739,-0.3960121572,6.640871544
30.73478902,1.399203062,-6.760920525,-0.4893322289,6.921507175
30.73710741,1.35912323,-7.040282249,-0.5306084156,7.189877287
30.73942584,1.252044439,-7.143173695,-0.5066801906,7.269750376
30.74174423,1.136590719,-7.300501823,-0.5114658475,7.406130072
30.74406267,0.9194421172,-7.401598454,-0.4265206456,7.470672884
30.74638105,0.6813562512,-7.469195843,-0.290129751,7.505818287
30.74869949,0.5449653864,-7.606184959,-0.07597211748,7.626061151
30.75101788,0.4079762697,-7.724031448,0.1483550072,7.736221019
30.75333631,0.2590230405,-7.751548767,0.3954139352,7.765948326
30.7556547,0.142971158,-7.777870178,0.6376872063,7.805277076
30.75797314,0.08913264424,-7.78325367,0.8709874153,7.832343289
30.76029152,-0.0747757107,-7.7868433,1.060618639,7.859098668
30.76260996,-0.2799602449,-7.7868433,1.140179992,7.874853442
30.76492834,-0.3744767308,-7.826922894,1.172483087,7.923109957
30.76724678,-0.4217349887,-7.871788502,1.153340459,7.967001245
30.76956517,-0.5102694035,-7.954938889,1.172483087,8.057055552
30.7718836,-0.5820540786,-7.908876896,1.076171994,8.002953634
30.77420199,-0.641874671,-7.809575081,1.060618639,7.907362261
30.77652043,-0.7268198729,-7.691728592,1.125823021,7.807588189
30.77883881,-0.7573283911,-7.624729156,1.158126116,7.749277199
30.78115725,-0.7447660565,-7.561917782,1.219741344,7.69578105
30.78347564,-0.6454638839,-7.51645422,1.173081279,7.634777492
30.78579407,-0.4552344978,-7.469195843,1.069591761,7.559110498
30.78811246,-0.2201396823,-7.435098171,0.822532773,7.483696043
30.7904309,0.0239282269,-7.37288475,0.5144568682,7.390850287
30.79274928,0.2470589429,-7.237690449,0.1818545163,7.244188859
30.79506772,0.4426721931,-7.118647575,-0.1944168359,7.135047293
30.7973861,0.6813562512,-7.055835724,-0.4743770957,7.104512491
30.79970454,0.837487936,-6.903891563,-0.7651050687,6.996462715
30.80202293,1.067797065,-6.740581512,-0.8973084688,6.883370699
30.80434137,1.191027522,-6.68016243,-0.9876375198,6.857006965
30.80665975,1.268195987,-6.702296257,-0.9960124493,6.893557643
30.80897819,1.24965167,-6.745965004,-0.9529415965,6.926598792
30.81129662,1.174875975,-6.843472958,-0.8434699774,6.994633463
30.81361501,1.013360381,-6.909275532,-0.6586244106,7.014183755
30.81593345,0.851246655,-7.018148899,-0.2823530734,7.075221417
30.81825183,0.6484549642,-7.24307394,0.1136590764,7.272931481
30.82057022,0.3726821244,-7.570890903,0.4474578202,7.593253554
30.82288866,0.08135596663,-8.009375572,0.7531409264,8.045118837
30.82520704,-0.2464607358,-8.496912956,1.044467092,8.564413826
30.82752548,-0.5802595019,-8.960522652,1.269990563,9.068657195
30.82983095,-0.8781659007,-9.466604233,1.447059512,9.61674333
30.8321623,-1.171286702,-9.953543663,1.51944232,10.13674745
30.83448069,-1.408774376,-10.3716898,1.578066587,10.58522029
30.83678621,-1.590628862,-10.74138069,1.631306887,10.98036983
30.83911751,-1.6713866,-11.10808086,1.566700578,11.34184925
30.84143595,-1.67437768,-11.50229836,1.450050473,11.71362687
30.84374142,-1.557129383,-11.7589283,1.290927768,11.93161939
30.84607277,-1.331605792,-11.93240833,1.141974568,12.06066534
30.84839116,-0.9906286001,-11.9724884,1.010967612,12.05586493
30.85069668,-0.5294120312,-11.89950657,0.8955138922,11.94489342
30.85302798,0.0239282269,-11.67458153,0.793818891,11.70156292
30.85534642,0.5976074338,-11.3443718,0.7154539824,11.38260869
30.85765194,1.232303619,-10.95075321,0.6610172391,11.03967898
30.85998324,1.856830359,-10.56072235,0.6299105883,10.74120398
30.86230168,2.477767944,-10.22991467,0.6424728632,10.54529561
30.86460715,3.035295486,-10.00080204,0.6125625968,10.4692069
30.8669385,3.526422262,-9.826126099,0.5724828243,10.45543613
30.86925689,3.876971006,-9.707681656,0.4893322289,10.4646755
30.87156241,4.139583111,-9.672985077,0.3768695593,10.52828663
30.87389371,4.328018188,-9.687940598,0.1782652885,10.61224354
30.87621215,4.389034748,-9.759127617,-0.0783649385,10.70095037
30.87851762,4.350749969,-9.851250648,-0.3547359705,10.77506391
30.88084897,4.327419758,-10.00618649,-0.5826523304,10.91740873
30.88316735,4.301098824,-10.21316528,-0.7387840152,11.1064845
30.88548579,4.220939159,-10.43150997,-0.7854440212,11.28049866
30.88780418,4.11685133,-10.64507008,-0.7465606928,11.43780288
30.89012256,3.991826296,-10.84008503,-0.6843472719,11.57196836
30.892441,3.79621315,-11.02253723,-0.6753742099,11.67748653
30.89475944,3.684946775,-11.30369377,-0.6981059909,11.90964641
30.89707782,3.540779352,-11.63330555,-0.7064808607,12.18072377
30.89939626,3.410370588,-11.9348011,-0.6628118753,12.430182
30.90171465,3.250649452,-12.43250847,-0.5790630579,12.86348719
30.90403308,3.059821844,-12.86381435,-0.3445664644,13.22720513
30.90633855,2.863610506,-12.72862053,-0.1657029688,13.04781603
30.90866985,2.638087034,-12.72443295,-0.01016949583,12.99502983
30.91098829,2.447259426,-12.7812624,0.1938186288,13.01488812
30.91330673,2.185245275,-12.85424328,0.4211367965,13.04546754
30.91562512,1.929213285,-12.81177044,0.747158885,12.9777337
30.91794355,1.715055585,-12.76331615,1.060020447,12.92158265
30.92026194,1.532602906,-12.80519009,1.354337573,12.96749764
30.92258038,1.423131227,-12.92303658,1.664208174,13.10724096
30.92489876,1.326820135,-12.96311665,1.935793519,13.17384308
30.92720428,1.287338614,-12.95892906,2.11645174,13.19357613
30.92953558,1.283749342,-13.02652645,2.179263115,13.26979998
30.93185402,1.283749342,-13.03549957,2.25104785,13.29057854
30.93417241,1.329213023,-12.98166084,2.317448616,13.25371245
30.93649084,1.384247899,-12.89372444,2.269592285,13.1649277
30.93880923,1.451246977,-12.83450222,2.107478619,13.08709407
30.94112767,1.465603828,-12.77707481,1.868794441,12.99592352
30.94344605,1.5224334,-12.68495083,1.610967875,12.87715025
30.94576449,1.612762451,-12.58744335,1.325025558,12.759327
30.94808288,1.779661894,-12.52642632,1.111466169,12.70094129
30.95040131,1.87956214,-12.43310642,0.8967102766,12.60630709
30.9527197,1.97826612,-12.30628681,0.6675975323,12.48214398
30.95503814,1.996810555,-12.05204964,0.494716078,12.22636074
30.95735652,2.098505497,-11.91984558,0.4755735099,12.11249826
30.95967496,2.188236237,-11.73440266,0.6227321029,11.95292344
30.96199334,2.266601324,-11.69432259,0.8231309652,11.94036042
30.96431178,2.358724833,-11.64347458,1.037886858,11.92523762
30.96663017,2.478964329,-11.59681511,1.320838094,11.93214139
30.9689486,2.639283419,-11.58305645,1.551147223,11.98077925
30.97126699,2.776870728,-11.62732315,1.7670995,12.08421679
30.97358543,2.934797049,-11.7146616,1.95015049,12.23312785
30.97590381,3.175275564,-12.00718403,2.140379906,12.60301826
30.97822225,3.407977581,-12.36610699,2.236092806,13.02056159
30.98054064,3.60478735,-12.81715488,2.370090723,13.5237303
30.98285907,3.807579041,-13.34058475,2.542374134,14.10434422
30.98517746,3.997808456,-13.91665649,2.705684185,14.73012313
30.9874959,4.13120842,-14.47119331,2.791825771,15.30609715
30.98980136,4.221537113,-15.00658703,2.815753937,15.84132255
30.99213272,4.300500393,-15.4612236,2.786442041,16.28827794
30.9944511,4.425525665,-15.86142349,2.704487801,16.68784848
30.99675663,4.583451748,-16.19402504,2.560320139,17.02379852
30.99908793,4.771288395,-16.40638924,2.373081923,17.25011068
31.00140636,4.928018093,-16.47518158,2.117049932,17.32624803
31.00371183,5.099703312,-16.38545036,1.826920033,17.25768218
31.00604319,5.224130154,-16.15215111,1.625923038,17.05365495
31.00836157,5.284548759,-15.86740494,1.49132669,16.79062388
31.01068001,5.246861935,-15.4989109,1.435693622,16.42580335
31.0129984,5.087738991,-15.10349655,1.473978758,16.00541501
31.01531683,4.794618607,-14.6452713,1.449452281,15.47815399
31.01763522,4.474578381,-14.22533035,1.386042476,14.97674828
31.01995366,4.107280254,-13.82572937,1.293918848,14.48084147
31.02227204,3.803989887,-13.52064419,1.222732425,14.09869614
31.02457756,3.540779352,-13.28255844,1.113260746,13.79140409
31.02690887,3.381058455,-13.16650677,1.048654556,13.63407984
31.0292273,3.29551506,-13.13480186,0.8853443861,13.57082438
31.03154569,3.184248686,-13.18624783,0.641874671,13.58044824
31.03386412,3.094517946,-13.28495121,0.2650051117,13.64317403
31.03618251,2.966501951,-13.37049484,-0.1555334777,13.69651258
31.03848803,2.775076151,-13.42313671,-0.5048855543,13.71628799
31.04081933,2.548356056,-13.45783234,-0.7256234884,13.71619113
31.04313777,2.350948334,-13.36630726,-0.7280163169,13.59099465
31.04545616,2.120040894,-13.31426334,-0.6352944374,13.4969545
31.04777459,1.888535261,-13.25683594,-0.494716078,13.39981375
31.05009298,1.655235052,-13.20897961,-0.2111666054,13.31396022
31.0523985,1.384846091,-13.19043446,0.1872383654,13.26425339
31.0547298,1.122233868,-13.12403393,0.6376872063,13.18735456
31.05704824,0.8392825127,-13.04806232,1.211964726,13.13107703
31.05935371,0.5276173949,-13.00618744,1.833500385,13.14538
31.06168506,0.2105683982,-13.10369492,2.408974171,13.32495088
31.06400345,-0.1501496136,-13.27478218,2.80259347,13.5682319
31.06630897,-0.5599204898,-13.51944828,2.910270452,13.84047206
31.06864027,-0.9481559992,-13.78804207,2.846860647,14.11076608
31.07095871,-1.31126678,-14.06620789,2.583650351,14.36150668
31.07326418,-1.650449395,-14.30549049,2.224726915,14.57121997
31.07559553,-1.92741859,-14.53340626,1.794018745,14.770015
31.07791392,-2.099103689,-14.72543049,1.22691977,14.92480725
31.08021944,-2.198405743,-14.92582989,0.5880361795,15.09831687
31.08255074,-2.244467735,-15.13938904,-0.1555334777,15.30565015
31.08486918,-2.1302104,-15.41276932,-0.9864411354,15.59052021
31.08717465,-1.924427629,-15.73101425,-1.84606266,15.95544354
31.089506,-1.661217093,-16.04327774,-2.809772015,16.3719645
31.09182439,-1.359721422,-16.28854179,-3.854837179,16.7936061
31.09412991,-1.055832982,-16.47996712,-4.871787071,17.21738682
31.09646121,-0.7878368497,-16.60020638,-5.803193092,17.60297102
31.09877965,-0.55154562,-16.62951851,-6.702296257,17.9378333
31.10108512,-0.4019941986,-16.63251114,-7.402196884,18.20973764
31.10341647,-0.3457628787,-16.62712669,-7.911868095,18.41680078
31.10573485,-0.3732803464,-16.59960938,-8.184649467,18.51147905
31.10804038,-0.5060819983,-16.58824348,-8.347960472,18.5772545
31.11037168,-0.708275497,-16.7036972,-8.325227737,18.67684586
31.11269012,-0.9870393276,-16.84906006,-8.136195183,18.73666842
31.11499558,-1.355534077,-16.91964912,-7.770691395,18.66803803
31.11732694,-1.788634896,-16.92383575,-7.30768013,18.52073488
31.11964532,-2.204387903,-16.9034977,-6.633502483,18.29182647
31.12195084,-2.642872572,-16.78744507,-5.813961029,17.96121461
31.12428215,-3.090928555,-16.73899078,-4.911268711,17.71632615
31.12660058,-3.494119167,-16.77966881,-3.803391695,17.5565356
31.12890605,-3.863810301,-16.87298965,-2.651845694,17.51168454
31.13123741,-4.228715897,-17.07159233,-1.627717614,17.66269423
31.13355579,-4.591228485,-17.31386566,-0.8183453679,17.93095124
31.13586131,-4.91067028,-17.56032753,-0.07537391037,18.23418402
31.13819262,-5.185246468,-17.63809395,0.5288137794,18.39208479
31.14051105,-5.465805054,-17.61476326,0.9888339639,18.46977808
31.14281652,-5.66740036,-17.49871254,1.358525038,18.44369696
31.14514788,-5.798407555,-17.33779526,1.7138592,18.36186232
31.14746626,-5.906084538,-17.20499229,2.213361025,18.32464356
31.14977178,-5.857031822,-16.92862129,2.950350285,18.15454784
31.15210308,-5.748157978,-16.39203072,3.729812384,17.76658356
31.15442152,-5.652445316,-15.93619919,4.624728203,17.52999411
31.15672699,-5.434698582,-15.43011665,5.499902725,17.25900862
31.15905834,-5.111069202,-14.92224026,5.714060307,16.77637529
31.16137673,-4.785047054,-14.51665688,5.475376606,16.23606329
31.16368225,-4.520640373,-14.13201046,5.150550842,15.70598876
31.16601355,-4.213162422,-13.77428341,4.850251675,15.19890004
31.16833199,-3.88594389,-13.6289196,3.955335855,14.7136906
31.17063746,-3.466003656,-13.68933868,2.432902336,14.32934711
31.17296881,-3.141776085,-13.71865082,0.6424728632,14.08846722
31.1752872,-2.896511793,-13.54756355,-0.7447660565,13.87374986
31.17759272,-2.742773056,-13.25324631,-1.909472466,13.66811716
31.17992402,-2.679961443,-12.80160141,-2.918645382,13.40080904
31.18224246,-2.611167669,-12.28355503,-4.166502476,13.2311626
31.18454793,-2.524427891,-11.89950657,-4.970490932,13.14065344
31.18687928,-2.508276224,-11.63031483,-5.453841209,13.08816475
31.18919767,-2.478366137,-11.38564873,-5.870790482,13.04766173
31.19150319,-2.488535643,-11.08893871,-6.173482418,12.93326164
31.19383449,-2.471187592,-10.77188969,-6.361319065,12.7517354
31.19615293,-2.419741869,-10.55892849,-6.333801746,12.54843282
31.1984584,-2.309672117,-10.43150997,-6.205187321,12.35537678
31.20078975,-2.126621008,-10.3214407,-6.175875187,12.21458511
31.20310814,-2.044068813,-10.3094759,-5.860022545,12.03342739
31.20541366,-1.768894196,-10.34417248,-4.922634602,11.5915151
31.20774496,-1.323829174,-10.39382362,-3.716053486,11.11724546
31.2100634,-1.019940615,-10.45244789,-2.715853691,10.84757148
31.21236887,-0.7890332937,-10.54636574,-2.064407825,10.77544354
31.21470022,-0.3655036688,-10.74796104,-1.830509305,10.90885071
31.2170186,0.03768695518,-10.9058876,-1.677966833,11.03428192
31.21932413,0.3038884699,-10.87597752,-1.689931035,11.01068127
31.22165543,0.3224328458,-10.6540432,-1.724626899,10.79754312
31.22397386,0.4959124923,-10.62173939,-2.066800594,10.83231007
31.22627933,0.5210371017,-10.71984577,-3.101098061,11.17154341
31.22861069,0.5168496966,-10.78923702,-4.149752617,11.57131003
31.23092907,0.7214360237,-10.95793152,-4.719842434,11.95297644
31.23323459,0.87517488,-11.06560802,-5.094319344,12.21334113
31.2355659,0.8165507317,-10.92802143,-5.353342533,12.19617496
31.23788433,1.068395257,-10.61874866,-5.076971531,11.81841493
31.24020272,1.237089276,-10.3411808,-5.029713154,11.56583005
31.24252116,1.377667665,-10.10728264,-4.881956577,11.30878555
31.24483954,1.600200176,-9.918848038,-4.662415028,11.07620426
31.24714506,1.809572101,-9.741181374,-4.637888432,10.93961493
31.24947637,1.907079697,-9.369096756,-4.835296154,10.71433693
31.2517948,1.866999865,-9.001200676,-5.20558548,10.56434675
31.25410027,1.762313843,-8.557929993,-5.566901684,10.36022732
31.25643162,1.677368641,-8.045866013,-5.571687698,9.929412332
31.25875001,1.567897081,-7.553543091,-5.418546677,9.427351832
31.26105553,1.415354609,-7.037889481,-5.252245903,8.895010064
31.26338683,1.31425786,-6.616752625,-4.736592293,8.242814784
31.26570527,1.170090318,-6.31226635,-4.357928276,7.759211086
31.26801074,1.004985452,-6.089733601,-4.146761417,7.435756944
31.27034209,0.8632107973,-5.973083496,-4.09172678,7.291439321
31.27266048,0.745962441,-5.841478348,-4.11744976,7.185591262
31.274966,0.59940207,-5.715256691,-4.18145752,7.106900089
31.2772973,0.4384847581,-5.541777134,-4.274777889,7.012652044
31.27961574,0.2470589429,-5.325226784,-4.320839405,6.862122965
31.28192121,0.1088734269,-5.117649555,-4.457230568,6.787421803
31.28425256,-0.07357929647,-4.814359188,-4.652245522,6.695286155
31.28657095,-0.2464607358,-4.458426952,-4.455435753,6.307869809
31.28887647,-0.500099957,-4.161118507,-4.197608948,5.931688468
31.29120777,-0.7256234884,-3.843471289,-3.811168194,5.461117468
31.29352621,-0.7860422134,-3.516851187,-2.69312191,4.498778751
31.29583168,-0.8757730722,-3.229114056,-1.946561217,3.870821183
31.29816303,-1.021735311,-2.973082066,-1.783251047,3.614297208
31.30048142,-1.050449133,-2.815155745,-1.684547186,3.444741568
31.30278694,-1.039681435,-2.751745939,-1.479960799,3.292920765
31.30511824,-1.024726272,-2.770888567,-1.469791293,3.299723296
31.30743668,-1.001994491,-2.71286273,-1.579861164,3.295387451
31.30974215,-1.004387259,-2.568695068,-1.68574357,3.232447912
31.3120735,-1.029511929,-2.315055847,-1.797608018,3.106569325
31.31439189,-1.075573802,-2.004587173,-1.833500385,2.921806359
31.31669741,-1.183848977,-1.689931035,-1.836491346,2.762257368
31.31902871,-1.356730461,-1.323829174,-1.664806366,2.522859779
31.32134715,-1.516451359,-1.097109199,-1.515254974,2.408167551
31.32365262,-1.652244091,-0.9122636318,-1.298106313,2.290680133
31.32598397,-1.843071699,-0.7633104324,-1.133599758,2.294472601
31.32830235,-1.984846354,-0.6891329288,-0.9541380405,2.30757419
31.33060788,-2.173879385,-0.5976074338,-0.8895317912,2.423665206
31.33293918,-2.358724833,-0.6209374666,-0.9529415965,2.618633968
31.33525762,-2.569891453,-0.7220342159,-1.006780148,2.852942648
31.337576,-2.738585472,-0.8416753411,-1.060020447,3.054817689
31.33989444,-2.908475876,-0.8937192559,-1.12283206,3.243257292
31.34221282,-3.041875839,-0.8967102766,-1.128814101,3.366202492
31.34453126,-3.179463148,-0.9242277741,-1.158724308,3.507965922
31.34684965,-3.329612732,-0.985244751,-1.202991605,3.674808426
31.34916808,-3.470789194,-1.055832982,-1.275374413,3.84548317
31.35148647,-3.5766716,-1.154536963,-1.365703583,3.998835032
31.35380491,-3.612564087,-1.256231904,-1.365703583,4.061266324
31.35612329,-3.585644722,-1.403988719,-1.278365493,4.057369927
31.35844173,-3.558725595,-1.528415442,-1.214955688,4.059150028
31.36076012,-3.494119167,-1.66600275,-1.127019525,4.031700253
31.36307855,-3.362514019,-1.802393675,-1.001396298,3.944352676
31.36539694,-3.26979208,-1.933998942,-0.8895317912,3.901686682
31.36771538,-3.123231649,-2.098505497,-0.7393822074,3.834708243
31.37003376,-2.978466034,-2.228914261,-0.5563312769,3.761492149
31.37235215,-2.770290375,-2.41136694,-0.366700083,3.691025363
31.37467058,-2.520838737,-2.544168711,-0.0580259487,3.582009126
31.37698902,-2.295913219,-2.644068956,0.2165504545,3.508448697
31.37930741,-2.042274237,-2.790629387,0.5437689424,3.500597248
31.38162584,-1.731805444,-2.951546669,1.029511929,3.573607791
31.38394423,-1.465005636,-3.09272337,1.586441398,3.771998895
31.3862497,-1.244267821,-3.153740168,2.204387903,4.043959135
31.38858105,-0.9361918569,-3.236890793,2.717648268,4.328917798
31.39089949,-0.6251249313,-3.305086374,3.37986207,4.768421619
31.39320496,-0.3499503136,-3.427120209,4.08873558,5.346529416
31.39553626,-0.1555334777,-3.435495138,4.868197441,5.96038286
31.3978547,0.008973085321,-3.43011117,5.718846321,6.668654017
31.40016017,0.2069791555,-3.466601849,6.760920525,7.600672016
31.40249152,0.3816552162,-3.556332588,7.859824181,8.635392193
31.40480991,0.5186443329,-3.68075943,9.064012527,9.796596604
31.40711543,0.59940207,-3.868596077,10.33519936,11.05177199
31.40944673,0.6233302951,-4.221537113,11.42991543,12.20052798
31.41176517,0.5258227587,-4.591826439,12.35294724,13.18926325
31.41407064,0.3852444589,-4.944169998,13.1838541,14.08571046
31.41640199,0.1507478207,-5.410171986,13.61456299,14.65090479
31.41872038,-0.1411765367,-5.925825119,13.66361523,14.89394895
31.4210259,-0.3906283081,-6.513263226,13.35972691,14.86800226
31.4233572,-0.5898307562,-7.162316322,12.9194479,14.78373462
31.42567564,-0.7950153351,-7.758727551,12.47856998,14.71545485
31.4279811,-1.083948612,-8.404789925,11.95573807,14.65452527
31.43031246,-1.409372568,-9.042476654,11.81456184,14.94445003
31.43263084,-1.680957913,-9.711270332,12.12203979,15.62300354
31.43493637,-1.761715651,-10.65284634,12.75314617,16.71016201
31.43726767,-1.841277003,-11.68116188,13.51884937,17.96104485
31.4395861,-1.823330879,-12.75972652,14.20858097,19.18381948
31.44189157,-1.739582062,-13.88554955,14.58066463,20.20966138
31.44422293,-1.624726534,-15.00239944,14.5513525,20.96314826
31.44654131,-1.489532113,-16.02293777,14.17328644,21.44377041
31.44884683,-1.470389485,-16.77248955,13.63549995,21.66576354
31.45117814,-1.63489604,-17.21456337,12.93081379,21.59212871
31.45349657,-1.962114573,-17.4065876,12.05623722,21.26480758
31.45580204,-2.484946251,-17.36232185,11.14038372,20.77819356
31.4581334,-3.107678413,-17.1679039,10.17966557,20.19950941
31.46045178,-3.616751432,-16.95075607,9.362516403,19.69938415
31.4627573,-4.031906128,-16.57328796,8.640482903,19.12035789
31.4650886,-4.299902439,-15.97986794,8.047062874,18.40110217
31.46740704,-4.338785648,-15.18066502,7.330412388,17.40725702
31.46971251,-4.056432724,-14.30549049,6.677769661,16.30013228
31.47204387,-3.667598963,-13.30828094,6.163312912,15.11780572
31.47436225,-3.162713289,-12.25005531,5.735595703,13.89113633
31.47666777,-2.522035122,-11.14038372,5.585446358,12.71479538
31.47899907,-1.892124534,-10.02114105,5.405984402,11.54244647
31.48131751,-1.341177106,-8.933005333,5.178666592,10.41229696
31.48362298,-0.9134600163,-7.904689789,5.012963295,9.404697276
31.48595433,-0.560518682,-6.979265213,4.947759151,8.573484981
31.48827272,-0.27577281,-6.175875187,4.972883701,7.933918154
31.49057824,-0.1130608693,-5.480162144,4.988437176,7.411441516
31.49290954,-0.1148554832,-4.860421181,4.954937458,6.941778666
31.49522798,-0.07118647546,-4.331607342,4.965705395,6.589849751
31.49753345,-0.05264209956,-3.932604074,4.877170563,6.265376181
31.4998648,-0.1220339537,-3.579064369,4.688137531,5.899426036
31.50218319,-0.2871387303,-3.242274761,4.560121536,5.602633551
31.50448866,-0.456430912,-2.972483873,4.480560303,5.396240375
31.50682001,-0.7250252366,-2.724228621,4.462016106,5.277941919
31.50913845,-0.9846464992,-2.475374937,4.558327198,5.279711796
31.51144392,-1.363310695,-2.286940336,4.749154568,5.444555194
31.51377527,-1.804188251,-2.124228239,5.048855782,5.767008372
31.51609366,-2.353939295,-1.983051777,5.376672268,6.195331245
31.51839913,-2.998805046,-1.872383714,5.723631859,6.727452276
31.52073048,-3.608974695,-1.800000787,6.094519138,7.308068466
31.52304887,-4.143770695,-1.883749604,6.395416737,7.849885565
31.52535439,-4.554139614,-2.175673962,6.804589272,8.472082387
31.52768569,-4.898705959,-2.721237659,6.948757172,8.926795657
31.53000412,-5.285745144,-3.500101328,6.487540245,9.070721551
31.53230959,-5.532206059,-4.372285366,5.532804012,8.9629294
31.53464095,-5.574080467,-5.2737813,4.155734539,8.726584201
31.53695933,-5.596213818,-6.252445698,2.317448616,8.705242925
31.53926485,-5.461019516,-7.279564857,0.6514459848,9.123550873
31.54159616,-5.359922886,-8.279166222,-0.94277215,9.90768318
31.54391459,-5.146961689,-9.226723671,-1.869392633,10.72931839
31.54622006,-5.09372139,-10.19820976,-2.997010469,11.78692291
31.54855142,-5.304887772,-11.17926693,-3.812364578,12.94804877
31.5508698,-5.712265968,-12.14536953,-4.004388809,14.00625265
31.55317527,-6.316453457,-13.23948765,-3.668197155,15.12075685
31.55550663,-6.761518478,-14.39940834,-2.008176327,16.03414684
31.55782506,-7.35852766,-15.60000706,0.2279163599,17.2499303
31.56013053,-8.189435959,-16.64327812,2.608176708,18.73147495
31.56246188,-8.995817184,-17.80977821,5.271388054,20.63735591
31.56478027,-9.843474388,-18.87637901,7.976474285,22.73402328
31.56708574,-10.52662468,-19.76710701,10.40518951,24.69445921
31.56941709,-10.81974602,-20.42812538,12.29133129,26.18113892
31.57173548,-10.68215847,-20.73978996,13.41117287,26.9092355
31.574041,-10.11805058,-21.00060844,13.55653667,26.96627874
31.5763723,-9.066405296,-21.09691811,12.96491146,26.36984239
31.57869074,-7.622934818,-20.98385811,11.59382439,25.15647432
31.58099621,-6.075376511,-20.46581268,9.614361763,23.41357813
31.58332756,-4.573282242,-19.50808525,7.207181931,21.2937496
31.58564595,-3.245265722,-18.1459713,4.852644444,19.06190395
31.58795147,-2.188236237,-16.51645851,2.741576433,16.8848459
31.59028277,-1.491924882,-14.64945889,0.8829515576,14.75168089
31.59260121,-1.131805062,-12.66521072,-0.5688936114,12.72840074
31.59490668,-1.106680512,-10.5673027,-1.623530149,10.74841748
31.59723803,-1.162313581,-8.856434822,-2.676372051,9.324718654
31.59955642,-1.122233868,-7.536793232,-3.640081406,8.44469382
31.60186194,-0.8793623447,-6.552744865,-4.402793884,7.9433203
31.60419324,-0.9194421172,-5.65603447,-4.73001194,7.430283486
31.60651168,-0.9637092948,-4.87417984,-4.745565414,6.870717271
31.60881715,-0.8805587292,-4.290929317,-4.514657974,6.290436766
31.6111485,-0.8476574421,-3.827918053,-4.170091629,5.72373514
31.61346688,-0.8560323119,-3.486342669,-3.581457376,5.070918404
31.61577235,-0.8913264275,-3.327219963,-2.700300455,4.3768114
31.61810371,-0.9212366939,-3.22492671,-1.670788407,3.747047269
31.62042215,-1.034297585,-3.197409153,-0.708275497,3.434363255
31.62272762,-1.057029366,-3.297309637,0.08913264424,3.463741698
31.62505892,-1.079761267,-3.503092289,0.6340979934,3.720164008
31.62737735,-0.9924231768,-3.831507206,0.9421738982,4.068543091
31.62968282,-0.799800992,-4.255036831,0.9182456732,4.425855304
31.63201418,-0.5318048596,-4.724628448,0.4905286431,4.779701741
31.63433256,-0.2057827413,-5.223531723,-0.4241278172,5.244760681
31.63663808,0.2578266263,-5.78584528,-1.746760488,6.049268747
31.63896939,0.7818548083,-6.363113403,-3.311666489,7.215791298
31.64128782,1.376471281,-6.966104984,-4.823930264,8.584380876
31.64359329,2.05124712,-7.529016495,-6.192625046,9.962043419
31.64592465,2.655434847,-8.194221497,-7.512865067,11.42977435
31.64824303,3.305086374,-8.95932579,-8.675178528,12.90162149
31.65054855,3.674777269,-9.475577354,-9.713065147,14.05824273
31.65287985,3.542573929,-9.677771568,-10.43330479,14.66502442
31.65519829,3.541377544,-9.932606697,-10.60738277,14.95709196
31.65750376,3.57128787,-10.23828983,-10.41894817,15.03765796
31.65983512,3.556332588,-10.51645565,-10.04028416,14.96832144
31.6621535,3.588635683,-10.99083233,-9.507282257,14.9688048
31.66445902,3.608376503,-11.40180016,-8.821739197,14.86083814
31.66679032,3.552743435,-11.68953705,-8.123632431,14.67176425
31.66910871,3.418745279,-11.88395405,-7.365108013,14.39308859
31.67141423,3.308077335,-12.08195972,-6.625127792,14.17072492
31.67374558,3.195614576,-12.39063358,-5.851049423,14.0703423
31.67606397,3.120838881,-12.8374939,-5.152345181,14.18053404
31.67836944,3.06460762,-13.25563908,-4.490729809,14.32726217
31.68070079,3.005983353,-13.71207047,-3.992424488,14.59439158
31.68301918,2.986840963,-14.06740475,-3.44147706,14.7870504
31.6853247,3.015554667,-14.44965744,-2.770290375,15.01867767
31.687656,3.087937593,-14.84985733,-2.160718918,15.32065036
31.68997444,3.131008387,-15.20399475,-1.648056626,15.6102774
31.69227991,3.196810961,-15.42293835,-1.383649707,15.81142353
31.69461126,3.230908871,-15.498312,-1.220339537,15.87846578
31.69692965,3.299702406,-15.41516209,-1.1820544,15.8086214
31.69923517,3.324228764,-15.23689651,-1.211964726,15.64232626
31.70156647,3.362514019,-14.91386509,-1.127617717,15.32975519
31.70388491,3.405584812,-14.58604908,-1.01036942,15.01238429
31.70619038,3.422334671,-14.31685638,-1.026520967,14.75596478
31.70852173,3.417548895,-14.07757378,-1.190429211,14.53529654
31.71084012,3.440280676,-13.82213974,-1.268794179,14.30024184
31.71315855,3.462414265,-13.60080433,-1.227517962,14.08818623
31.71547694,3.39960289,-13.34776306,-1.334596872,13.83839685
31.71779532,3.297309637,-13.04327583,-1.452443361,13.53177324
31.72011376,3.220141172,-12.80459213,-1.521237016,13.29063772
31.72243215,3.101098061,-12.65384388,-1.461416483,13.11000809
31.72475058,2.977867842,-12.50309658,-1.387837172,12.927537
31.72706897,2.919243574,-12.35952759,-1.192822099,12.75549802
31.72938741,2.870190859,-12.21177006,-0.9134600163,12.57774752
31.73170579,2.723630428,-12.05204964,-0.9397810698,12.39166057
31.73402423,2.554338217,-11.99342537,-0.888933599,12.29459632
31.73634262,2.408974171,-11.93898869,-0.7621139884,12.20341858
31.73866105,2.202593327,-11.78943729,-0.4785645306,12.00296934
31.74097944,2.013560295,-11.7403841,-0.237487644,11.9141699
31.74329788,1.827518344,-11.61476135,-0.111864455,11.75818941
31.74561626,1.594218135,-11.45204926,-0.08135596663,11.56276707
31.7479347,1.272383451,-11.19541931,-0.0,11.26749188
31.75025308,0.9194421172,-10.86281681,0.1040877849,10.90215562
31.75257152,0.5880361795,-10.64447117,0.233300209,10.66325382
31.75487699,0.3182454109,-10.41954613,0.4725824594,10.43511168
31.75720829,0.06640082598,-10.16112137,0.6783652306,10.18395679
31.75952673,-0.1812563092,-9.869196892,0.8835497499,9.910325994
31.7618322,-0.5545366406,-9.652048111,0.926620543,9.712269006
31.76416355,-0.6215356588,-9.649057388,0.9403793216,9.714675925
31.76648194,-0.9487541914,-9.535996437,0.912861824,9.626457255
31.76878746,-1.168295622,-9.507881165,0.8817551732,9.61988623
31.77111876,-1.311864972,-9.491728783,0.8614161611,9.620599918
31.7734372,-1.421934843,-9.474979401,0.9080761671,9.624018686
31.77574267,-1.520638824,-9.362516403,0.9684949517,9.534518252
31.77807402,-1.509272933,-9.256634712,0.9816554785,9.430102781
31.78039241,-1.338784218,-9.060422897,1.029511929,9.216479863
31.78271084,-1.030708313,-8.775078773,0.9445667267,8.885751145
31.78502923,-0.8410771489,-8.366504669,0.9290133715,8.459839064
31.78734767,-0.6981059909,-8.118846893,0.7806583643,8.186113506
31.78965314,-0.4013960063,-7.858029366,0.4378865361,7.880449789
31.79198449,-0.1830509305,-7.551149845,0.1657029688,7.555185577
31.79430288,0.0652044192,-7.281359196,-0.1585244983,7.283376509
31.79660834,0.2111666054,-7.081558704,-0.6311069727,7.112760437
31.7989397,0.4289134443,-6.774679184,-0.7932206988,6.834430764
31.80125808,0.6693921089,-6.346364021,-0.708275497,6.420753559
31.8035636,0.8315058947,-6.044867992,-0.9906286001,6.181680687
31.80589491,0.9445667267,-5.865406513,-1.420738459,6.108493892
31.80821334,1.015154958,-5.715855122,-1.831107497,6.087240264
31.81051881,1.040279627,-5.528018475,-1.994417667,5.968154806
31.81285017,1.057627559,-5.4652071,-1.965703845,5.903478323
31.81516855,1.118644595,-5.631507874,-1.892722726,6.04546491
31.81748699,1.113858938,-5.828317642,-1.843669891,6.213621081
31.81980538,1.00737834,-5.811567783,-1.687538147,6.134893334
31.82212381,0.8745766878,-5.746961594,-1.450648785,5.991396652
31.8244422,0.822532773,-5.661418438,-1.141376376,5.833605997
31.82676058,0.7549355626,-5.720042706,-0.8171489239,5.827224779
31.82907902,0.7190431952,-5.763113499,-0.4073780477,5.822066402
31.83139741,0.6436693072,-5.860620975,-0.2117647976,5.899663781
31.83371584,0.4839483798,-6.138188362,-0.2679961324,6.163066147
31.83603423,0.3104687333,-6.416353703,-0.3056831062,6.431129592
31.83835267,0.1465603858,-6.568896294,-0.2009970993,6.573604665
31.84067105,-0.02991028316,-6.807580471,0.01375873014,6.807660082
31.84298949,-0.242273286,-6.99003315,0.3188436031,7.001494199
31.84530788,-0.5030909777,-7.182655334,0.718445003,7.236007284
31.84762631,-0.8291130662,-7.381857872,1.045663476,7.501510929
31.8499447,-1.165304661,-7.562515736,1.316650629,7.76422231
31.85225017,-1.399801254,-7.768897057,1.48295188,8.032082626
31.85458152,-1.640878081,-7.889734268,1.572084427,8.210471189
31.85689996,-1.80658114,-7.970492363,1.6713866,8.341823367
31.85920543,-1.925624013,-8.011170387,1.780260086,8.429484254
31.86153678,-2.029113531,-8.070990562,1.803590059,8.515346586
31.86385517,-2.120040894,-8.059026718,1.816750646,8.528954681
31.86617355,-2.147558212,-8.09312439,1.783849239,8.561120649
31.86849199,-2.11585331,-8.164909363,1.670190215,8.598378654
31.87081038,-2.145763636,-8.22353363,1.431506157,8.618585547
31.87312881,-2.154138565,-8.190631866,1.169492126,8.549530698
31.8754472,-2.07098794,-8.175078392,0.8165507317,8.47275946
31.87776564,-1.963909149,-8.143971443,0.4402793646,8.388984201
31.88008402,-1.864607096,-7.993822098,0.04486542568,8.208529969
31.88240246,-1.725225091,-7.919046402,-0.3559323549,8.112606571
31.88472084,-1.613360643,-7.855038643,-0.8321040869,8.062069329
31.88702636,-1.500898004,-7.776673794,-1.356730461,8.03555024
31.88935767,-1.411167145,-7.785048485,-1.856232166,8.12674415
31.8916761,-1.374676585,-7.789834023,-2.251646042,8.224424582
31.89398157,-1.383051515,-7.737790108,-2.548356056,8.26319223
31.89631288,-1.384846091,-7.632505894,-2.691925526,8.210932222
31.89863131,-1.39022994,-7.575078487,-2.76909399,8.184279743
31.90093678,-1.400399446,-7.536793232,-2.778665304,8.153855021
31.90326814,-1.430907965,-7.532605648,-2.61714983,8.10167382
31.90558652,-1.456630826,-7.556533813,-2.249253273,8.017612919
31.90790496,-1.538584948,-7.66779995,-1.877169371,8.04277095
31.91022334,-1.623530149,-7.794021606,-1.586441398,8.117845728
31.91254178,-1.674975872,-8.097311974,-1.27477622,8.366424552
31.91486017,-1.810768485,-8.315656662,-0.9116654396,8.55921504
31.9171786,-1.866401672,-8.456234932,-0.5964110494,8.680269038
31.91949699,-1.933998942,-8.711668968,-0.27577281,8.928022108
31.92181538,-1.914258122,-9.008378983,-0.01016949583,9.209526561
31.92413381,-1.799402595,-9.427721024,0.1842473447,9.599672936
31.9264522,-1.627119422,-9.870393753,0.2889333367,10.00778062
31.92875772,-1.548754454,-10.28674412,0.2356930375,10.4053494
31.93108902,-1.34237349,-10.65165043,0.1208375469,10.7365835
31.93340746,-0.9403793216,-10.9304142,0.2362912297,10.97333593
31.93571293,-0.4498506486,-11.14875889,0.409172684,11.16533083
31.93804428,0.05503492057,-11.28574753,0.4480560422,11.29477226
31.94036267,0.5449653864,-11.41854954,0.3864408433,11.43807665
31.94266819,1.033101201,-11.42632675,0.2907279432,11.47661814
31.94499949,1.552941918,-11.42871952,0.228514567,11.53600786
31.94731793,2.038684845,-11.36949635,0.1752742529,11.55216015
31.9496234,2.517847538,-11.26241779,0.1310070455,11.54117731
31.9519547,2.900100946,-11.11406326,0.171086818,11.48748268
31.95427314,3.253042459,-10.92323494,0.2207378894,11.39947683
31.9565786,3.485146284,-10.70189953,0.2829512656,11.25863933
31.95890996,3.678366661,-10.44227791,0.3212364316,11.07586304
31.96122834,3.762713671,-10.21436119,0.3104687333,10.88979245
31.96353387,3.827918053,-9.948758125,0.24765715,10.66264878
31.96586517,3.869792461,-9.703494072,0.1651047617,10.44798308
31.9681836,3.906881094,-9.447462082,0.1010967568,10.22391707
31.97048907,3.878765583,-9.266205788,0.02333002165,10.04529424
31.97282043,3.739383698,-9.014959335,-0.08494520187,9.760107476
31.97513881,3.695116282,-8.953942299,-0.128614217,9.687285928
31.97745725,3.667000771,-8.973683357,-0.09571290761,9.694485474
31.97977564,3.566502094,-8.976076126,-0.04785645381,9.658787194
31.98209402,3.43011117,-9.046066284,-0.005982056726,9.674554958
31.98441246,3.279363394,-9.169296265,0.1226321608,9.738852956
31.98673084,3.126222849,-9.384052277,0.2991028428,9.895613621
31.98904928,2.895913601,-9.591031075,0.484546572,10.03040269
31.99136767,2.641676188,-9.947562218,0.6610172391,10.31355375
31.9936861,2.396411896,-10.46620655,0.8201399446,10.76832852
31.99600449,2.117648125,-10.97228813,0.9786644578,11.21754539
31.99832293,1.741376638,-11.03390312,1.076770186,11.22224776
32.00064131,1.410568953,-11.3389883,1.075573802,11.47689939
32.0029597,1.084546804,-11.77926731,0.985244751,11.87005002
32.00526522,0.8093722463,-12.16570854,0.866201818,12.22333233
32.00759652,0.6628118753,-12.58205986,0.7674978375,12.62286033
32.00991496,0.6496513486,-12.95294762,0.6370890141,12.98486739
32.01222043,0.7381857634,-13.37288761,0.5784648657,13.40573246
32.01455178,0.902692318,-14.19542027,0.5766702294,14.23577741
32.01687017,0.9732806087,-13.78026581,0.5312066078,13.82480312
32.01917569,1.173679471,-13.6031971,0.4743770957,13.66197381
32.02150699,1.37048912,-13.61815166,0.3571287692,13.69159728
32.02382543,1.563111424,-13.65703487,0.2781656384,13.74901069
32.02614381,1.784447432,-13.73779297,0.2662015259,13.85575951
32.02846225,1.983051777,-13.65165138,0.2769692242,13.79770966
32.03078064,2.157727718,-13.58046532,0.2638086975,13.75334222
32.03309902,2.314457655,-13.56730461,0.3176472187,13.76696657
32.03541746,2.446063042,-13.51107311,0.327816695,13.73461994
32.03773584,2.516651154,-13.47577858,0.328414917,13.71269476
32.04005428,2.672184706,-13.44766331,0.4917250574,13.7194028
32.04237267,2.717648268,-13.41296768,0.6394818425,13.70044712
32.0446911,2.784647465,-13.30529022,0.8536394835,13.62034176
32.04700949,2.718844652,-13.18206024,0.9954141974,13.49628385
32.04932793,2.647658348,-12.90987682,1.217348576,13.23468745
32.05164631,2.48195529,-12.64367485,1.43808639,12.96498007
32.0539647,2.271985054,-12.35534,1.686939955,12.67525578
32.05628314,2.018944025,-12.04427242,1.935195327,12.36469224
32.05860152,1.791625977,-11.6644125,2.19780755,12.00411599
32.06090704,1.577468276,-11.38564873,2.461018085,11.75491442
32.06323834,1.401595831,-11.12064362,2.690729141,11.52706418
32.06555678,1.328614831,-10.92502975,2.889333248,11.37847701
32.06786225,1.399203062,-10.95194912,3.075973511,11.46143847
32.0701936,1.497308731,-11.11226845,3.254238844,11.67538068
32.07251199,1.721635938,-11.36112213,3.425325632,11.99049549
32.07483043,2.035095692,-11.67996597,3.473780155,12.35436636
32.07714881,2.383849621,-12.0472641,3.450450182,12.75636773
32.0794672,2.775674343,-12.40798187,3.318845034,13.14066644
32.08178564,3.190230846,-12.87817192,3.153141975,13.63697874
32.08410402,3.567100286,-13.35553932,2.845664263,14.11355519
32.08642246,3.939782381,-13.84666634,2.547159672,14.61985213
32.08872793,4.25802803,-14.23370552,2.280958176,15.03103276
32.09105928,4.53858614,-14.51546001,2.113460541,15.35461035
32.09337767,4.800600529,-14.69193077,2.064407825,15.59360045
32.09568319,5.01475811,-14.68176174,2.104487419,15.65665335
32.09801449,5.196014404,-14.5381918,2.229512453,15.59898433
32.10033293,5.373681545,-14.37069416,2.196611166,15.49898076
32.1026384,5.493920803,-14.20977688,2.157727718,15.38690072
32.1049697,5.525625706,-14.16072464,2.148156643,15.35165264
32.10728814,5.47597456,-14.0997076,2.214557409,15.28699828
32.10960652,5.456233978,-14.11884975,2.362314224,15.31969112
32.11192496,5.417350292,-14.15773296,2.600998163,15.38032114
32.11424334,5.407180786,-14.21516132,2.863012314,15.47595732
32.11656178,5.422734261,-14.27258873,2.916252613,15.54404597
32.11888017,5.453242779,-14.29591846,2.754737139,15.54669477
32.1211986,5.414957523,-14.23490238,2.539382935,15.44029392
32.12351699,5.28155756,-13.9740839,2.278565407,15.11164225
32.12583538,5.146961689,-13.65165138,1.850250125,14.70653683
32.12815381,4.957330227,-13.32562923,1.240678549,14.27188848
32.13045928,4.685146809,-12.95414352,0.6867401004,13.79246341
32.13279064,4.386044025,-12.68255806,0.2817548811,13.42252014
32.13510902,4.019343853,-12.62931824,-0.05084748194,13.25358026
32.13741454,3.61615324,-12.64905834,-0.2691925466,13.15856017
32.13974584,3.184846878,-12.72622681,-0.3296113312,13.12283285
32.14206428,2.64825654,-12.66700459,-0.2542374134,12.943373
32.14436975,2.067398787,-12.76630688,-0.0005982056609,12.93262268
32.1467011,1.441077471,-12.9637146,0.1764706671,13.04475919
32.14901949,0.7178468108,-13.11446285,0.4576273263,13.14206463
32.15132496,0.04366901144,-13.18744373,0.8572286963,13.2153479
32.15365631,-0.6861419082,-13.30947781,1.228714466,13.38367399
32.1559747,-1.305284739,-13.41476154,1.496112347,13.56089775
32.15828022,-1.889133453,-13.55773354,1.615753531,13.78374489
32.16061152,-2.36111784,-13.72223949,1.565504193,14.01162152
32.16292996,-2.703889608,-13.91785336,1.425524116,14.24955368
32.16523543,-2.919243574,-14.17867088,1.205982566,14.5262206
32.16756678,-3.065205812,-14.5328083,0.9349954724,14.88194276
32.16988517,-3.139981508,-14.8522501,0.5407779217,15.19016977
32.17219069,-3.151945591,-15.15613842,0.0951147005,15.48070863
32.17452199,-3.190829039,-15.33081436,-0.4815555513,15.66675316
32.17684043,-3.18544507,-15.51924992,-1.133599758,15.88330024
32.1791459,-3.144168854,-15.82194138,-1.789233088,16.23024897
32.1814772,-2.99401927,-16.28555107,-2.313859463,16.71936813
32.18379564,-2.821736097,-16.88256073,-2.847458839,17.35197606
32.1861011,-2.582453728,-17.50230217,-3.279363394,17.99316183
32.18843246,-2.384447813,-17.99761581,-3.760919094,18.54034193
32.19075084,-2.292922258,-18.31765556,-4.07736969,18.90552674
32.19305637,-2.179263115,-18.54676819,-4.408177376,19.18759562
32.19538767,-2.102692842,-18.69392776,-4.569094658,19.35874165
32.1977061,-2.171486616,-18.92603111,-4.763511658,19.6367271
32.20001157,-2.308475733,-19.10728645,-4.94955349,19.87248187
32.20234293,-2.496910334,-19.1503582,-5.084149837,19.97046219
32.20466131,-2.688934565,-19.13540268,-5.042873859,19.97059292
32.20696678,-2.907279491,-19.03490448,-4.878965378,19.86414271
32.20929814,-3.075973511,-18.87996864,-4.528416634,19.65760378
32.21161652,-3.280559778,-18.69631958,-4.030709743,19.40518125
32.21393496,-3.526422262,-18.41755676,-3.395415306,19.05704322
32.21625334,-3.699303865,-18.16092491,-2.826521635,18.7481537
32.21857178,-3.882952929,-17.86720657,-2.353939295,18.43516814
32.22087725,-3.997210264,-17.63390732,-1.969891191,18.18826128
32.2232086,-4.125226021,-17.35753632,-1.70548439,17.92233896
32.22552699,-4.244867325,-17.20140457,-1.574477315,17.78724815
32.22783251,-4.303491592,-17.15474319,-1.57028985,17.75587408
32.23016381,-4.348356724,-17.2803669,-1.512862086,17.88317751
32.2324822,-4.309473515,-17.28455353,-1.612762451,17.88654118
32.23480064,-4.325026989,-17.19901085,-1.732403636,17.81889601
32.23711902,-4.310071945,-17.054245,-1.647458434,17.66743082
32.23943746,-4.24666214,-16.81735611,-1.424925923,17.40367834
32.24175584,-4.082753658,-16.64925957,-1.004387259,17.17193977
32.24407428,-3.876971006,-16.51406479,-0.3361915946,16.96638632
32.24639267,-3.738187075,-16.41296959,0.5330012441,16.84172508
32.24869819,-3.50069952,-16.29033661,1.459621787,16.72604136
32.25102949,-3.255435228,-16.12403488,2.46221447,16.63264439
32.25334788,-3.047857761,-16.07917023,3.207578659,16.6768616
32.2556534,-2.882154942,-16.1132679,3.495913982,16.73814906
32.2579847,-2.703889608,-16.051054,3.649652719,16.68134642
32.26030314,-2.559721947,-15.90389538,3.673580885,16.52214457
32.2626086,-2.33838582,-15.54257965,4.044468403,16.22952726
32.26493996,-2.059023857,-15.07478237,3.99601388,15.73075871
32.26725834,-1.777269006,-14.60339642,3.537788391,15.1305591
32.26956386,-1.549352646,-14.46999645,2.651247501,14.79224135
32.27189517,-1.454237938,-14.46999645,1.526022673,14.62273403
32.2742136,-1.44347024,-14.35155201,0.366101861,14.42860638
32.27651907,-1.549352646,-14.16431332,-0.7950153351,14.27096054
32.27885038,-1.676172256,-13.91904926,-1.823330879,14.1376809
32.28116881,-1.858624935,-13.57448292,-2.843869686,13.99316504
32.28347428,-2.07098794,-13.24068451,-3.640081406,13.8872211
32.28580564,-2.250449657,-12.88056469,-4.387838364,13.7922658
32.28812402,-2.37786746,-12.54856014,-5.040481091,13.73051583
32.29042954,-2.438286304,-12.34457207,-5.380859852,13.68529694
32.29276084,-2.33838582,-12.15015507,-5.334199905,13.4739751
32.29507923,-2.193620205,-12.01137161,-4.818546772,13.12643937
32.29738475,-1.96151638,-11.94736385,-4.244269371,12.82968714
32.29971605,-1.683350682,-11.95454216,-3.846462488,12.67043888
32.30203449,-1.385444283,-11.99402332,-3.303889751,12.51765708
32.30435288,-0.8548358679,-12.04307652,-2.693720102,12.37022895
32.30667131,-0.4558327198,-12.110075,-2.312064886,12.33723405
32.3089897,-0.1728814393,-12.00718403,-2.143969059,12.1983179
32.31129522,0.04067798331,-11.73739338,-2.339582443,11.96836263
32.31362652,0.1495514214,-11.37129116,-2.837289333,11.72087194
32.31594496,0.2662015259,-11.24507046,-3.562314749,11.7988372
32.31825043,0.4390829504,-11.02074242,-3.79621315,11.66450991
32.32058173,0.6514459848,-10.78504944,-3.748356581,11.43642647
32.32290017,0.7926225066,-10.52662468,-3.658625841,11.17244918
32.32520564,0.8979067206,-10.16411209,-3.726821184,10.86299255
32.32753699,1.02711916,-9.744172096,-3.929014683,10.55656289
32.32985538,1.241276741,-9.368498802,-3.89192605,10.22040244
32.3321609,1.371087432,-9.058628082,-3.854837179,9.939738083
32.3344922,1.436291814,-8.711668968,-4.180859566,9.769119566
32.33681064,1.448854089,-8.21216774,-4.460819721,9.457155478
32.3391161,1.468594909,-7.813762188,-4.664209366,9.217727461
32.34144746,1.426122308,-7.406982422,-4.8346982,8.959437489
32.34376584,1.339382529,-6.952944279,-5.020142078,8.679816023
32.34607131,1.169492126,-6.448058605,-5.091926575,8.298969084
32.34840267,1.021735311,-5.918048382,-4.987240791,7.806395481
32.35072105,0.8315058947,-5.423332691,-4.887938499,7.348189049
32.35302657,0.6299105883,-5.033900738,-4.887340069,7.044362067
32.35535788,0.4211367965,-4.702494621,-4.892126083,6.798802062
32.35767631,0.2165504545,-4.395017147,-4.767100811,6.487551153
32.35998178,0.003589233849,-4.083351612,-4.78085947,6.287319822
32.36231314,-0.2895315289,-3.667000771,-4.614558697,5.901260469
32.36463152,-0.5808576941,-3.255435228,-4.214358807,5.356871693
32.36693699,-0.8380861282,-2.997010469,-3.894318819,4.984995404
32.36926834,-1.107278705,-2.623131752,-3.618546009,4.60442847
32.37158673,-1.186840057,-2.417947292,-3.276372433,4.24142367
32.37389225,-1.315454245,-2.218146563,-2.745165825,3.766500956
32.37622355,-1.391426325,-2.003390789,-2.270190477,3.332177467
32.37854199,-1.39860487,-1.844268084,-1.899302959,2.994122923
32.38084746,-1.357328653,-1.631306887,-1.776670814,2.767681776
32.38317881,-1.223330617,-1.417149186,-1.920240164,2.681822496
32.3854972,-1.082752228,-1.121037364,-1.992623091,2.529747802
32.38780267,-0.9631111026,-0.7824530005,-1.984248161,2.340311189
32.39013402,-0.784845829,-0.498903513,-1.932204247,2.144364927
32.39245241,-0.6167500615,-0.2356930375,-1.789831281,1.907728455
32.39475793,-0.4791627228,-0.04486542568,-1.704287887,1.770933941
32.39708923,-0.3170489967,0.1507478207,-1.675574064,1.711956021
32.39940767,-0.1746760458,0.3415754437,-1.594816327,1.640312355
32.40171314,-0.06939185411,0.4929214716,-1.580459356,1.656996857
32.40404449,-0.1130608693,0.7226324677,-1.615753531,1.773595196
32.40636288,-0.2087737769,0.9170492887,-1.632503271,1.884046926
32.4086684,-0.3182454109,1.097109199,-1.630110383,1.990524704
32.4109997,-0.4510470629,1.228116274,-1.636690736,2.095344745
32.41331808,-0.561715126,1.278365493,-1.667199135,2.174694271
32.4156236,-0.6771687865,1.285543919,-1.53918314,2.116663759
32.41795491,-0.8207381964,1.253839016,-1.383051515,2.039253529
32.42027334,-0.9768698215,1.154536963,-1.18743825,1.922820804
32.42259173,-1.138983607,1.088734269,-0.9786644578,1.854834248
32.42491017,-1.314856052,1.022333503,-0.8129615188,1.853353356
32.42722855,-1.496112347,0.8309076428,-0.7704889178,1.876809217
32.42954699,-1.602592945,0.6699903607,-0.7555337548,1.894207614
32.43186538,-1.765304923,0.5024927258,-0.7130611539,1.969075067
32.43418381,-2.093121529,0.3792623878,-1.024726272,2.36115684
32.43648928,-2.720639229,0.3768695593,-1.984248161,3.388384459
32.43882058,-2.516052961,0.4809573591,-0.3092723191,2.580211591
32.44113902,-2.429313183,0.142971158,0.04725824669,2.433975479
32.44345741,-2.346162558,-0.4127618968,-0.1872383654,2.389541658
32.44577584,-2.42572403,-0.8572286963,-0.6993024349,2.666083645
32.44809423,-2.484946251,-1.234098315,-1.040279627,2.963129802
32.45039975,-2.620140791,-1.47756803,-1.269392371,3.264919913
32.45273105,-2.738585472,-1.677368641,-1.364507079,3.48931161
32.45504949,-2.81395936,-1.886142492,-1.353739381,3.648083208
32.45735496,-2.870190859,-2.136790514,-1.304686546,3.80868432
32.45968626,-2.913859844,-2.315055847,-1.222732425,3.917286988
32.4620047,-2.885145903,-2.516052961,-1.125224829,3.990077731
32.46431017,-2.867797852,-2.707478762,-0.94277215,4.055061663
32.46664152,-2.887538671,-2.90967226,-0.7692924738,4.170837224
32.46895991,-2.839682341,-3.004188776,-0.4396811724,4.15719443
32.47126543,-2.803789854,-3.059821844,-0.0185443759,4.150191701
32.47359673,-2.689532757,-3.176471949,0.4025924206,4.181583569
32.47591512,-2.585444927,-3.273979664,0.8715856671,4.261822367
32.47822064,-2.511267424,-3.343371391,1.421934843,4.416615789
32.48055194,-2.399402857,-3.435495138,2.009970903,4.647552468
32.48287038,-2.233700037,-3.564707518,2.584846735,4.937407031
32.48517584,-2.038684845,-3.722633839,3.226721287,5.331600966
32.4875072,-1.880160451,-3.818346739,3.939782381,5.799712092
32.48982558,-1.624726534,-3.984049797,4.768297195,6.422542117
32.4921311,-1.414158225,-4.227519512,5.520840168,7.095874919
32.49446241,-1.313061476,-4.482953072,6.253642082,7.805705476
32.49678084,-1.208973646,-4.694717884,7.071987152,8.574088614
32.49908631,-1.125823021,-4.873581409,8.013563156,9.446505581
32.50141762,-1.101296663,-5.145765305,8.845068932,10.2920843
32.50373605,-1.171884894,-5.434100151,9.681958199,11.16436623
32.50604152,-1.240678549,-5.803791523,10.55713367,12.11100123
32.50837288,-1.37048912,-6.256632805,11.55135155,13.20823293
32.51069126,-1.808375716,-6.740581512,12.41934776,14.24590681
32.51299678,-2.373680115,-7.275377274,13.31904888,15.36107206
32.51532808,-2.945564747,-7.916653633,14.07278824,16.41319973
32.51764652,-3.59102869,-8.690134048,14.4634161,17.25121219
32.51995199,-4.231706619,-9.492925644,14.23011589,17.62155431
32.52228329,-4.843671322,-10.3728857,13.74497128,17.88804475
32.52460173,-5.330012321,-11.3072834,13.11266804,18.11644977
32.5269072,-5.723033428,-12.02333546,12.7375927,18.42715319
32.52923855,-6.101697922,-12.69571877,12.12383366,18.58492225
32.53155694,-6.301498413,-13.40818214,11.35513973,18.66621089
32.53386246,-6.378068924,-14.02612782,10.44287586,18.61358861
32.53619376,-6.278168201,-14.54895973,9.79860878,18.6306296
32.5385122,-5.860620975,-15.08196068,9.443872452,18.73497112
32.54081767,-5.336592674,-15.5174551,9.108279228,18.76782845
32.54314902,-4.79820776,-15.80758476,8.962317467,18.79429882
32.54546741,-4.047459602,-16.10608864,9.119047165,18.94584497
32.54777288,-3.204587698,-16.42313766,9.133403778,19.06326041
32.55010423,-2.598007202,-16.47099495,9.21535778,19.05167014
32.55242262,-2.174477577,-16.29751587,9.346963882,18.91304074
32.55472814,-1.843071699,-15.9003067,9.537193298,18.63262522
32.55705944,-1.687538147,-15.44088459,9.449854851,18.1815417
32.55937788,-1.753939033,-14.86122322,9.34457016,17.64237085
32.56168334,-1.785045743,-14.16610813,9.163313866,16.9655925
32.5640147,-1.976471543,-13.46022511,8.712266922,16.15511357
32.56633308,-2.307877541,-12.68136215,8.312665939,15.33765496
32.56863855,-2.566302299,-11.96830082,7.837690353,14.53463182
32.57096991,-2.781058073,-11.28694439,7.411170006,13.78603781
32.57328829,-2.94317174,-10.61874866,7.009175777,13.05942679
32.57559381,-3.275176048,-9.854242325,6.656832695,12.33475948
32.57792512,-3.410968781,-9.104091644,6.297310829,11.58340694
32.58024355,-3.504886866,-8.414361,6.248258114,11.05108286
32.58254902,-3.456432343,-7.875975609,6.202196121,10.60401589
32.58488032,-3.382853031,-7.413562775,6.199205399,10.23888447
32.58719876,-3.210569859,-6.909275532,6.282954216,9.87529042
32.58950423,-2.888136864,-6.623931408,6.154938221,9.49215815
32.59183558,-2.481357098,-6.330810547,6.247061729,9.233746557
32.59415397,-1.959721804,-6.120840549,6.521637917,9.156252492
32.59645949,-1.414158225,-5.958128452,7.074379921,9.356601381
32.59879079,-0.9361918569,-5.65304327,7.705487251,9.6024938
32.60110923,-0.4941178858,-5.204389095,8.226524353,9.747077576
32.6034147,-0.2183450609,-4.716851711,8.597412109,9.808764428
32.605746,0.03708875179,-4.307679176,8.72064209,9.726616777
32.60806444,0.2440679073,-3.874577999,8.78584671,9.605364451
32.61036991,0.3296113312,-3.493520975,8.793622971,9.467900368
32.61270126,0.3290131092,-3.099901676,8.776275635,9.313466274
32.61501965,0.1986042857,-2.723032236,8.949754715,9.356947028
32.61732517,-0.0568295382,-2.334796667,9.230313301,9.521196811
32.61965647,-0.5264210105,-2.003988981,9.619745255,9.84035516
32.62197491,-1.081555843,-1.853839397,9.928419113,10.15775515
32.62428038,-1.567897081,-1.907677889,10.03489971,10.33425123
32.62661168,-2.024327993,-2.250449657,9.808179855,10.26463928
32.62893012,-2.479562521,-2.848655462,9.036494255,9.793941835
32.63123558,-2.841476917,-3.626920938,7.889136314,9.136028588
32.63356694,-3.12383008,-4.424329281,6.389434814,8.376030158
32.63588532,-3.272184849,-5.218147755,4.877170563,7.856401999
32.63819084,-3.238685369,-6.007779598,3.223132133,7.547918877
32.64052215,-3.090330362,-6.795018196,1.551147223,7.624203023
32.64284058,-2.940778971,-7.558328629,0.1513460279,8.111684056
32.64514605,-2.887538671,-8.336593628,-0.9828519225,8.877086842
32.64747735,-2.910868645,-9.101698875,-1.545165181,9.679959407
32.64979579,-3.097508907,-9.826724052,-1.479960799,10.40909943
32.65210126,-3.549752474,-10.70130062,-1.085743308,11.32684493
32.65443262,-4.218546391,-11.67517948,-0.2123630047,12.41575804
32.656751,-5.048257351,-12.83510113,1.15393877,13.84038648
32.65905652,-5.975476265,-14.16551018,2.819941521,15.63074104
32.66138782,-6.99063158,-15.63171196,4.52482748,17.71139216
32.66370626,-8.029714584,-17.2426796,6.072385788,19.96647653
32.66601173,-9.029315948,-18.79622078,7.305287361,22.09510547
32.66834303,-9.876375198,-20.16910172,7.990232944,23.83651135
32.67066147,-10.35194874,-21.39003944,8.23370266,25.1493636
32.67296694,-10.52722359,-22.25983047,7.842476368,25.84234751
32.67529829,-10.35494041,-22.74198532,7.036693096,25.9603108
32.67761668,-9.833903313,-23.0536499,6.032305717,25.77916097
32.6799222,-8.935398102,-23.01476669,5.109274387,25.21161458
32.6822535,-7.919046402,-22.61755753,4.40937376,24.36611954
32.68457189,-6.845267296,-21.74776649,3.859622955,23.12400746
32.68687741,-5.916851997,-20.59861374,3.367897987,21.6945791
32.68920871,-5.221737385,-19.30589104,2.801995277,20.19492876
32.69152715,-4.901099205,-17.67159271,2.177468538,18.46746684
32.69383262,-4.972285271,-15.58565044,1.183848977,16.40236626
32.69616397,-5.200201988,-13.35553932,-0.2183450609,14.33388314
32.69848235,-5.392824173,-11.13978577,-1.886142492,12.51938149
32.70078788,-5.510072231,-9.108877182,-3.390031576,11.17250436
32.70311918,-5.596213818,-7.263412952,-4.601995945,10.25929547
32.70543756,-5.458028316,-5.023731232,-5.375475883,9.160987369
32.70774308,-5.041677475,-3.157329559,-6.239284992,8.620668125
32.71007438,-4.338187218,-2.204986095,-6.649653912,8.240129196
32.71239282,-3.737588882,-1.729412556,-6.300302029,7.526901361
32.71469829,-3.309871912,-1.36211431,-5.492724419,6.555961334
32.71702965,-3.041277647,-1.167099237,-4.551746845,5.597310935
32.71934803,-2.883949518,-1.127617717,-3.454039574,4.638865801
32.7216535,-2.810370207,-1.138385415,-2.508874655,3.935550036
32.72398485,-2.707478762,-1.283749342,-1.7670995,3.478662711
32.72630324,-2.519642353,-1.720439434,-1.094716311,3.241436909
32.72860876,-2.312064886,-2.243271112,-0.902692318,3.345558659
32.73094006,-1.956730723,-3.003590584,-1.085145116,3.745382683
32.7332585,-1.493121386,-3.982853174,-1.551147223,4.527536702
32.73556397,-0.932602644,-4.969892502,-2.297109842,5.553943896
32.73789532,-0.3014956415,-5.706882,-3.64127779,6.776304725
32.74021371,0.3487538993,-6.381658077,-5.300102234,8.30290749
32.74251918,0.9272187948,-7.018746853,-6.945765972,9.917973937
32.74485053,1.456032634,-7.758727551,-8.681160927,11.73373083
32.74716892,1.956132531,-8.575876236,-10.05404282,13.35873814
32.74947444,2.498705149,-9.496515274,-11.13021469,14.84281
32.75180574,2.877369165,-10.31964588,-11.7218399,15.88004645
32.75412418,3.102294445,-10.81914711,-11.9216404,16.3952336
32.75642965,3.190829039,-11.15773201,-11.69432259,16.47524064
32.758761,3.267997503,-11.55314636,-11.15593719,16.38932376
32.76107938,3.181257725,-11.91446209,-10.42014408,16.14478895
32.76338485,3.078964472,-12.32303619,-9.382855415,15.79161863
32.76571621,2.927618504,-12.76570892,-8.140382767,15.42076866
32.76803459,2.938386202,-13.3782711,-6.910471916,15.34167114
32.77034012,3.004786968,-14.00878048,-5.874379635,15.48492852
32.77267142,2.682952404,-14.40419388,-5.001597404,15.48208679
32.77498985,2.611167669,-14.93121338,-3.786641836,15.62363549
32.77729532,2.648854733,-15.38046551,-2.891128063,15.87242175
32.77962662,2.756531715,-15.76989746,-1.956730723,16.12814088
32.78194506,2.906083107,-16.23530197,-1.183848977,16.53577478
32.78425053,3.032304525,-16.6163578,-0.7746763229,16.90852864
32.78658189,3.253640652,-16.81197166,-0.409172684,17.12880588
32.78890027,3.564707518,-16.9292202,-0.1764706671,17.30135192
32.79120579,3.82731986,-16.92802429,-0.1794617027,17.35622627
32.79353709,4.137190342,-16.83948898,-0.4205385745,17.34536208
32.79585548,4.36211586,-16.57567978,-0.8111668825,17.15923095
32.798161,4.545764923,-16.17787361,-1.232303619,16.8495147
32.8004923,4.709673405,-15.80040646,-1.49132669,16.55469489
32.80281074,4.829314232,-15.37089443,-1.755733609,16.20707475
32.80512912,4.829314232,-14.93360615,-1.973480463,15.81864386
32.80744756,4.745565414,-14.57109356,-2.215155602,15.48367117
32.80976595,4.462614059,-14.12662697,-2.258824587,14.9859535
32.81207142,4.205984116,-13.67079353,-2.059622049,14.45070729
32.81440277,3.951746702,-13.32622719,-1.844866276,14.02170334
32.81672116,3.558725595,-12.80638695,-1.54217422,13.38082119
32.81902668,3.177070379,-12.35833073,-1.181456208,12.8147553
32.82135798,2.742773056,-11.86899853,-0.9409775138,12.21807549
32.82367642,2.306680918,-11.48016453,-0.7806583643,11.73560318
32.82598189,1.895713687,-11.13858986,-0.5575276613,11.31250421
32.82831324,1.488933921,-10.78804111,-0.3972085714,10.89754697
32.83063162,1.074377418,-10.47517967,-0.2362912297,10.53278261
32.83293709,0.836291492,-10.37946606,-0.0239282269,10.41312977
32.83526845,0.6323033571,-10.30708313,0.1740778536,10.32792686
32.83758683,0.4666004181,-10.07557774,0.471386075,10.09738518
32.83989235,0.1938186288,-9.837491989,0.4193421602,9.848332963
32.84222366,-0.1160518974,-9.436096191,0.313459754,9.442014425
32.84454209,-0.3708875179,-9.135198593,0.199800685,9.144907392
32.84684756,-0.5826523304,-9.020342827,-0.06041877344,9.039342835
32.84917892,-0.7531409264,-8.790034294,-0.3457628787,8.829013315
32.8514973,-0.860219717,-8.605786324,-0.7004988194,8.676994572
32.85380277,-0.8452646136,-8.5148592,-1.063609719,8.6225614
32.85613413,-0.8452646136,-8.447860718,-1.278963685,8.585835491
32.85845251,-0.7866404653,-8.471190453,-1.402194023,8.622413756
32.86075803,-0.7692924738,-8.398209572,-1.436291814,8.554803861
32.86308933,-0.6245267391,-8.336593628,-1.230509043,8.450028371
32.86540777,-0.5401797295,-8.295916557,-1.186241865,8.397689886
32.86772616,-0.3912265003,-8.383254051,-0.9744769931,8.448763938
32.87004459,-0.261415869,-8.380861282,-1.078564763,8.454021294
32.87236298,-0.06101697683,-8.318648338,-1.301695466,8.420097644
32.87468136,0.2279163599,-8.322237015,-1.642672777,8.485867584
32.8769998,0.4857429862,-8.234899521,-1.974676847,8.482267681
32.87931819,0.8356932998,-8.189435959,-2.315055847,8.551299795
32.88163662,1.269990563,-8.011170387,-2.389233351,8.455776902
32.88395501,1.579262972,-7.835896015,-2.273181438,8.310396606
32.88627345,1.91365993,-7.678567886,-2.180459738,8.208343547
32.88857892,2.355733871,-7.687541008,-1.995614052,8.284337286
32.89091022,2.91804719,-7.908876896,-1.850848317,8.630815295
32.89322866,2.966501951,-7.950751305,-1.735394597,8.661765094
32.89553413,3.067000389,-8.040482521,-2.058425665,8.848331299
32.89786548,3.063411236,-8.194221497,-2.271386862,9.038194101
32.90018386,3.096910715,-8.130811691,-1.942971945,8.914936607
32.9025023,3.081955671,-7.880163193,-1.42971158,8.581345926
32.90482069,2.9491539,-7.503891945,-1.032503009,8.128466369
32.90713907,2.797807932,-7.301100254,-1.255633712,7.918990476
32.90945751,2.532204628,-7.100701332,-1.506880045,7.687828507
32.9117759,2.129612207,-7.004988194,-1.549352646,7.483689021
32.91409433,1.740180254,-6.95114994,-1.429113269,7.306782982
32.91641272,1.472184181,-6.97627449,-1.226321578,7.234611022
32.91873116,1.275972724,-6.970890522,-1.084546804,7.169216333
32.92104954,1.074377418,-6.951747894,-1.005583763,7.105792308
32.92336793,0.8835497499,-6.970292568,-0.9164510965,7.085585456
32.92568637,0.7405785918,-7.036095142,-0.7124629617,7.110745037
32.92800475,0.6484549642,-7.095317364,-0.4217349887,7.137358246
32.93032319,0.537786901,-7.265207767,-0.2979064286,7.291173218
32.93264157,0.3936193287,-7.43749094,-0.2069791555,7.450774995
32.93496001,0.1938186288,-7.479963779,-0.1561316848,7.484103213
32.9372784,-0.0382851623,-7.370491982,-0.09212367237,7.371167111
32.93959678,-0.2350948304,-7.355536938,0.03050848842,7.359356221
32.94191522,-0.35174492,-7.482954502,0.1543370634,7.492806717
32.9442336,-0.4737788737,-7.605587006,0.2590230405,7.62473036
32.94655204,-0.6053841114,-7.73300457,0.4115654826,7.767575925
32.94887043,-0.7393822074,-7.7838521,0.6107679605,7.842708529
32.95118886,-0.8470591903,-7.74736166,0.8763712645,7.842649333
32.95350725,-0.9391828775,-7.777870178,1.162911773,7.920207875
32.95582564,-1.001396298,-7.846065521,1.424925923,8.037036307
32.95813116,-1.042074203,-7.990831375,1.597209096,8.215252985
32.96046246,-1.05224371,-8.173283577,1.665404558,8.40733927
32.9627809,-1.086939692,-8.32762146,1.804188251,8.58986684
32.96509928,-1.039083242,-8.388637543,1.943570137,8.673315323
32.96741772,-0.985244751,-8.488538742,2.111665964,8.80256385
32.9697361,-0.9816554785,-8.497511864,2.312064886,8.860981852
32.97205454,-0.9840483069,-8.444869041,2.383251429,8.829725453
32.97437293,-1.004387259,-8.382058144,2.397010088,8.775725033
32.97669131,-0.97926265,-8.233104706,2.353341103,8.618653188
32.97900975,-0.9607182741,-8.035696983,2.309073925,8.415891397
32.98132814,-0.8979067206,-7.842476368,2.193620205,8.192840879
32.98364657,-0.8303094506,-7.649255753,2.02073884,7.955118655
32.98596496,-0.6616154313,-7.434499741,1.730010748,7.661752969
32.9882834,-0.4480560422,-7.261618614,1.277767301,7.386782005
32.99060178,-0.1339980662,-7.235895634,0.7220342159,7.273065001
32.99290725,0.2003988922,-7.253243446,0.07178468257,7.256366394
32.9952386,0.5078766346,-7.334599495,-0.5312066078,7.371327485
32.99755699,0.7896314859,-7.357331276,-1.057627559,7.474785444
32.99986251,1.032503009,-7.419544697,-1.441675663,7.628508025
33.00219381,1.317248821,-7.480561733,-1.663011789,7.775574353
33.00451225,1.488933921,-7.5924263,-1.889133453,7.964338425
33.00681772,1.588834286,-7.743772507,-1.939980984,8.139651912
33.00914902,1.628315806,-8.020741463,-1.851446509,8.391159643
33.01146746,1.57866478,-8.376673698,-1.582253933,8.66973888
33.01378584,1.42372942,-8.788239479,-1.189232826,8.981894751
33.01610428,1.255633712,-9.237491608,-0.7010970116,9.348764851
33.01842267,1.040877819,-9.770493507,-0.1507478207,9.826937209
33.02072814,0.7663014531,-10.21735287,0.4558327198,10.25618355
33.02305949,0.4881358147,-10.53021431,1.071386337,10.59582742
33.02537788,0.2368894368,-10.72762203,1.523629785,10.83787058
33.0276834,0.09930214286,-10.85025406,1.832902193,11.00442659
33.0300147,-0.009571290575,-10.91964626,1.937588096,11.09022154
33.03233314,-0.06580262631,-10.94058323,1.908276081,11.10595376
33.03465152,-0.07537391037,-10.88794136,1.77009058,11.03114541
33.03696996,-0.03050848842,-10.73838997,1.57866478,10.85385334
33.03928834,0.1136590764,-10.53320503,1.363908887,10.62175005
33.04160673,0.2817548811,-10.32802105,1.15393877,10.39610404
33.04392517,0.5258227587,-10.10189915,0.9200403094,10.15732889
33.04624355,0.8829515576,-9.796813965,0.6538388133,9.85822867
33.04856199,1.319641709,-9.455238342,0.3314059377,9.552633995
33.05088038,1.839482427,-9.155537605,-0.0,9.338499046
33.05319876,2.449652195,-8.868398666,-0.3122633696,9.205802474
33.05550428,3.095714331,-8.642276764,-0.6562315822,9.203425165
33.05783558,3.780659676,-8.52622509,-0.8656035662,9.366918992
33.06015402,4.467998028,-8.486145973,-1.012163997,9.643762534
33.06245949,5.030909538,-8.482556343,-1.088136077,9.922089146
33.06479084,5.426921844,-8.487939835,-1.051047325,10.12923017
33.06710923,5.690132141,-8.384450912,-0.8685946465,10.17010706
33.0694147,5.899504185,-8.442476273,-0.665802896,10.32099069
33.07174605,5.99940443,-8.688937187,-0.4199403822,10.56725285
33.07406444,6.02811861,-8.956933022,-0.1698904037,10.79785747
33.07636996,5.950351715,-9.32303524,0.03290131316,11.06014259
33.07870126,5.807380676,-9.744172096,0.2111666054,11.34544629
33.0810197,5.61715126,-10.17069244,0.3840480447,11.62509639
33.08332517,5.373083115,-10.58405304,0.6137589812,11.88565947
33.08565652,5.096114159,-10.84008503,0.879960537,12.0105018
33.08797491,4.797011375,-11.13021469,1.066002488,12.16673163
33.09028038,4.487140656,-11.37248802,1.246062398,12.28904335
33.09261173,4.195216179,-11.56630611,1.459621787,12.38990604
33.09493012,3.970889091,-11.8211422,1.616949916,12.57465268
33.09723558,3.774677753,-12.01256752,1.764108539,12.71463918
33.09956694,3.618546009,-12.11186981,1.911267042,12.78453
33.10188532,3.466003656,-12.13460159,1.986641049,12.77530743
33.10420376,3.36550498,-12.13220882,2.038086653,12.75425074
33.10652215,3.275176048,-12.12981606,1.965703845,12.71704397
33.10884058,3.23330164,-12.51446247,1.934597135,13.06937935
33.11115897,3.133999348,-12.15254784,1.792822361,12.67756218
33.11347741,3.053839922,-11.94377422,1.633699656,12.43578126
33.11579579,2.978466034,-11.9216404,1.427916884,12.37076054
33.11811418,2.885744095,-11.99641609,1.236491084,12.40042049
33.12043262,2.797807932,-12.05145168,1.135992527,12.42399678
33.122751,2.69312191,-12.01077366,0.9433703423,12.34510175
33.12506944,2.572882652,-11.90369415,0.7513462901,12.2017286
33.12738782,2.445464849,-11.92104244,0.5928218365,12.18371819
33.12970626,2.303091764,-11.91027451,0.5150550604,12.1418348
33.13202465,2.156531334,-11.91864967,0.390030086,12.11845538
33.13434303,2.021935225,-12.03709412,0.3230310678,12.21000434
33.13666147,1.840080619,-12.1854496,0.2937189937,12.32709818
33.13897985,1.714457393,-12.34696484,0.3224328458,12.46959774
33.14129829,1.579262972,-12.46540928,0.3505485058,12.56993971
33.14361668,1.414756417,-12.57488155,0.3738785386,12.65973803
33.14593512,1.28315115,-12.65922832,0.4498506486,12.73204242
33.1482535,1.168893814,-12.69990635,0.5635097623,12.76602825
33.15057189,1.089332461,-12.81715488,0.7208378315,12.88354422
33.15289032,1.03848505,-12.94277763,0.9595218897,13.01977828
33.15520871,1.010967612,-12.87039471,1.174277663,12.96333458
33.15752715,1.031904817,-12.82672596,1.436291814,12.94807555
33.15984553,1.096511006,-12.83390427,1.703689694,12.99284394
33.16216397,1.171286702,-12.84168053,1.928615093,13.03841353
33.16448235,1.279561877,-12.84347534,2.091326952,13.07538856
33.16680074,1.421336651,-12.83988667,2.227119684,13.10888819
33.16911918,1.579262972,-12.88415337,2.333600283,13.18867582
33.17143756,1.731207132,-12.89970684,2.42572403,13.23947324
33.173756,1.916052699,-12.99661636,2.428116798,13.35960501
33.17607438,2.035095692,-13.14257812,2.325225353,13.50094986
33.17839282,2.226521492,-13.32562923,2.170290232,13.68356504
33.18071121,2.394617319,-13.67258835,1.99800694,14.02376183
33.18302959,2.542374134,-13.99561977,1.849053741,14.34433822
33.18534803,2.660220623,-14.28156185,1.718644857,14.62851745
33.18766642,2.804986238,-14.48495197,1.582852125,14.83870622
33.18998485,2.944966555,-14.68834209,1.43808639,15.0495287
33.19230324,3.09272337,-14.78584957,1.249053478,15.1573883
33.19462162,3.305684566,-14.88694572,1.165902853,15.29405221
33.19694006,3.54018116,-14.89591885,1.072582722,15.34834566
33.19925845,3.74536562,-14.86720562,0.9882357717,15.36353398
33.20157688,3.968496323,-14.82353592,0.932602644,15.3738716
33.20389527,4.129413605,-14.73859119,0.8949156404,15.33228623
33.20621371,4.293322086,-14.6578331,0.9672985673,15.30425928
33.20853209,4.439284325,-14.59143257,1.034895778,15.2868623
33.21085053,4.482355118,-14.42273808,1.015154958,15.13728577
33.21316892,4.447659016,-14.18824196,1.046261668,14.90578895
33.2154873,4.35852623,-14.04646683,0.9828519225,14.73994502
33.21780574,4.255036831,-13.89033508,0.9044869542,14.55557776
33.22012413,4.109673023,-13.77368546,0.8213363886,14.39716697
33.22244256,3.924229145,-13.80239964,0.7339983582,14.36817886
33.22476095,3.684946775,-13.86580944,0.4558327198,14.35434734
33.22707933,3.46420908,-13.90050507,0.1585244983,14.32654584
33.22939777,3.186641455,-13.90768337,-0.2829512656,14.27089352
33.23171616,2.887538671,-13.8676033,-0.6293123364,14.17901037
33.23403459,2.575275421,-13.74497128,-0.7190431952,14.00261768
33.23635298,2.236690998,-13.61396408,-0.5796613097,13.80864989
33.23867142,1.901695848,-13.4721899,-0.2931207716,13.60890398
33.2409898,1.549352646,-13.2777729,0.1992024779,13.3693466
33.24329527,1.176670551,-13.06481171,0.7663014531,13.14005618
33.24562662,0.8009973764,-12.75972652,1.43808639,12.86546969
33.24794501,0.4145565331,-12.44148159,2.210369825,12.6431031
33.25025053,0.01495514158,-12.1663065,2.938984394,12.51626409
33.25258183,-0.3990031779,-12.01137161,3.530609846,12.52587152
33.25490027,-0.8003991842,-11.93360519,3.941577196,12.59315697
33.25720574,-1.17068851,-11.90369415,4.262215137,12.69783147
33.25953704,-1.462014675,-12.1352005,4.495515347,13.02344948
33.26185548,-1.688734531,-12.44327641,4.543372154,13.353995
33.26416095,-1.820937991,-12.84945774,4.554738045,13.75390919
33.2664923,-1.884945989,-13.34118271,4.572085857,14.22828684
33.26881069,-1.907079697,-13.87478256,4.351347923,14.66563237
33.27111616,-1.8855443,-14.41795254,3.978665829,15.07522519
33.27344751,-1.908276081,-14.79901028,3.308675528,15.28396403
33.2757659,-1.965703845,-15.08016682,2.389831543,15.39437292
33.27807142,-1.951346874,-15.27936935,1.279561877,15.45652487
33.28040272,-1.877767563,-15.56291866,0.1088734269,15.67616987
33.28272116,-1.704886079,-15.97388554,-1.126421213,16.10405168
33.28502662,-1.439282775,-16.44586945,-2.289333105,16.66670942
33.28735793,-1.082752228,-16.98186302,-3.446861029,17.36193754
33.28967637,-0.7304090858,-17.54776573,-4.575077057,18.14907462
33.29198183,-0.4019941986,-17.86840248,-5.719444275,18.76575203
33.29431319,-0.1531406492,-17.9700985,-6.760322094,19.20025643
33.29663157,-0.02871387079,-17.91566086,-7.594819069,19.45900833
33.29893704,0.09690931439,-17.8079834,-8.167302132,19.59179645
33.3012684,0.1908276081,-17.66740608,-8.410173416,19.56795006
33.30358678,0.2039881349,-17.46999741,-8.359326363,19.36803443
33.3058923,0.1818545163,-17.22951889,-8.155936241,19.06328115
33.3082236,0.04905286431,-16.96810341,-7.867600918,18.70342438
33.31054204,-0.09272187948,-16.78325844,-7.412964344,18.34770834
33.31284751,-0.3170489967,-16.59123421,-6.858428001,17.95571238
33.31517886,-0.524028182,-16.37348747,-6.184250355,17.51030125
33.31749725,-0.7423732281,-16.26162338,-5.485546112,17.17797221
33.31981564,-0.9798609018,-16.14616966,-4.706682205,16.84671421
33.32213407,-1.227517962,-16.04447365,-3.869792461,16.55014286
33.32445246,-1.458425403,-16.04866219,-2.984447956,16.38882217
33.32675798,-1.678565025,-16.13360596,-2.065006018,16.35160761
33.32908928,-1.892722726,-16.276577,-1.08335042,16.42202808
33.33140767,-2.197209358,-16.57029724,-0.1872383654,16.71638531
33.33371319,-2.430509567,-16.82393646,0.6233302951,17.01001927
33.33604449,-2.745165825,-16.88136292,1.923231244,17.21090258
33.33836293,-2.954537868,-16.8412838,2.965903759,17.35380993
33.3406684,-3.18006134,-16.84008789,3.75134778,17.54348769
33.34299975,-3.339782238,-16.86760521,4.159922123,17.69110519
33.34531814,-3.457030535,-16.88375664,4.569693089,17.82959319
33.3476236,-3.496512175,-16.88914108,4.764708042,17.89332632
33.34995496,-3.553939819,-17.07757568,4.808377266,18.09404796
33.35227334,-3.594019651,-17.34736633,4.686343193,18.32511687
33.35457886,-3.58504653,-17.56451416,4.315455437,18.43876004
33.35691017,-3.709473372,-17.72722626,3.710071564,18.48727602
33.3592286,-3.877569199,-17.63629913,2.854039192,18.28168837
33.36154699,-3.989433527,-17.26122475,1.881955028,17.81592586
33.36386543,-4.148556232,-16.73360634,1.007976532,17.26962989
33.36618381,-4.341776848,-16.17308807,0.05862415582,16.74584249
33.36848928,-4.527220249,-15.66580963,-1.086939692,16.34303376
33.37082064,-4.721039295,-15.22612858,-2.132004976,16.08317906
33.37313902,-4.907081127,-14.75653744,-3.12921381,15.86274949
33.37544454,-5.112265587,-14.35992718,-4.41236496,15.86857689
33.37777584,-5.242076397,-13.98544979,-5.541777134,15.93058268
33.38009423,-5.233103275,-13.72762394,-6.321238995,15.99347027
33.38239975,-5.137390137,-13.4285202,-6.737590313,15.87806838
33.38473105,-4.867599487,-13.1581316,-6.693921566,15.54472701
33.38704949,-4.380061626,-12.95892906,-6.352943897,15.08239631
33.38935496,-3.808177233,-12.72323608,-5.829514027,14.50400579
33.39168626,-3.284747362,-12.40678501,-4.906482697,13.74014017
33.3940047,-2.86480689,-12.0155592,-3.78484726,12.9192047
33.39631017,-2.451446772,-11.68654537,-2.834298372,12.27265991
33.39864152,-2.046461582,-11.35872936,-2.060220242,11.7240456
33.40095991,-1.630110383,-11.03629589,-1.534397483,11.26105956
33.40326543,-1.304686546,-10.76889801,-1.252044439,10.91966055
33.40559673,-1.016351461,-10.56431198,-0.993021369,10.65944414
33.40791517,-0.7298108935,-10.31186962,-0.6969096065,10.36112745
33.41022064,-0.5120640397,-10.10010433,-0.5581258535,10.1284659
33.41255194,-0.2105683982,-9.85244751,-0.2518445849,9.857914925
33.41487038,-0.02871387079,-9.583852768,-0.06101697683,9.584090016
33.41717584,-0.07118647546,-9.359525681,-0.2446661144,9.362993644
33.4195072,0.1280160099,-9.456435204,-0.9864411354,9.50860773
33.42182558,0.494716078,-9.585647583,-2.303091764,9.870846735
33.42413105,0.7220342159,-9.586843491,-3.260220766,10.15174571
33.42646241,0.87517488,-9.425328255,-3.870988846,10.22679316
33.42878079,0.9996016622,-9.163912773,-4.191029072,10.12626414
33.43108631,1.162313581,-8.953942299,-4.367499352,10.02991057
33.43341762,1.450648785,-8.817551613,-4.461417675,9.987884962
33.43573605,1.829911113,-8.636295319,-4.779065132,10.03860723
33.43804152,1.94177556,-8.394021988,-5.223531723,10.07548416
33.44037282,2.033899307,-8.060821533,-5.306084156,9.862460101
33.44269126,2.108076811,-7.674978733,-5.069792747,9.436741222
33.44499673,2.20618248,-7.331010342,-4.723432064,8.995652518
33.44732808,2.271985054,-7.006783009,-4.505086899,8.634392404
33.44964647,2.298904419,-6.756732941,-4.530809879,8.453794398
33.45195194,2.324028969,-6.592824459,-4.642076015,8.391383362
33.45428329,2.304288149,-6.502495766,-4.852644444,8.434474089
33.45660168,2.196611166,-6.30867672,-5.078765869,8.391565129
33.4589072,2.033301115,-6.096313953,-5.076971531,8.189932672
33.4612385,1.808973908,-5.779264927,-4.952544689,7.823042157
33.46355694,1.490130305,-5.460421085,-4.881956577,7.474636231
33.46586241,1.165304661,-5.15533638,-4.596014023,7.004196816
33.46819376,0.7274180651,-4.775475979,-4.09172678,6.330603124
33.47051215,0.433100909,-4.291527271,-3.535395384,5.577078378
33.47281762,0.2368894368,-3.853640795,-3.086741209,4.943140224
33.47514897,0.1483550072,-3.466003656,-2.809173822,4.463927432
33.47746735,0.1310070455,-3.206980467,-2.648854733,4.16152832
33.47977288,0.06699903309,-2.934797049,-2.679961443,3.974885649
33.48210418,0.04247260094,-2.699702263,-2.748754978,3.853031295
33.48442256,0.08793623,-2.506481647,-2.554338217,3.579780266
33.48672808,0.1627119333,-2.317448616,-2.368894339,3.317936655
33.48905939,0.1860419661,-2.138585329,-2.260020971,3.117026406
33.49137782,0.1561316848,-1.928016901,-2.204387903,2.932738021
33.49368329,0.09212367237,-1.703689694,-2.092523336,2.699944307
33.49601465,0.06400800496,-1.424925923,-1.846660852,2.33338107
33.49833303,0.05024927482,-1.194616675,-1.490728498,1.91099593
33.5006385,0.06400800496,-0.9104689956,-1.125224829,1.448855318
33.50296985,0.0568295382,-0.7226324677,-0.8165507317,1.091871044
33.50528824,0.02572284266,-0.6323033571,-0.7890332937,1.011455752
33.50759376,-0.111864455,-0.6496513486,-0.866201818,1.088515558
33.50992506,-0.2871387303,-0.537786901,-0.7830511928,0.9923873094
33.5122435,-0.4378865361,-0.4552344978,-0.6993024349,0.9423412131
33.51456188,-0.5940182209,-0.3768695593,-0.5676971674,0.9039736641
33.51688027,-0.7088736892,-0.3888336718,-0.4205385745,0.9113430881
33.51919871,-0.8003991842,-0.4193421602,-0.2350948304,0.9336788959
33.52151709,-0.8626125455,-0.4348955154,-0.107078813,0.9719569873
33.52383553,-0.9284151793,-0.5132604837,-0.01136590727,1.060905393
33.52615392,-1.036690354,-0.5694918036,-0.01615155302,1.182923784
33.5284723,-1.14795661,-0.6777670383,-0.04067798331,1.333726822
33.53079074,-1.239482164,-0.8093722463,-0.09810572863,1.483584916
33.53310912,-1.379462242,-0.8847461939,-0.2416750938,1.656532148
33.53542756,-1.532602906,-0.9894321561,-0.394815743,1.866474519
33.53774595,-1.745564103,-1.042672515,-0.5443671346,2.104874245
33.54006438,-1.84606266,-1.049850941,-0.4115654826,2.163219936
33.54238277,-1.883749604,-1.131805062,-0.2638086975,2.213388872
33.54470116,-1.962114573,-1.229910851,-0.2590230405,2.330164636
33.54701959,-2.033301115,-1.395015597,-0.3774677813,2.49456687
33.54933798,-2.091326952,-1.535593987,-0.4055834413,2.626060784
33.55165642,-2.177468538,-1.686939955,-0.4384847581,2.789158391
33.5539748,-2.160120726,-1.849651933,-0.3320041299,2.863138237
33.55629319,-2.176272154,-1.993819475,-0.2075773627,2.958811408
33.55861163,-2.182852507,-2.127817631,-0.09212367237,3.049744203
33.56093001,-2.146361828,-2.299502611,0.0580259487,3.146100501
33.56324845,-2.077568293,-2.441875458,0.2309073806,3.214399474
33.56556683,-2.009970903,-2.564507723,0.537786901,3.302407855
33.56788527,-1.921436548,-2.734996319,0.7686942816,3.429725087
33.57020366,-1.835893154,-2.824128866,1.118644595,3.549306025
33.57252204,-1.70548439,-2.839084148,1.582253933,3.670504504
33.57484048,-1.622931957,-2.88454771,2.122433662,3.931825058
33.57714595,-1.462014675,-2.985046148,2.644667149,4.247617184
33.5794773,-1.30289197,-3.038286448,3.218346357,4.61372575
33.58179569,-1.210768223,-3.111267567,3.887738705,5.124495858
33.58410116,-1.121635556,-3.122035265,4.714458942,5.764659022
33.58643251,-1.045065284,-3.176471949,5.435296535,6.381581616
33.5887509,-0.9954141974,-3.260818958,6.128018856,7.012589023
33.59105642,-0.9559326172,-3.364308596,6.83569622,7.678484376
33.59338772,-0.9014959335,-3.486342669,7.613961697,8.422570441
33.59570616,-0.8865407705,-3.58504653,8.468797684,9.238996015
33.59801163,-0.8787640929,-3.75134778,9.285946846,10.05353895
33.60034293,-0.9948160052,-3.906282902,9.943972588,10.72992525
33.60266136,-1.170090318,-4.10249424,10.49731255,11.33106972
33.60496683,-1.363908887,-4.341178417,11.055439,11.95528372
33.60729819,-1.772483349,-4.666602135,11.28814125,12.34264986
33.60961657,-2.328814745,-4.972285271,11.48614693,12.73100821
33.61192204,-2.976073265,-5.266004562,11.65364456,13.12993708
33.6142534,-3.677170277,-5.652445316,11.72662544,13.52721197
33.61657178,-4.595416069,-6.091528416,11.61715412,13.89902289
33.6188773,-5.621936798,-6.457031727,11.71525955,14.51022875
33.6212086,-6.622735023,-6.854838848,11.74756241,15.12794293
33.62352699,-7.444669247,-7.387839794,11.80618668,15.79206512
33.62583251,-8.157731056,-8.033304214,11.86182022,16.48591312
33.62816381,-8.522636414,-8.83968544,11.76431274,17.00512936
33.63048225,-8.577073097,-9.730413437,11.31745243,17.21429226
33.63278772,-8.059624672,-10.69890785,10.69472122,17.14063129
33.63511907,-7.109076023,-11.77268696,9.832706451,16.90613014
33.63743746,-6.044867992,-12.84048462,8.390432358,16.48689872
33.63974293,-5.019543648,-13.91486168,6.527620316,16.16876683
33.64207428,-4.195216179,-14.98923969,4.792225361,16.28626935
33.64439267,-3.576073408,-15.85125351,3.578466177,16.63898912
33.64669819,-3.288934708,-16.45544052,2.969492912,17.04161091
33.64902949,-3.400799274,-16.86162376,2.804986238,17.42836021
33.65134788,-3.66101861,-17.1936264,3.014956474,17.83574525
33.6536534,-4.00139761,-17.25883102,3.37986207,18.0361276
33.6559847,-4.565505505,-17.08415604,3.645465374,18.05551566
33.65830314,-5.179264545,-16.64267921,3.713062525,17.82106579
33.6606086,-5.695516109,-16.00618935,3.66101861,17.37929971
33.66293996,-6.038288116,-15.28953838,3.533600807,16.81419763
33.66525834,-6.172883987,-14.47657681,3.421736479,16.10540447
33.66756381,-6.177670002,-13.56371498,3.391227961,15.28523463
33.66989517,-6.092126369,-12.60658646,3.28414917,14.38143461
33.67221355,-5.850451469,-11.58724403,3.230908871,13.37650099
33.67451902,-5.565705299,-10.60080242,3.145365477,12.37931385
33.67685038,-5.376672268,-9.588638306,3.029911757,11.40311161
33.67916876,-5.202594757,-8.566305161,2.981456995,10.45646509
33.68147428,-5.097310543,-7.651648521,2.922832966,9.647447974
33.68380558,-5.09372139,-6.796812534,2.716451883,8.917497915
33.68612402,-5.079962254,-5.980261803,2.486740828,8.23124703
33.68842949,-5.193023205,-5.253442287,2.322832584,7.743493855
33.69076079,-5.376074314,-4.604987144,2.283350945,7.437860792
33.69307923,-5.531009674,-4.022335052,2.454437733,7.266052014
33.6953847,-5.684150219,-3.544966698,2.754737139,7.243267861
33.69771605,-5.846263885,-3.15433836,3.288934708,7.412539607
33.70003444,-5.992226124,-2.752344131,4.124628067,7.777835742
33.70233991,-6.277570248,-2.54117775,5.103292465,8.479921377
33.70467126,-6.631708145,-2.345564365,6.391229153,9.504158837
33.70698965,-6.969096184,-2.340778828,8.062616348,10.9111562
33.70929517,-7.293921471,-2.599801779,9.525827408,12.27605993
33.71162647,-7.375277519,-3.075973511,10.54516983,13.23090844
33.71394485,-7.342974663,-3.568296671,11.10628605,13.78410707
33.71625038,-7.29691267,-3.95653224,11.38684464,14.09110757
33.71858168,-7.135396957,-4.490131855,11.5017004,14.26058505
33.72090012,-6.987640381,-5.173880577,11.37009525,14.31346305
33.72320558,-6.90030241,-6.161518097,10.79581738,14.21717804
33.72553694,-6.859025955,-7.012166977,10.17787075,14.13526709
33.72785532,-6.790830612,-7.694121361,9.1860466,13.7731019
33.73016079,-6.700501442,-8.717651367,7.75812912,13.45669842
33.73249215,-6.651448727,-9.94277668,6.795018196,13.75764698
33.73481053,-6.562914371,-11.02313614,5.801996708,14.07993399
33.737116,-6.738188744,-12.52223873,5.152345181,15.1246921
33.73944735,-6.789036274,-14.06620789,4.648656368,16.29598797
33.74176574,-6.949953556,-15.67059517,3.699902058,17.53735107
33.74407126,-7.331010342,-17.47777557,2.888735056,19.17188415
33.74640256,-7.854440212,-19.33819389,2.87856555,21.06998134
33.748721,-8.511270523,-20.8947258,3.547957659,22.83898631
33.75102647,-9.074181557,-22.03849411,4.996213913,24.35155328
33.75335777,-9.457631111,-22.99921227,7.137191772,25.87180043
33.75567621,-9.436096191,-23.8193531,10.14855862,27.55711769
33.75798168,-8.884550095,-24.55574417,12.80578899,29.08449817
33.76031303,-7.030112743,-25.31068039,14.90309811,30.20190988
33.76263142,-4.154538155,-25.74019051,15.82852173,30.50179822
33.76493689,-1.319043517,-25.44946289,15.1974144,29.67113819
33.76726824,0.9260223508,-24.30569458,12.86680603,27.51688579
33.76958662,2.499901533,-22.41715813,9.065208435,24.30959667
33.77189215,3.549154282,-20.03390694,4.224528313,20.77981142
33.77422345,4.239483356,-17.48674774,-0.9774680734,18.01985043
33.77654183,4.606183529,-14.69671631,-5.946164131,16.50961129
33.77884735,4.712066174,-11.67099285,-9.969097137,16.05610599
33.78117866,4.631906509,-9.396614075,-12.78664589,16.53025188
33.78349709,4.310669899,-7.744370461,-13.79402447,16.39610502
33.78580256,3.777668715,-5.984449387,-13.74915886,15.4636278
33.78813392,2.977867842,-4.503292084,-12.70828152,13.80752532
33.7904523,2.100300074,-3.138186932,-11.26122189,11.87748273
33.79275777,1.335195065,-1.875972986,-9.755537987,10.02359925
33.79508913,0.5114658475,-1.031904817,-7.889136314,7.972759663
33.79740751,-0.3062812984,-0.4372883439,-5.935994625,5.959954825
33.79971303,-1.078564763,-0.09212367237,-4.127619267,4.267203947
33.80204433,-1.759921074,0.09631111473,-2.480160713,3.042662515
33.80436272,-2.420340061,0.3188436031,-1.055832982,2.659791447
33.80666824,-3.03888464,0.3738785386,0.3260220885,3.079106269
33.80899954,-3.580859184,0.2673979402,1.691127419,3.969126617
33.81131798,-3.945166349,-0.06999006122,3.006581545,4.960722601
33.81362345,-4.124029636,-0.5419743061,4.291527271,5.976500892
33.81595475,-4.100699902,-1.226321578,5.379663467,6.874618776
33.81827319,-3.878765583,-2.022533417,5.874379635,7.324192786
33.82057866,-3.375076294,-2.784049034,5.684150219,7.172979348
33.82291001,-2.555534601,-3.573082447,4.767100811,6.482509191
33.8252284,-1.549352646,-4.269393921,2.76311183,5.316296178
33.82753386,-0.4295116663,-4.867001057,0.08195417374,4.886603733
33.82986522,0.7674978375,-5.584249973,-2.859423161,6.320538071
33.8321836,1.982453585,-6.488138676,-5.790630817,8.919499479
33.83448913,3.166302681,-7.574480057,-8.319246292,11.68794591
33.83682043,4.331008911,-8.880363464,-10.21256733,14.20968068
33.83913881,5.354538918,-10.23230743,-11.51964664,16.31175837
33.84144433,6.15733099,-11.32941723,-12.36730385,17.86669035
33.84377564,6.833303452,-12.26501083,-12.6747818,18.91493115
33.84609407,6.866802692,-12.9074831,-12.34517002,19.13528997
33.84839954,7.047461033,-13.66959763,-11.60339546,19.26560128
33.8507309,7.182655334,-14.53460312,-10.74197865,19.44827321
33.85304928,7.154539585,-15.30628872,-9.510871887,19.38882655
33.85535475,7.049255371,-16.07438469,-8.137392044,19.34670498
33.8576861,6.87457943,-16.6660099,-6.38823843,19.12656055
33.86000449,6.614958286,-17.10569,-4.642076015,18.91854046
33.86231001,6.206982136,-17.51605988,-3.03948307,18.83022671
33.86464131,5.7571311,-17.86002731,-1.628913999,18.83556463
33.8669597,5.324628353,-18.108284,-0.4384847581,18.87998637
33.86926522,4.901099205,-18.08256149,0.5306084156,18.74250114
33.87159652,4.439284325,-17.8576355,0.9158528447,18.42392948
33.87391496,3.964308977,-17.40778542,0.9080761671,17.87655842
33.87622043,3.452843189,-16.70489311,0.6317051649,17.06969922
33.87855173,3.072384357,-15.89791393,0.2315055877,16.19372742
33.88087017,2.764308453,-15.12742519,-0.2303091735,15.37964358
33.88317564,2.586641312,-14.42692566,-0.5419743061,14.66699129
33.88550699,2.428714991,-13.78265858,-0.7818548083,14.01683384
33.88782538,2.258824587,-13.24427319,-0.9876375198,13.47176635
33.89013084,2.025524378,-12.60658646,-1.271187067,12.83139461
33.8924622,1.678565025,-12.02991581,-1.569093466,12.24738785
33.89478058,1.400997639,-11.55613708,-1.799402595,11.77900456
33.89708605,1.243071318,-11.16610718,-1.808375716,11.37969237
33.89941741,1.115653515,-10.91426182,-1.649253011,11.09440531
33.90173579,0.9499505758,-10.69232845,-1.308874011,10.81394678
33.90404131,0.7519445419,-10.49372387,-1.030110121,10.57094074
33.90637262,0.6185446382,-10.27059269,-0.6137589812,10.30749105
33.90869105,0.4809573591,-10.04267693,-0.2925225794,10.05844169
33.91099652,0.3445664644,-9.84885788,0.06340979785,9.855087437
33.91332782,0.1202393398,-9.714262009,0.2751746178,9.718902456
33.91564626,-0.05742774159,-9.525827408,0.3672982752,9.533078924
33.91795173,-0.2703889608,-9.434301376,0.5270192027,9.452877969
33.92028308,-0.3613162339,-9.489336014,0.6981059909,9.521838025
33.92260147,-0.5042873621,-9.540781975,0.8261220455,9.589749948
33.92490694,-0.6622136831,-9.529416084,0.8817551732,9.593007352
33.92723829,-0.8285148144,-9.543772697,0.7896314859,9.612156469
33.92955668,-0.9672985673,-9.633503914,0.6125625968,9.701303887
33.93187512,-1.05523479,-9.67956543,0.4313062727,9.746462562
33.9341935,-1.224527001,-9.731609344,0.2775674164,9.812274481
33.93651188,-1.441675663,-9.794421196,0.185443759,9.90169201
33.93881741,-1.63489604,-9.918848038,0.2560320199,10.05594271
33.94114871,-1.767697692,-10.03190899,0.5371887088,10.20061394
33.94346715,-1.791027784,-10.0265255,1.10010016,10.24447238
33.94578553,-1.704287887,-10.20598698,1.536192179,10.46071956
33.94810397,-1.6181463,-10.35194874,1.990828395,10.66511312
33.95042235,-1.576271892,-10.43210888,2.416750908,10.82378001
33.95272782,-1.526620865,-10.51226807,2.455634356,10.90268275
33.95505918,-1.460818172,-10.42433167,2.336591244,10.78240878
33.95737756,-1.271187067,-10.2909317,2.031506538,10.56627705
33.95969595,-1.009771109,-10.11805058,1.555932879,10.28666672
33.96201438,-0.628115952,-9.970891953,1.004387259,10.04101637
33.96433277,-0.1405783296,-9.993623734,0.4175475538,10.00333062
33.96663829,0.4833501875,-9.961320877,-0.2261217386,9.975603844
33.96896959,0.9529415965,-9.711270332,-0.6909275651,9.782343791
33.97128803,1.341775298,-9.332606316,-1.024128079,9.484025512
33.9735935,1.767697692,-9.005986214,-1.12283206,9.246258413
33.9759248,2.170888424,-8.698508263,-1.164108157,9.040572457
33.97824324,2.547757864,-8.391629219,-1.043868899,8.831770681
33.98054871,2.678765059,-7.975277901,-0.8979067206,8.460914626
33.98288001,2.799004316,-7.478168964,-0.8099704385,8.025801414
33.98519845,2.840878725,-6.967899323,-1.176072359,7.616124939
33.98750392,2.918645382,-6.521039963,-1.636690736,7.329475399
33.98983527,2.986242771,-5.904888153,-1.92203474,6.89054189
33.99215366,2.986840963,-5.271388054,-2.216950178,6.451636928
33.99445912,2.910868645,-4.976472855,-2.735594511,6.381372554
33.99679048,2.82831645,-4.93579483,-3.270390272,6.561775452
33.99910887,2.749951363,-4.798805714,-3.492324591,6.541184894
34.00141439,2.646461725,-4.747958183,-3.239881754,6.328009193
34.00374569,2.502294302,-4.794020176,-2.907279491,6.139737801
34.00606407,2.371885538,-4.998008251,-2.602194548,6.11370133
34.00838251,2.205584288,-5.313860893,-2.247458696,6.176794495
34.0107009,2.015953064,-5.629713535,-1.936989903,6.285671892
34.01301933,1.804786444,-5.907878876,-1.560120344,6.37136268
34.01533772,1.55892396,-6.119045734,-1.088136077,6.407574013
34.0176561,1.358525038,-6.276971817,-0.5407779217,6.445029576
34.01997454,1.079162955,-6.541378975,0.06460621208,6.630113539
34.02228001,0.793818891,-6.734599113,0.6215356588,6.809646116
34.02461137,0.4313062727,-7.064210415,1.025922656,7.151336321
34.02692975,0.08494520187,-7.389036179,1.273579836,7.49847164
34.02923522,-0.2410768867,-7.727620602,1.440479279,7.864427429
34.03156657,-0.5180460811,-7.997411251,1.668395638,8.185994287
34.03388496,-0.7519445419,-8.228319168,1.88255322,8.474353282
34.03619043,-1.020538807,-8.392825127,2.067398787,8.703743494
34.03852178,-1.250249863,-8.590232849,2.215155602,8.958913967
34.04084017,-1.499103427,-8.793025017,2.347957134,9.223746676
34.04314569,-1.758724689,-8.947361946,2.470589399,9.447338795
34.04547699,-2.014158487,-9.044869423,2.535793781,9.60711962
34.04779543,-2.221735716,-9.131011009,2.558525562,9.739482773
34.0501009,-2.446661234,-9.107681274,2.589632273,9.779683262
34.0524322,-2.574677229,-9.15374279,2.641676188,9.869063936
34.05475064,-2.654836655,-9.208179474,2.679363251,9.950764509
34.0570561,-2.686541557,-9.276374817,2.679363251,10.02235615
34.05938741,-2.684746981,-9.309874535,2.513062,10.00985069
34.06170584,-2.615953445,-9.289535522,2.284547329,9.917552074
34.06402423,-2.520240545,-9.215956688,1.99800694,9.761019507
34.06634267,-2.367697954,-9.126225471,1.660618901,9.573486308
34.06866105,-2.106282234,-9.00538826,1.380658627,9.350917645
34.07097944,-1.771885157,-8.921639442,1.068395257,9.158422123
34.07329788,-1.476969719,-8.781061172,0.7405785918,8.935151455
34.07561626,-1.217348576,-8.578269005,0.4217349887,8.674473879
34.07792178,-0.9678967595,-8.361719131,0.1124626622,8.418302609
34.08025308,-0.6729813814,-8.220541954,-0.2823530734,8.252874482
34.08257152,-0.3206382394,-8.222934723,-0.732203722,8.261693932
34.08487699,0.03409772366,-8.181658745,-1.120439172,8.258092177
34.08720829,0.3511467278,-8.165507317,-1.523629785,8.313859602
34.08952673,0.6484549642,-8.134998322,-1.797608018,8.356439799
34.0918322,0.9032905698,-8.134400368,-2.038684845,8.434491039
34.09416355,1.136590719,-8.052446365,-2.232503414,8.433137164
34.09648194,1.337587833,-8.009375572,-2.474776745,8.489037531
34.09878741,1.411167145,-8.01775074,-2.673979282,8.568890526
34.10111876,1.44347024,-7.950153351,-2.793620348,8.549436197
34.10343715,1.398006678,-7.883752346,-2.708675146,8.452508194
34.10575553,1.277767301,-7.895716667,-2.514258385,8.384302367
34.10807397,1.108475089,-7.918448448,-2.129014015,8.274251841
34.11039235,0.9290133715,-7.97467947,-1.562513232,8.179243614
34.11271079,0.6394818425,-8.042277336,-0.9870393276,8.127816952
34.11502918,0.3493520916,-8.225926399,-0.4211367965,8.244105058
34.11734756,0.06041877344,-8.47238636,0.1363908947,8.473699519
34.11965308,-0.2500499785,-8.781061172,0.5796613097,8.80372464
34.12198439,-0.5593222976,-9.133403778,0.970289588,9.201813294
34.12430277,-0.9014959335,-9.428917885,1.270588875,9.556755908
34.12660829,-1.143769264,-9.73699379,1.556531072,9.926733862
34.12893959,-1.37587297,-10.03489971,1.718644857,10.27355726
34.13125803,-1.505085468,-10.22512913,1.79521513,10.49005936
34.1335635,-1.523629785,-10.41775131,1.782054663,10.67832894
34.13589485,-1.415952802,-10.47757244,1.645065546,10.70003211
34.13821324,-1.225723386,-10.38245773,1.379462242,10.54517627
34.14053162,-0.8895317912,-10.19282627,1.027717352,10.28305291
34.14285006,-0.4199403822,-9.971489906,0.6155536175,9.999293332
34.14516845,0.08733802289,-9.677172661,0.1124626622,9.678220213
34.14748683,0.6825526357,-9.346364975,-0.3146561682,9.376535866
34.14980527,1.310668588,-8.982057571,-0.7214360237,9.105804758
34.15212366,2.001596212,-8.644669533,-1.104287624,8.941820278
34.15442918,2.691327333,-8.307282448,-1.363310695,8.838144632
34.15676048,3.338585854,-8.023134232,-1.459621787,8.811772476
34.15907887,3.903890133,-7.746165276,-1.509272933,8.804620346
34.16138439,4.390829563,-7.590631485,-1.458425403,8.889548653
34.16371569,4.846064091,-7.545766354,-1.278365493,9.058539914
34.16603412,5.161318302,-7.629515171,-1.050449133,9.271038331
34.16833959,5.403591633,-7.84845829,-0.7746763229,9.56018951
34.1706709,5.447260857,-8.130811691,-0.5629115105,9.803041312
34.17298933,5.411966801,-8.486743927,-0.3314059377,10.07095016
34.1752948,5.33599472,-8.962915421,0.0197407864,10.43106333
34.17762616,5.201398373,-9.547362328,0.261415869,10.87543152
34.17994454,5.045864582,-10.28495026,0.5419743061,11.46885728
34.18225001,4.857429981,-10.97109222,0.7501499057,12.02173929
34.18458136,4.575675011,-11.5579319,0.8757730722,12.46152359
34.18689975,4.246063709,-12.07537937,0.8913264275,12.83114597
34.18920522,3.903291941,-12.47677517,0.8626125455,13.10151545
34.19153657,3.593421459,-12.8010025,0.7381857634,13.31627805
34.19385496,3.328416348,-13.02413368,0.6083751321,13.4564681
34.19616048,3.100499868,-13.18864059,0.3930211067,13.55388526
34.19849178,2.921038151,-13.37049484,0.1357926875,13.68652753
34.20081022,2.759522676,-13.86461258,-0.1154536903,14.13703565
34.20311569,2.553141832,-13.56251907,-0.3439682424,13.80502702
34.20544699,2.42572403,-13.37408352,-0.560518682,13.60383873
34.20776543,2.268994093,-13.35374451,-0.7100701332,13.56373939
34.21008381,2.072782516,-13.30110264,-0.7932206988,13.48499009
34.2124022,1.938186288,-13.26102352,-0.72323066,13.42141474
34.21472064,1.852044702,-13.30588818,-0.5946164131,13.44731566
34.21703902,1.768295884,-13.29332638,-0.3714857101,13.41556552
34.21935741,1.712662816,-13.246068,-0.09571290761,13.3566722
34.22167584,1.670190215,-13.16949749,0.1752742529,13.27614103
34.22399423,1.619940877,-13.11745358,0.3846462369,13.22269827
34.22631267,1.640878081,-13.09292698,0.6610172391,13.2118947
34.22863105,1.670190215,-13.02891922,0.9421738982,13.16928104
34.23094949,1.642074585,-12.88475132,1.055832982,13.03180758
34.23326788,1.621735573,-12.73161125,1.245464206,12.89477151
34.23558626,1.568495274,-12.53539944,1.353141189,12.70540859
34.2379047,1.51106751,-12.36909866,1.427318692,12.54253425
34.24022308,1.43808639,-12.13998604,1.472782373,12.31326282
34.24254147,1.386640668,-12.02094269,1.537986755,12.19800142
34.24485991,1.340578914,-11.92104244,1.6181463,12.10482557
34.24717829,1.31425786,-11.84028435,1.679163337,12.03076044
34.24949668,1.317847013,-11.84447193,1.826920033,12.05677705
34.25181512,1.28614223,-11.77268696,1.988435626,12.00850516
34.2541335,1.234696507,-11.69192982,2.149353027,11.95179555
34.25645194,1.217946768,-11.67278671,2.402393818,11.97951752
34.25877032,1.210768223,-11.64347458,2.673979282,12.00777353
34.26108871,1.251446247,-11.65663528,2.955734253,12.09047678
34.26340715,1.328614831,-11.75952721,3.186043262,12.25571578
34.26571262,1.387238979,-11.86899853,3.378665686,12.41825027
34.26804397,1.526620865,-11.97607708,3.55693078,12.58605379
34.27036235,1.633101463,-12.07358456,3.7256248,12.74043738
34.27266782,1.864008784,-12.17408371,3.828516245,12.89730125
34.27499918,2.066800594,-12.26501083,3.816552162,13.01031229
34.27731756,2.317448616,-12.34098244,3.762115479,13.10816267
34.279636,2.560320139,-12.46481133,3.607778311,13.22659536
34.28195438,2.862414122,-12.6502552,3.397209883,13.40758764
34.28427277,3.160918713,-12.85962677,3.167499065,13.61596336
34.28657829,3.418147087,-13.12822151,2.890529871,13.87043952
34.28890959,3.668795347,-13.35793209,2.71286273,14.11573708
34.29122803,3.912265062,-13.53021526,2.583052158,14.31938202
34.2935335,4.103690624,-13.67498112,2.45683074,14.48728417
34.2958648,4.306482315,-13.7611227,2.402393818,14.61799521
34.29818324,4.488935471,-13.78624725,2.318047047,14.68279596
34.30048871,4.683950424,-13.73839092,2.209771633,14.68216154
34.30282001,4.887340069,-13.63310719,2.124228239,14.63762447
34.30513845,5.006382942,-13.41416359,2.014158487,14.45892421
34.30744392,5.143372059,-13.18086338,2.032702923,14.29410077
34.30977527,5.242076397,-12.95773315,2.112862349,14.13670403
34.31209366,5.380261898,-12.79980659,2.218744755,14.06076439
34.31441204,5.341976643,-12.63769245,2.274377823,13.90757993
34.31673048,5.34975338,-12.56530952,2.283350945,13.84631923
34.31904886,5.356333256,-12.59880924,2.154138565,13.85859348
34.3213673,5.276174068,-12.54856014,1.900499344,13.7446816
34.32368569,5.178666592,-12.43131161,1.713261008,13.57539536
34.32600407,5.056034088,-12.25663567,1.553540111,13.34923539
34.32832251,4.883152962,-12.16989613,1.436890006,13.19152029
34.3306409,4.721637249,-12.15912819,1.335195065,13.11186495
34.33295933,4.544568539,-12.12024498,1.285543919,13.00792315
34.33527772,4.345963955,-12.15853024,1.222134113,12.96961341
34.3375961,4.15334177,-12.09631634,1.234098315,12.8488955
34.33991454,3.948755503,-11.97129154,1.298106313,12.67239406
34.34223293,3.716651678,-11.91386414,1.515254974,12.57178014
34.34455136,3.358326674,-12.09033489,1.579861164,12.64715451
34.34686975,3.008974552,-12.09811115,1.743769526,12.58804804
34.34917522,2.605185747,-12.08734322,2.069193363,12.5368425
34.35150657,2.130808592,-12.25185013,2.300698996,12.64679377
34.35382496,1.542772412,-12.42891884,2.420340061,12.75602666
34.35613043,0.8787640929,-12.549757,2.39162612,12.80579957
34.35846178,0.204586342,-12.67119217,2.35812664,12.89037346
34.36078017,-0.3912265003,-12.8440733,2.320439816,13.05786039
34.36308569,-0.8877372146,-13.02413368,2.298306227,13.25512531
34.36541699,-1.25503552,-13.36870003,2.268994093,13.61784083
34.36773538,-1.539781332,-13.78864002,2.21216464,14.0495976
34.3700409,-1.771286964,-14.20738411,2.098505497,14.47034713
34.3723722,-1.915454507,-14.65304756,1.890329838,14.89812457
34.37469064,-2.049452543,-15.07418442,1.52542448,15.28915339
34.3769961,-2.174477577,-15.41456318,0.9541380405,15.5963935
34.37932741,-2.291725874,-15.63470268,0.2584248483,15.80388303
34.38164584,-2.384447813,-15.67717552,-0.5341976285,15.8664675
34.38395131,-2.395813704,-15.74596977,-1.339980721,15.98346132
34.38628267,-2.318645239,-15.91825294,-2.086541414,16.22099096
34.38860105,-2.140379906,-16.16471291,-2.717648268,16.53072235
34.39090652,-1.909472466,-16.44886017,-3.242872953,16.87386473
34.39323788,-1.596610904,-16.80240059,-3.643670797,17.26690965
34.39555626,-1.246062398,-17.15952873,-3.885345697,17.63797066
34.39786173,-0.9924231768,-17.50947952,-4.090530396,18.00830963
34.40019308,-0.77108711,-17.89831352,-4.238286972,18.4094345
34.40251147,-0.5718846321,-18.36431503,-4.42373085,18.89826747
34.40481699,-0.4402793646,-18.84646988,-4.424329281,19.36383129
34.40714829,-0.3505485058,-19.16591072,-4.339982033,19.65427338
34.40946668,-0.313459754,-19.36152458,-4.209573269,19.8163417
