"Time (s)","Acceleration x (m/s^2)","Acceleration y (m/s^2)","Acceleration z (m/s^2)","Absolute acceleration (m/s^2)"
1.151247600E-2,7.243058681E0,6.008847713E0,1.328183413E0,9.504326440E0
1.350554800E-2,7.252635479E0,6.023212910E0,1.419163108E0,9.533826046E0
1.549862100E-2,7.290942669E0,6.042366505E0,1.500565886E0,9.587478081E0
1.749169400E-2,7.334038258E0,6.061520100E0,1.548449993E0,9.639908737E0
1.948476700E-2,7.348403454E0,6.099827290E0,1.591545582E0,9.681939042E0
2.147784000E-2,7.391499043E0,6.118980885E0,1.644816518E0,9.735584550E0
2.347091300E-2,7.439383030E0,6.142922878E0,1.659181833E0,9.789423155E0
2.546398600E-2,7.425017834E0,6.157288074E0,1.663970232E0,9.788354468E0
2.745705900E-2,7.448959827E0,6.157288074E0,1.673547029E0,9.808157758E0
2.945018400E-2,7.444171429E0,6.181230068E0,1.697489023E0,9.823683749E0
3.144336100E-2,7.425017834E0,6.190806866E0,1.716642618E0,9.818545786E0
3.343659000E-2,7.429806232E0,6.176441669E0,1.711854219E0,9.812282977E0
3.542987100E-2,7.429806232E0,6.181230068E0,1.687912226E0,9.811150467E0
3.742320500E-2,7.429806232E0,6.200383663E0,1.697489023E0,9.824878992E0
3.941659000E-2,7.439383030E0,6.205172062E0,1.702277422E0,9.835971157E0
4.140997600E-2,7.458536625E0,6.195595264E0,1.707065821E0,9.845265003E0
4.340336100E-2,7.477690697E0,6.219537258E0,1.683123827E0,9.870734911E0
4.539674600E-2,7.501632690E0,6.224325657E0,1.707065821E0,9.895999021E0
4.739013200E-2,7.515997887E0,6.219537258E0,1.731007814E0,9.908039967E0
4.938351700E-2,7.520786285E0,6.229114056E0,1.731007814E0,9.917685028E0
5.137690300E-2,7.515997887E0,6.224325657E0,1.764526606E0,9.916955594E0
5.337028800E-2,7.511209488E0,6.209960461E0,1.778891921E0,9.906883130E0
5.536367300E-2,7.515997887E0,6.190806866E0,1.788468719E0,9.900249201E0
5.735705900E-2,7.506421089E0,6.190806866E0,1.788468719E0,9.892980722E0
5.935044400E-2,7.487267494E0,6.171653271E0,1.769315004E0,9.863009389E0
6.134383000E-2,7.472901821E0,6.157288074E0,1.750161409E0,9.839691205E0
6.333721500E-2,7.477690697E0,6.162076473E0,1.750161409E0,9.846324674E0
6.533060100E-2,7.439383030E0,6.157288074E0,1.735796213E0,9.811707537E0
6.732398600E-2,7.434594631E0,6.138134480E0,1.678335428E0,9.786046292E0
6.931737100E-2,7.401075840E0,6.133346081E0,1.644816518E0,9.751885926E0
7.131075700E-2,7.377133846E0,6.128557682E0,1.605910778E0,9.724210635E0
7.330409000E-2,7.357980251E0,6.133346081E0,1.558026791E0,9.704908810E0
7.529731900E-2,7.372345448E0,6.118980885E0,1.538873196E0,9.703686680E0
7.729054800E-2,7.367557049E0,6.128557682E0,1.486200690E0,9.697881656E0
7.928377800E-2,7.362768650E0,6.118980885E0,1.457470298E0,9.683827184E0
8.127700700E-2,7.353191853E0,6.090250492E0,1.428739905E0,9.654112036E0
8.327023600E-2,7.334038258E0,6.099827290E0,1.400009394E0,9.641371087E0
8.526346500E-2,7.276577473E0,6.085462093E0,1.380855799E0,9.585832846E0
8.725669400E-2,7.262212276E0,6.080673695E0,1.385644197E0,9.572582179E0
8.924992300E-2,7.223905087E0,6.095038891E0,1.380855799E0,9.552018976E0
9.124315300E-2,7.204751492E0,6.085462093E0,1.371279001E0,9.530041922E0
9.323638200E-2,7.204751492E0,6.095038891E0,1.409586191E0,9.541743885E0
9.522961100E-2,7.223905087E0,6.075885296E0,1.433528304E0,9.547575097E0
9.722284000E-2,7.238270283E0,6.090250492E0,1.490989089E0,9.576364457E0
9.921606900E-2,7.247847080E0,6.095038891E0,1.534084797E0,9.593445812E0
1.012092980E-1,7.300519466E0,6.099827290E0,1.534084797E0,9.636331958E0
1.032025800E-1,7.319673061E0,6.128557682E0,1.591545582E0,9.678318569E0
1.051958610E-1,7.329249859E0,6.133346081E0,1.634641171E0,9.695766571E0
1.071891420E-1,7.362768650E0,6.162076473E0,1.687912226E0,9.748363777E0
1.091824230E-1,7.377133846E0,6.176441669E0,1.707065821E0,9.771622649E0
1.111757050E-1,7.420229435E0,6.186018467E0,1.754949808E0,9.818680063E0
1.131689860E-1,7.439383030E0,6.209960461E0,1.764526606E0,9.849953448E0
1.151622670E-1,7.501632690E0,6.219537258E0,1.802833915E0,9.909962001E0
1.171555480E-1,7.535151482E0,6.209960461E0,1.831564307E0,9.934623525E0
1.191488300E-1,7.563881874E0,6.214748859E0,1.836352706E0,9.960301384E0
1.211421110E-1,7.592612267E0,6.219537258E0,1.850717902E0,9.987770597E0
1.231353920E-1,7.592612267E0,6.229114056E0,1.826775908E0,9.989330967E0
1.251286730E-1,7.616554260E0,6.224325657E0,1.812410712E0,1.000194787E1
1.271219550E-1,7.626131058E0,6.229114056E0,1.817199111E0,1.001308891E1
1.291152360E-1,7.606977463E0,6.219537258E0,1.788468719E0,9.987360521E0
1.311085170E-1,7.592612267E0,6.214748859E0,1.778891921E0,9.971726073E0
1.331017980E-1,7.573458672E0,6.224325657E0,1.740584612E0,9.956361832E0
1.350950800E-1,7.563881874E0,6.238690853E0,1.735796213E0,9.957236618E0
1.370883090E-1,7.549516678E0,6.224325657E0,1.731007814E0,9.936489320E0
1.390814340E-1,7.554305077E0,6.205172062E0,1.687912226E0,9.920722413E0
1.410745590E-1,7.554305077E0,6.195595264E0,1.649604917E0,9.908285535E0
1.430676840E-1,7.573458672E0,6.181230068E0,1.610699177E0,9.907534166E0
1.450608090E-1,7.554305077E0,6.166864872E0,1.572391987E0,9.877761087E0
1.470539340E-1,7.573458672E0,6.157288074E0,1.534084797E0,9.880429588E0
1.490470070E-1,7.554305077E0,6.109404087E0,1.495777488E0,9.830040375E0
1.510400280E-1,7.496844292E0,6.104615688E0,1.462258697E0,9.777893819E0
1.530330480E-1,7.492055893E0,6.104615688E0,1.433528304E0,9.769966100E0
1.550260690E-1,7.492055893E0,6.104615688E0,1.395220995E0,9.764418868E0
1.570190900E-1,7.472901821E0,6.104615688E0,1.337760210E0,9.741673199E0
1.590121110E-1,7.472901821E0,6.090250492E0,1.299453020E0,9.727486358E0
1.610051320E-1,7.492055893E0,6.075885296E0,1.270722508E0,9.729440854E0
1.629981530E-1,7.520786285E0,6.075885296E0,1.246780515E0,9.748490659E0
1.649911730E-1,7.525574684E0,6.061520100E0,1.246780515E0,9.743241858E0
1.669841940E-1,7.539939880E0,6.056731701E0,1.218050122E0,9.747735039E0
1.689772150E-1,7.583035469E0,6.056731701E0,1.227626920E0,9.782305131E0
1.709702880E-1,7.597400665E0,6.037578106E0,1.246780515E0,9.784033315E0
1.729634130E-1,7.635707855E0,6.047154903E0,1.261145711E0,9.821537832E0
1.749565380E-1,7.664438248E0,6.071096897E0,1.280299306E0,9.861085006E0
1.769496630E-1,7.693168640E0,6.071096897E0,1.318606615E0,9.888467256E0
1.789427880E-1,7.697957039E0,6.066308498E0,1.313818216E0,9.888617683E0
1.809359130E-1,7.688380241E0,6.099827290E0,1.328183413E0,9.903694002E0
1.829290380E-1,7.693168640E0,6.095038891E0,1.361702204E0,9.909014870E0
1.849221630E-1,7.659649849E0,6.118980885E0,1.366490602E0,9.898457427E0
1.869152880E-1,7.611765862E0,6.123769283E0,1.400009394E0,9.869121342E0
1.889084130E-1,7.602189064E0,6.147711277E0,1.419163108E0,9.879355062E0
1.909015380E-1,7.549516678E0,6.147711277E0,1.447893500E0,9.843066169E0
1.928946630E-1,7.511209488E0,6.186018467E0,1.452681899E0,9.838464166E0
1.948877880E-1,7.501632690E0,6.195595264E0,1.457470298E0,9.837891714E0
1.968809130E-1,7.453748226E0,6.186018467E0,1.500565886E0,9.801881711E0
1.988740380E-1,7.425017834E0,6.214748859E0,1.519719481E0,9.801200973E0
2.008671630E-1,7.410652637E0,6.224325657E0,1.558026791E0,9.802420613E0
2.028602880E-1,7.401075840E0,6.224325657E0,1.596333981E0,9.801348665E0
2.048534130E-1,7.372345448E0,6.238690853E0,1.629852772E0,9.794343317E0
2.068464860E-1,7.396287441E0,6.248267651E0,1.668758631E0,9.825002388E0
2.088394030E-1,7.425017834E0,6.281786919E0,1.721431017E0,9.876996581E0
2.108323190E-1,7.425017834E0,6.257844925E0,1.783680320E0,9.872842975E0
2.128252360E-1,7.458536625E0,6.262633324E0,1.826775908E0,9.908958318E0
2.148181530E-1,7.492055893E0,6.267421722E0,1.841141105E0,9.939883154E0
2.168110690E-1,7.506421089E0,6.253056526E0,1.850717902E0,9.943451626E0
2.188039860E-1,7.544728279E0,6.253056526E0,1.841141105E0,9.970628932E0
2.207969550E-1,7.544728279E0,6.219537258E0,1.836352706E0,9.948756695E0
2.227899760E-1,7.559093475E0,6.238690853E0,1.802833915E0,9.965508911E0
2.247830480E-1,7.559093475E0,6.214748859E0,1.774103403E0,9.945372816E0
2.267761730E-1,7.563881874E0,6.195595264E0,1.716642618E0,9.926961850E0
2.287693510E-1,7.578247070E0,6.181230068E0,1.687912226E0,9.924035545E0
2.307625800E-1,7.602189064E0,6.171653271E0,1.639429569E0,9.928258255E0
2.327558610E-1,7.611765862E0,6.142922878E0,1.610699177E0,9.913063747E0
2.347491420E-1,7.626131058E0,6.128557682E0,1.572391987E0,9.909062051E0
2.367424230E-1,7.669226646E0,6.138134480E0,1.558026791E0,9.945912714E0
2.387357050E-1,7.693168640E0,6.118980885E0,1.524507880E0,9.947406449E0
2.407289860E-1,7.726687431E0,6.104615688E0,1.524507880E0,9.964544929E0
2.427222670E-1,7.712322235E0,6.104615688E0,1.505354285E0,9.950494384E0
2.447155480E-1,7.721899033E0,6.109404087E0,1.538873196E0,9.965975802E0
2.467088300E-1,7.707533836E0,6.104615688E0,1.529296279E0,9.950435048E0
2.487019550E-1,7.693168640E0,6.104615688E0,1.529296279E0,9.939312025E0
2.506950800E-1,7.654861450E0,6.123769283E0,1.500565886E0,9.917114098E0
2.526882050E-1,7.616554260E0,6.118980885E0,1.462258697E0,9.878867666E0
2.546813300E-1,7.559093475E0,6.118980885E0,1.419163108E0,9.828318532E0
2.566744550E-1,7.515997887E0,6.090250492E0,1.419163108E0,9.777289973E0
2.586675800E-1,7.463325024E0,6.056731701E0,1.423951507E0,9.716627872E0
2.606607050E-1,7.434594631E0,6.056731701E0,1.409586191E0,9.692477983E0
2.626538300E-1,7.391499043E0,6.061520100E0,1.419163108E0,9.663866097E0
2.646469550E-1,7.357980251E0,6.071096897E0,1.419163108E0,9.644278866E0
2.666400800E-1,7.357980251E0,6.080673695E0,1.423951507E0,9.651015690E0
2.686332050E-1,7.386710644E0,6.099827290E0,1.414374709E0,9.683586263E0
2.706263300E-1,7.410652637E0,6.109404087E0,1.395220995E0,9.705113726E0
2.726194550E-1,7.434594631E0,6.090250492E0,1.352125406E0,9.705286781E0
2.746125800E-1,7.429806232E0,6.085462093E0,1.342548609E0,9.697283450E0
2.766057050E-1,7.448959827E0,6.075885296E0,1.299453020E0,9.700101174E0
2.785988300E-1,7.472901821E0,6.037578106E0,1.232415318E0,9.685838040E0
2.805919550E-1,7.496844292E0,6.018424511E0,1.184531331E0,9.686445292E0
2.825850800E-1,7.496844292E0,6.008847713E0,1.174954534E0,9.679330728E0
2.845782050E-1,7.530363083E0,6.013636112E0,1.131858826E0,9.703158859E0
2.865713300E-1,7.525574684E0,6.018424511E0,1.107916832E0,9.699648840E0
2.885644550E-1,7.539939880E0,6.013636112E0,1.098340034E0,9.706743198E0
2.905575800E-1,7.525574684E0,6.023212910E0,1.131858826E0,9.705383686E0
2.925507050E-1,7.520786285E0,6.042366505E0,1.155800819E0,9.716393099E0
2.945438300E-1,7.535151482E0,6.047154903E0,1.160589218E0,9.731061484E0
2.965369550E-1,7.559093475E0,6.037578106E0,1.184531331E0,9.746556214E0
2.985300800E-1,7.606977463E0,6.008847713E0,1.218050122E0,9.770158804E0
3.005232050E-1,7.779359818E0,5.797559261E0,1.352125406E0,9.795834608E0
3.025163300E-1,7.970896244E0,5.692214489E0,1.572391987E0,9.920126475E0
3.045094550E-1,8.004414558E0,5.859808445E0,1.285087705E0,1.000297245E1
3.065025800E-1,8.047510147E0,5.927444935E0,1.222838521E0,1.006937719E1
3.084957050E-1,8.071452141E0,5.984905720E0,1.131858826E0,1.011180204E1
3.104888300E-1,8.109759331E0,6.042366505E0,1.107916832E0,1.017378342E1
3.124819550E-1,8.172008514E0,6.023212910E0,1.117493629E0,1.021320757E1
3.144750800E-1,8.234258652E0,5.999270916E0,1.146224022E0,1.025222398E1
3.164682050E-1,8.297105789E0,5.946598530E0,1.165377736E0,1.027434201E1
3.184613300E-1,8.426392555E0,5.878962040E0,1.222838521E0,1.034705853E1
3.204545070E-1,8.488641739E0,5.864596844E0,1.218050122E0,1.038913764E1
3.224477360E-1,8.531737328E0,5.816712856E0,1.203684926E0,1.039584281E1
3.244410170E-1,8.536525726E0,5.740098476E0,1.218050122E0,1.035879569E1
3.264342980E-1,8.570044518E0,5.639542103E0,1.151012421E0,1.032351334E1
3.284276320E-1,8.584410667E0,5.601234913E0,1.098340034E0,1.030884523E1
3.304209650E-1,8.570044518E0,5.500678539E0,1.074398041E0,1.023999309E1
3.324142980E-1,8.565256119E0,5.443217754E0,1.064821243E0,1.020421855E1
3.344076320E-1,8.498218536E0,5.419275761E0,1.060032845E0,1.013468982E1
3.364009650E-1,8.392873764E0,5.419275761E0,1.050456047E0,1.004551331E1
3.383942980E-1,8.277354240E0,5.414487362E0,1.107916832E0,9.952826047E0
3.403876320E-1,8.248623848E0,5.328295708E0,1.141435623E0,9.886020727E0
3.423809650E-1,8.229470253E0,5.313930511E0,1.112705231E0,9.859013696E0
3.443742980E-1,8.119336128E0,5.342660904E0,1.069609642E0,9.778124027E0
3.463676320E-1,8.061875343E0,5.323507309E0,1.083974838E0,9.721551603E0
3.483609650E-1,7.970896244E0,5.328295708E0,1.127070427E0,9.653818407E0
3.503541420E-1,7.870339394E0,5.419275761E0,1.155800819E0,9.625313890E0
3.523473190E-1,7.750629425E0,5.452794552E0,1.218050122E0,9.554520972E0
3.543404960E-1,7.626131058E0,5.529408932E0,1.323395014E0,9.512287443E0
3.563336730E-1,7.496844292E0,5.562927723E0,1.414374709E0,9.441890436E0
3.583268510E-1,7.453748226E0,5.529408932E0,1.500565886E0,9.401299045E0
3.603200280E-1,7.386710644E0,5.534197330E0,1.567603588E0,9.362062552E0
3.623132050E-1,7.257423878E0,5.701791286E0,1.702277422E0,9.385007919E0
3.643063820E-1,7.103596210E0,5.831078053E0,1.865083098E0,9.377690832E0
3.662995590E-1,7.055712223E0,5.888539314E0,1.941697598E0,9.392984605E0
3.682927360E-1,6.926425457E0,6.023212910E0,2.056619167E0,9.406601180E0
3.702859130E-1,6.859387875E0,6.109404087E0,2.128445387E0,9.429013738E0
3.722790900E-1,6.825869083E0,6.061520100E0,2.195482969E0,9.389071314E0
3.742722670E-1,6.768408298E0,6.032789707E0,2.257732153E0,9.343621194E0
3.762654440E-1,6.715735912E0,6.080673695E0,2.310404539E0,9.349527825E0
3.782586210E-1,6.610390663E0,6.123769283E0,2.339135170E0,9.309638462E0
3.802517980E-1,6.552929878E0,6.123769283E0,2.353500366E0,9.272561900E0
3.822449760E-1,6.466738701E0,6.166864872E0,2.363077164E0,9.243000890E0
3.842381530E-1,6.452373505E0,6.028001308E0,2.329558372E0,9.132182972E0
3.862313300E-1,6.418854713E0,5.941810131E0,2.243366957E0,9.029922412E0
3.882245070E-1,6.442796707E0,5.869385242E0,2.233790159E0,8.997173501E0
3.902176840E-1,6.524199486E0,5.725733280E0,2.243366957E0,8.965595118E0
3.922108090E-1,6.734889507E0,5.424064159E0,2.291250944E0,8.945895124E0
3.942039340E-1,7.329249859E0,4.733935356E0,2.492363930E0,9.074134967E0
3.961970590E-1,7.693168640E0,4.106654644E0,2.540247917E0,9.083078529E0
3.981901840E-1,7.463325024E0,4.178480625E0,2.420537949E0,8.889315199E0
4.001833090E-1,7.496844292E0,4.049193859E0,2.114080191E0,8.778837070E0
4.021764340E-1,7.501632690E0,3.910329819E0,1.812410712E0,8.651589733E0
4.041695590E-1,7.444171429E0,3.809773445E0,1.490989089E0,8.494298701E0
4.061626840E-1,7.377133846E0,3.804985046E0,1.203684926E0,8.387423466E0
4.081558090E-1,7.300519466E0,3.809773445E0,9.355342984E-1,8.287773079E0
4.101489340E-1,7.165845871E0,3.824138641E0,6.386532784E-1,8.147469632E0
4.121420590E-1,7.012616634E0,3.905541420E0,3.794809580E-1,8.035798133E0
4.141351840E-1,6.801927090E0,4.015674591E0,2.406172752E-1,7.902515500E0
4.161283090E-1,6.619967937E0,4.101866245E0,4.429273307E-2,7.787890859E0
4.181214340E-1,6.509834290E0,4.034828186E0,-1.472434103E-1,7.660252058E0
4.201145590E-1,6.347028732E0,4.068347454E0,-3.675099611E-1,7.547932717E0
4.221076840E-1,6.232107162E0,4.168903828E0,-4.537012279E-1,7.511641872E0
4.241008090E-1,6.150704384E0,4.322132587E0,-4.824316502E-1,7.532910116E0
4.260939340E-1,5.992088318E0,4.384381771E0,-4.249708056E-1,7.436970224E0
4.280870590E-1,5.891531944E0,4.322132587E0,-1.903390288E-1,7.309391746E0
4.300801840E-1,5.637746334E0,4.446630955E0,-1.041477770E-1,7.181055447E0
4.320733090E-1,5.805340767E0,4.518456936E0,-4.489128292E-1,7.370207407E0
4.340664340E-1,5.968146324E0,4.556764603E0,-2.956839204E-1,7.514672526E0
4.360595590E-1,6.054935932E0,4.633378983E0,-1.520318091E-1,7.625848386E0
4.380526840E-1,6.136339188E0,4.585494995E0,-1.089361757E-1,7.661154617E0
4.400458090E-1,6.299144745E0,4.528033733E0,-5.626374111E-2,7.757930112E0
4.420389340E-1,6.414066315E0,4.532822132E0,1.077390742E-2,7.854096972E0
4.440320590E-1,6.495469093E0,4.599860191E0,4.908113554E-2,7.959412132E0
4.460251840E-1,6.663063526E0,4.633378983E0,7.781155407E-2,8.116074851E0
4.480183090E-1,6.845022678E0,4.748300552E0,6.344634295E-2,8.330949468E0
4.500114340E-1,7.026981831E0,4.811148167E0,-3.232172132E-2,8.516258863E0
4.520045590E-1,7.137115479E0,4.835090160E0,-1.568202078E-1,8.622128901E0
4.539976840E-1,7.281365871E0,4.969165802E0,-1.280897856E-1,8.816309019E0
4.559908090E-1,7.386710644E0,5.055356979E0,-8.020575345E-2,8.951344105E0
4.579839340E-1,7.444171429E0,5.227739334E0,5.985504016E-3,9.096426916E0
4.599770590E-1,7.472901821E0,5.409698963E0,1.161187813E-1,9.226190334E0
4.619701840E-1,7.444171429E0,5.567716122E0,2.262520641E-1,9.298727927E0
4.639633090E-1,7.429806232E0,5.706579685E0,5.907692909E-1,9.387016603E0
4.659564340E-1,7.391499043E0,5.807136059E0,8.493430614E-1,9.438139167E0
4.679495590E-1,7.314884663E0,5.831078053E0,1.016937137E0,9.409738042E0
4.699426840E-1,7.127538681E0,6.109404087E0,1.342548609E0,9.483093520E0
4.719357050E-1,6.979097843E0,6.171653271E0,1.443105102E0,9.427601134E0
4.739287260E-1,6.782773495E0,6.401496887E0,1.615487576E0,9.465462418E0
4.759217460E-1,6.586448669E0,6.564302444E0,1.807622313E0,9.473060281E0
4.779147670E-1,6.404489517E0,6.636128426E0,1.903390408E0,9.416930577E0
4.799077880E-1,6.169857979E0,6.789357662E0,2.023100376E0,9.394437720E0
4.819008090E-1,5.963357925E0,6.933009624E0,2.114080191E0,9.386031923E0
4.838938300E-1,5.790975571E0,7.019799232E0,2.114080191E0,9.342500435E0
4.858868510E-1,5.618592739E0,7.201758862E0,2.224213362E0,9.401119090E0
4.878799230E-1,5.527613163E0,7.302315235E0,2.176329374E0,9.413539431E0
4.898730480E-1,5.489305973E0,7.407660007E0,2.118868589E0,9.460206708E0
4.918662260E-1,5.364807606E0,7.603984833E0,2.032677174E0,9.525414557E0
4.938594550E-1,5.283404827E0,7.714118004E0,1.889025092E0,9.538888769E0
4.958527360E-1,5.297770023E0,7.714118004E0,1.855506301E0,9.540277115E0
4.978460690E-1,5.264250755E0,7.910442352E0,1.793257117E0,9.669705544E0
4.998394030E-1,5.269039154E0,7.958326340E0,1.524507880E0,9.665498229E0
5.018327360E-1,5.283404827E0,7.929595947E0,1.352125406E0,9.623985742E0
5.038260690E-1,5.297770023E0,7.953537941E0,1.289876223E0,9.643075944E0
5.058194030E-1,5.407903194E0,7.910442352E0,1.055244446E0,9.640231118E0
5.078127360E-1,5.441421986E0,7.867346764E0,9.834183455E-1,9.616201431E0
5.098060690E-1,5.479729176E0,7.809885979E0,7.535749674E-1,9.570246918E0
5.117994030E-1,5.647323132E0,7.603984833E0,6.242880821E-1,9.492237855E0
5.137927360E-1,5.843647957E0,7.431602001E0,4.848258495E-1,9.466360750E0
5.157860690E-1,5.958569527E0,7.402871609E0,6.290764809E-1,9.523801556E0
5.177791940E-1,6.011241913E0,7.182605267E0,5.572504401E-1,9.382716867E0
5.197722670E-1,5.905897141E0,7.072471619E0,7.344213724E-1,9.243313831E0
5.217653400E-1,5.920262337E0,6.856395245E0,7.056909800E-1,9.086124677E0
5.237584130E-1,5.881955147E0,6.693589211E0,7.392097712E-1,8.941362533E0
5.257514860E-1,5.819705963E0,6.554725647E0,9.163807034E-1,8.813237736E0
5.277445590E-1,5.838859558E0,6.439804077E0,9.834183455E-1,8.748169473E0
5.297376320E-1,5.642534733E0,6.372766495E0,1.088763237E0,8.581127921E0
5.317307050E-1,5.589862347E0,6.324882507E0,1.184531331E0,8.523720682E0
5.337237780E-1,5.565920353E0,6.257844925E0,1.275510907E0,8.471541805E0
5.357168510E-1,5.556343555E0,6.176441669E0,1.155800819E0,8.387923518E0
5.377099230E-1,5.527613163E0,6.037578106E0,1.189319730E0,8.271719173E0
5.397029960E-1,5.551555157E0,5.917868137E0,1.040879130E0,8.180730854E0
5.416960690E-1,5.565920353E0,5.917868137E0,8.972271085E-1,8.173472282E0
5.436891420E-1,5.613804340E0,5.922656536E0,7.392097712E-1,8.193844684E0
5.456822150E-1,5.656899929E0,5.797559261E0,6.290764809E-1,8.124527519E0
5.476752880E-1,5.810129166E0,5.821501255E0,3.459621370E-1,8.232081607E0
5.496683610E-1,5.858013153E0,5.874173641E0,1.735796183E-1,8.297732458E0
5.516614860E-1,5.944204330E0,6.085462093E0,1.017535701E-1,8.507453661E0
5.536546630E-1,6.016030312E0,6.209960461E0,-4.189852998E-2,8.646270012E0
5.556478920E-1,6.279991150E0,6.166864872E0,-2.047042400E-1,8.803999944E0
5.576411210E-1,6.490680695E0,6.200383663E0,-2.813186944E-1,8.980692270E0
5.596343510E-1,6.653486729E0,6.233902454E0,-4.297592044E-1,9.127711566E0
5.616275800E-1,6.821080685E0,6.272210121E0,-3.914519846E-1,9.274750464E0
5.636208090E-1,7.098807812E0,6.324882507E0,-4.249708056E-1,9.517237586E0
5.656140380E-1,7.405864239E0,6.415862083E0,-1.568202078E-1,9.799729791E0
5.676072670E-1,7.750629425E0,6.401496887E0,-2.753331885E-2,1.005247119E1
5.696004960E-1,7.994838238E0,6.382343292E0,2.885012925E-1,1.023401081E1
5.715937260E-1,8.066663742E0,6.315305710E0,5.476736426E-1,1.025934192E1
5.735869550E-1,7.994838238E0,6.334459305E0,8.828618526E-1,1.023827418E1
5.755801840E-1,8.042721748E0,6.439804077E0,1.064821243E0,1.035810282E1
5.775734130E-1,8.167220116E0,6.401496887E0,1.423951507E0,1.047426774E1
5.795666420E-1,8.167220116E0,6.425438881E0,1.567603588E0,1.050938296E1
5.815598710E-1,8.224681854E0,6.348824501E0,1.788468719E0,1.054284518E1
5.835531010E-1,8.167220116E0,6.391920090E0,1.692700624E0,1.050834727E1
5.855463300E-1,8.057086945E0,6.487688065E0,1.764526606E0,1.049382202E1
5.875395590E-1,7.923011780E0,6.439804077E0,1.678335428E0,1.034707698E1
5.895327880E-1,7.798513412E0,6.367978096E0,1.443105102E0,1.017106232E1
5.915260170E-1,7.592612267E0,6.339247704E0,1.400009394E0,9.989687121E0
5.935192460E-1,7.539939880E0,6.344036102E0,1.194108129E0,9.925894503E0
5.955124760E-1,7.477690697E0,6.415862083E0,1.179742932E0,9.923252381E0
5.975057050E-1,7.434594631E0,6.535572052E0,1.050456047E0,9.954413960E0
5.994989340E-1,7.396287441E0,6.549937248E0,8.445546627E-1,9.915645135E0
6.014921630E-1,7.563881874E0,6.502053261E0,8.780734539E-1,1.001299249E1
6.034853920E-1,7.788936615E0,6.478111267E0,3.986345828E-1,1.013865715E1
6.054786210E-1,7.774571419E0,6.703166008E0,3.651157618E-1,1.027179170E1
6.074718510E-1,7.865550995E0,6.746262074E0,2.454056740E-1,1.036528670E1
6.094650800E-1,7.659649849E0,6.842030048E0,1.209071875E-1,1.027123311E1
6.114583090E-1,7.870339394E0,6.813299656E0,-8.379706182E-3,1.040977255E1
6.134515380E-1,7.836820602E0,6.880337238E0,-1.951274425E-1,1.043038218E1
6.154447670E-1,7.860762596E0,6.980893612E0,-3.339911401E-1,1.051836557E1
6.174379960E-1,7.635707855E0,7.125144482E0,-2.813186944E-1,1.044752882E1
6.194312260E-1,7.515997887E0,7.173028469E0,-2.908954918E-1,1.039361255E1
6.214244550E-1,7.271789074E0,7.273584843E0,-2.430114746E-1,1.028800308E1
6.234176840E-1,7.041347027E0,7.431602001E0,-5.147533491E-2,1.023776958E1
6.254109130E-1,6.730101109E0,7.642292023E0,4.908113554E-2,1.018338339E1
6.274041420E-1,6.361393929E0,7.785943985E0,2.214636505E-1,1.005670436E1
6.293973710E-1,5.891531944E0,7.910442352E0,5.087678432E-1,9.876441241E0
6.313906010E-1,5.604227543E0,8.039729118E0,5.764040351E-1,9.817171296E0
6.333838300E-1,5.077503204E0,8.145672798E0,7.248445749E-1,9.625924568E0
6.353770590E-1,4.660313606E0,8.236652374E0,6.099228859E-1,9.483299593E0
6.373702880E-1,4.186261654E0,8.332420349E0,6.003460884E-1,9.344219119E0
6.393635170E-1,3.975571871E0,8.404246330E0,4.417302012E-1,9.307612672E0
6.413567460E-1,3.749918461E0,8.480860710E0,2.932897210E-1,9.277548475E0
6.433499760E-1,3.515286684E0,8.557475090E0,1.592144072E-1,9.252727685E0
6.453432050E-1,3.453037500E0,8.653243065E0,1.197100850E-3,9.316763652E0
6.473363300E-1,3.055599928E0,8.653243065E0,5.386953801E-2,9.177047912E0
6.493294550E-1,2.710834980E0,8.801684380E0,4.560954273E-1,9.220970515E0
6.513225800E-1,2.710834980E0,8.859145164E0,7.966706157E-1,9.298804407E0
6.533157050E-1,3.103483915E0,8.763377190E0,7.727286220E-1,9.328745988E0
6.553088300E-1,3.141791105E0,8.715493202E0,6.673837304E-1,9.288491490E0
6.573017460E-1,3.333327293E0,8.658031464E0,5.285200477E-1,9.292573008E0
6.592946630E-1,3.630208254E0,8.619724274E0,5.668272376E-1,9.370130823E0
6.612875800E-1,3.970783472E0,8.509591103E0,9.259575009E-1,9.435976866E0
6.632804960E-1,4.401739597E0,8.222287178E0,9.498994946E-1,9.374626764E0
6.652734130E-1,4.875791550E0,8.125920296E0,9.786299467E-1,9.526890388E0
6.672663300E-1,5.154117584E0,7.963114738E0,8.493430614E-1,9.523523930E0
6.692592980E-1,5.575497150E0,7.694964409E0,9.882067442E-1,9.553805435E0
6.712522670E-1,5.556343555E0,7.714118004E0,1.232415318E0,9.586418403E0
6.732452880E-1,5.901108742E0,7.498639584E0,1.328183413E0,9.634145067E0
6.752383610E-1,6.044760704E0,7.249642849E0,1.313818216E0,9.530087707E0
6.772314860E-1,6.117185116E0,7.177816868E0,1.476623893E0,9.545754389E0
6.792246630E-1,6.318298340E0,6.942586422E0,1.174954534E0,9.460492497E0
6.812178400E-1,6.418854713E0,6.736684799E0,1.040879130E0,9.363121663E0
6.832110170E-1,6.514622688E0,6.626551628E0,1.184531331E0,9.367743043E0
6.852041940E-1,6.658275127E0,6.358401299E0,1.251568913E0,9.291303433E0
6.871973710E-1,7.065289021E0,6.243479252E0,1.160589218E0,9.499805758E0
6.891905480E-1,7.300519466E0,6.118980885E0,1.007360339E0,9.578845776E0
6.911837260E-1,7.674015045E0,5.903502941E0,8.062474132E-1,9.715548815E0
6.931769030E-1,7.674015045E0,5.783194065E0,5.764040351E-1,9.626426238E0
6.951700800E-1,8.009202957E0,5.668272495E0,4.129997790E-1,9.820754243E0
6.971632570E-1,8.297105789E0,5.462371349E0,2.310404629E-1,9.936440254E0
6.991564340E-1,8.191162109E0,5.357026100E0,3.315969408E-1,9.792998615E0
7.011496110E-1,8.066663742E0,5.385756493E0,4.082113802E-1,9.707938682E0
7.031427880E-1,7.894281387E0,5.390544891E0,5.524620414E-1,9.575117083E0
7.051359650E-1,8.042721748E0,5.476736546E0,6.338648796E-1,9.750989744E0
7.071291420E-1,8.090605736E0,5.505466938E0,1.189319730E0,9.858120957E0
7.091223190E-1,8.229470253E0,5.524620533E0,1.241992116E0,9.989402239E0
7.111154960E-1,8.459911346E0,5.606023312E0,1.261145711E0,1.022683166E1
7.131086730E-1,8.766369820E0,5.639542103E0,1.294664621E0,1.050380081E1
7.151018510E-1,8.962694168E0,5.682637691E0,1.036090732E0,1.066282054E1
7.170950280E-1,8.977059364E0,5.653907299E0,8.684966564E-1,1.064464884E1
7.190882050E-1,9.005789757E0,5.797559261E0,7.344213724E-1,1.073570292E1
7.210813820E-1,8.929175377E0,5.913079739E0,6.290764809E-1,1.072802042E1
7.230745590E-1,8.617929459E0,6.186018467E0,7.583633661E-1,1.063534897E1
7.250677360E-1,8.962694168E0,6.147711277E0,7.200561762E-1,1.089232398E1
7.270609130E-1,8.560467720E0,6.449380875E0,7.535749674E-1,1.074448679E1
7.290540900E-1,8.627506256E0,6.621763229E0,3.603273630E-1,1.088170245E1
7.310472670E-1,8.536525726E0,6.712742805E0,2.789244950E-1,1.086328617E1
7.330404440E-1,8.560467720E0,6.827664852E0,3.220201433E-1,1.095455667E1
7.350336210E-1,8.479064941E0,6.741473198E0,4.944026470E-1,1.084372801E1
7.370267980E-1,8.277354240E0,6.851606846E0,-1.376665980E-1,1.074607192E1
7.390199760E-1,8.522160530E0,6.995258808E0,-8.948329091E-1,1.106171740E1
7.410131530E-1,8.790311813E0,6.885125637E0,-1.445499301E0,1.125895222E1
7.430063820E-1,8.823830605E0,6.842030048E0,-1.810016513E0,1.131147742E1
7.449996110E-1,8.680178642E0,6.832453251E0,-1.886630893E0,1.120657373E1
7.469928920E-1,8.603564262E0,6.755838871E0,-2.193088770E0,1.115671615E1
7.489861730E-1,8.718485832E0,6.755838871E0,-2.384624958E0,1.128449335E1
7.509794550E-1,8.775946617E0,6.612186432E0,-2.461239338E0,1.126037067E1
7.529727360E-1,8.646659851E0,6.597821236E0,-2.475604534E0,1.115457706E1
7.549660170E-1,8.450334549E0,6.425438881E0,-2.580949545E0,1.092500432E1
7.569592980E-1,8.847772598E0,6.123769283E0,-2.724601507E0,1.109986863E1
7.589525800E-1,9.427767754E0,5.582081318E0,-2.786850691E0,1.130526309E1
7.609458610E-1,1.072602367E1,4.695628166E0,-3.472191095E0,1.221280552E1
7.629391420E-1,1.182795525E1,3.680486679E0,-3.831321239E0,1.296632291E1
7.649324230E-1,1.206258678E1,3.071760893E0,-4.171896458E0,1.312807811E1
7.669256530E-1,1.210089397E1,2.698265314E0,-4.703409195E0,1.326025372E1
7.689186730E-1,1.288679028E1,2.285864115E0,-5.350442410E0,1.413936959E1
7.709116940E-1,1.358589745E1,2.056020737E0,-5.609015942E0,1.484132375E1
7.729047150E-1,1.390672016E1,1.921945453E0,-4.995501995E0,1.490120063E1
7.748977360E-1,1.364335823E1,1.960252643E0,-4.191050053E0,1.440655111E1
7.768907570E-1,1.365293503E1,2.032078743E0,-3.204040527E0,1.417031597E1
7.788837780E-1,1.342788029E1,1.945887446E0,-2.193088770E0,1.374423826E1
7.808767980E-1,1.339436150E1,2.113481522E0,-1.402403593E0,1.363240477E1
7.828698190E-1,1.315972996E1,2.199672699E0,-4.201824069E-1,1.334891778E1
7.848628400E-1,1.301607800E1,2.367266893E0,3.794809580E-1,1.323503852E1
7.868558610E-1,1.280538750E1,2.395997286E0,1.083974838E0,1.307263376E1
7.888488820E-1,1.234031391E1,2.573766708E0,1.793257117E0,1.273276850E1
7.908419030E-1,1.239298630E1,2.640804529E0,2.248155355E0,1.286911654E1
7.928349230E-1,1.318367195E1,2.750937700E0,3.125031710E0,1.382543625E1
7.948279440E-1,1.295861626E1,2.693476915E0,3.819350243E0,1.377563027E1
7.968210170E-1,1.378222179E1,2.607285738E0,3.934870481E0,1.456814272E1
7.988141420E-1,1.546414852E1,2.386420488E0,4.954800606E0,1.641295041E1
8.008073190E-1,1.388756657E1,1.936310649E0,6.186617374E0,1.532605750E1
8.028005480E-1,1.219187355E1,1.644217968E0,5.515642166E0,1.348211934E1
8.047938300E-1,1.192851162E1,1.562815189E0,4.384980202E0,1.280468009E1
8.067871110E-1,1.199554920E1,1.423951507E0,3.891774893E0,1.269120760E1
8.087803920E-1,1.182316685E1,1.231816769E0,3.997119665E0,1.254119661E1
8.107736730E-1,1.145386124E1,6.667851806E-1,3.249530315E0,1.192455395E1
8.127669550E-1,1.087446404E1,3.890577853E-1,2.161964178E0,1.109411660E1
8.147602360E-1,9.810839653E0,7.721300423E-2,1.218050122E0,9.886464618E0
8.167535170E-1,7.688380241E0,-1.110909581E0,2.513911761E-2,7.768265109E0
8.187467460E-1,6.241683960E0,-1.997362733E0,-6.458359361E-1,6.585224415E0
8.207399230E-1,5.230731964E0,-2.686892748E0,-1.426345706E0,6.050984349E0
8.227329440E-1,4.435258865E0,-3.214215755E0,-1.905784607E0,5.799544732E0
8.247259650E-1,3.668515444E0,-3.673902512E0,-2.260126352E0,5.662484998E0
8.267189860E-1,3.069965124E0,-4.013879299E0,-2.686294317E0,5.722944177E0
8.287120070E-1,2.691681147E0,-4.407126904E0,-2.854486942E0,5.900509355E0
8.307050280E-1,1.915361404E0,-4.603451252E0,-3.060388327E0,5.850329003E0
8.326980480E-1,1.009754539E0,-4.747103214E0,-3.146579504E0,5.784077777E0
8.346910690E-1,1.089361757E-1,-4.885967255E0,-3.256712914E0,5.872880222E0
8.366840900E-1,-1.241992116E0,-4.847660065E0,-3.745130062E0,6.250468119E0
8.386771110E-1,-2.454056740E0,-4.713584423E0,-4.128800869E0,6.729581652E0
8.406701840E-1,-3.699640274E0,-4.579509258E0,-4.411316395E0,7.356558675E0
8.426633090E-1,-4.313154221E0,-4.502894878E0,-4.516661644E0,7.699324258E0
8.446564340E-1,-4.748898983E0,-4.292205334E0,-4.598064423E0,7.881450667E0
8.466495590E-1,-4.552574635E0,-4.124012470E0,-4.430470467E0,7.573802428E0
8.486426840E-1,-4.590881824E0,-3.951629877E0,-4.401739597E0,7.487782455E0
8.506358090E-1,-4.768052578E0,-3.669114113E0,-4.712985992E0,7.642575530E0
8.526289340E-1,-4.940435410E0,-3.463212729E0,-4.813542366E0,7.718285726E0
8.546220590E-1,-5.026626587E0,-3.262099743E0,-4.813542366E0,7.686251342E0
8.566151840E-1,-5.021838188E0,-3.026869535E0,-4.765658379E0,7.555944531E0
8.586083090E-1,-5.577891350E0,-2.452261209E0,-5.072116375E0,7.927977136E0
8.606014340E-1,-7.287950039E0,2.543839216E-1,-4.976348400E0,8.828531608E0
8.625945590E-1,-9.717466354E0,4.044404984E0,-5.848436356E0,1.204120309E1
8.645876840E-1,-1.183453941E1,7.302315235E0,-7.343615055E0,1.572605523E1
8.665808090E-1,-1.370321369E1,1.117792892E1,-9.628880501E0,2.013552831E1
8.685739340E-1,-1.584961510E1,1.491527843E1,-1.155441761E1,2.464103074E1
8.705670590E-1,-1.922244644E1,1.939482880E1,-1.243608189E1,3.000529893E1
8.725601840E-1,-2.492842865E1,2.463094902E1,-1.325549793E1,3.746756504E1
8.745533090E-1,-3.325486374E1,2.964261055E1,-1.443404388E1,4.682853772E1
8.765464340E-1,-4.309084320E1,3.444777298E1,-1.712632370E1,5.776487509E1
8.785395590E-1,-5.467099762E1,3.943010712E1,-1.991018105E1,7.028560761E1
8.805326840E-1,-6.272928238E1,4.245817566E1,-2.172558403E1,7.880139941E1
8.825258090E-1,-6.777386475E1,4.391923523E1,-2.189796638E1,8.367626245E1
8.845189340E-1,-6.774034882E1,4.270717239E1,-1.968452835E1,8.246294979E1
8.865120590E-1,-6.064991760E1,3.807439041E1,-1.606748772E1,7.339097950E1
8.885051840E-1,-4.915655136E1,3.203322220E1,-1.125753593E1,5.974299943E1
8.904983090E-1,-3.844848633E1,2.690663719E1,-6.653486729E0,4.739749056E1
8.924914340E-1,-2.967134094E1,2.304059982E1,-3.017292738E0,3.768768723E1
8.944845590E-1,-2.274850655E1,2.012745476E1,-1.616086215E-1,3.037490909E1
8.964776840E-1,-1.743517494E1,1.792359161E1,2.037465572E0,2.508768079E1
8.984708090E-1,-1.355956173E1,1.633803177E1,3.575141668E0,2.153078341E1
9.004639860E-1,-1.077091503E1,1.493443203E1,4.950012207E0,1.906705251E1
9.024572150E-1,-8.131307602E0,1.353502083E1,6.037578106E0,1.690465325E1
9.044504960E-1,-6.109404087E0,1.237562847E1,7.072471619E0,1.550808993E1
9.064437780E-1,-4.413711071E0,1.148917580E1,7.748235226E0,1.454362936E1
9.084370590E-1,-2.908955097E0,1.083795261E1,8.471882820E0,1.406044221E1
9.104303400E-1,-1.481412292E0,1.032499504E1,9.199720383E0,1.390808974E1
9.124236210E-1,-2.885012925E-1,9.831789017E0,9.909002304E0,1.396193521E1
9.144169030E-1,8.086416125E-1,9.520543098E0,1.048839951E1,1.418806422E1
9.164101840E-1,1.675941229E0,9.247005463E0,1.078108978E1,1.430202034E1
9.184034650E-1,2.394201756E0,8.916605949E0,1.099178028E1,1.435469601E1
9.203967460E-1,2.964620352E0,8.653243065E0,1.113543224E1,1.441060167E1
9.223900280E-1,3.472191095E0,8.447341919E0,1.115937424E1,1.442030963E1
9.243833090E-1,3.803189516E0,8.265382767E0,1.113064384E1,1.437609249E1
9.263765900E-1,4.095282078E0,8.044517517E0,1.092953110E1,1.417533941E1
9.283698710E-1,4.272452831E0,7.814674377E0,1.069489861E1,1.391775287E1
9.303631530E-1,4.339490414E0,7.608773232E0,1.034474659E1,1.355501343E1
9.323564340E-1,4.296394825E0,7.374141216E0,9.932944298E0,1.309581420E1
9.343497150E-1,4.171896458E0,7.158663273E0,9.564237595E0,1.265408316E1
9.363429960E-1,3.970783472E0,6.947374821E0,9.080010414E0,1.210288095E1
9.383362260E-1,3.486556292E0,6.760627270E0,8.443152428E0,1.136437322E1
9.403294550E-1,2.647987127E0,6.674435616E0,7.628525257E0,1.047636980E1
9.423226840E-1,1.723825216E0,6.707954407E0,6.823474884E0,9.722552915E0
9.443159130E-1,8.661024570E-1,6.770204067E0,6.080673695E0,9.141137192E0
9.463091420E-1,8.020575345E-2,6.913856030E0,5.419874191E0,8.785378444E0
9.483023710E-1,-6.524199843E-1,7.062894821E0,4.791994572E0,8.559985226E0
9.502956010E-1,-1.270722508E0,7.240066051E0,4.183867455E0,8.458016257E0
9.522888300E-1,-1.879448295E0,7.407660007E0,3.603872061E0,8.449476109E0
9.542820590E-1,-2.449268341E0,7.575253963E0,3.062782526E0,8.530183164E0
9.562752880E-1,-2.957437754E0,7.771578789E0,2.535459518E0,8.693240472E0
9.582685170E-1,-3.455431700E0,8.001421928E0,2.056619167E0,8.955023367E0
9.602617460E-1,-3.900753021E0,8.231863976E0,1.567603588E0,9.243205053E0
9.622549760E-1,-4.250905037E0,8.509591103E0,1.141435623E0,9.580511972E0
9.642482050E-1,-4.423287868E0,8.758588791E0,7.200561762E-1,9.838538208E0
9.662414340E-1,-4.514267445E0,8.940547943E0,2.837128937E-1,1.001960584E1
9.682346630E-1,-4.533421040E0,9.045892715E0,-1.185129806E-1,1.011899830E1
9.702278920E-1,-4.456806660E0,9.175179482E0,-4.872200489E-1,1.021197471E1
9.722211210E-1,-4.317942619E0,9.242217064E0,-8.038532138E-1,1.023276037E1
9.742143510E-1,-4.121618271E0,9.285911560E0,-1.095945835E0,1.021846309E1
9.762075800E-1,-3.872022629E0,9.324218750E0,-1.426345706E0,1.019647373E1
9.782008090E-1,-3.584718466E0,9.324218750E0,-1.675342679E0,1.012906881E1
9.801940380E-1,-3.249530315E0,9.305065155E0,-1.910573006E0,1.003962021E1
9.821872670E-1,-2.861071110E0,9.251793861E0,-2.111685991E0,9.911641402E0
9.841804960E-1,-2.501940727E0,9.227851868E0,-2.269703150E0,9.826724270E0
9.861737260E-1,-2.233790159E0,9.237428665E0,-2.461239338E0,9.817209680E0
9.881669030E-1,-2.018311977E0,9.276334763E0,-2.614468336E0,9.846797172E0
9.901600800E-1,-1.874659896E0,9.305065155E0,-2.810792685E0,9.899451640E0
9.921531530E-1,-1.817199111E0,9.290699959E0,-2.998139143E0,9.930163979E0
9.941462260E-1,-1.773504853E0,9.281123161E0,-3.141791105E0,9.957681354E0
9.961392980E-1,-1.711255670E0,9.319430351E0,-3.280654907E0,1.002710699E1
9.981323710E-1,-1.672948480E0,9.405621529E0,-3.376422882E0,1.013235927E1
1.000125444E0,-1.706467271E0,9.573215485E0,-3.429095268E0,1.031102224E1
1.002118517E0,-1.739986062E0,9.683348656E0,-3.544017076E0,1.045728692E1
1.004111590E0,-1.797446966E0,9.865307808E0,-3.620631456E0,1.066133603E1
1.006104663E0,-1.792658567E0,9.999382973E0,-3.663727045E0,1.079926759E1
1.008097736E0,-1.773504853E0,1.016218948E1,-3.697246075E0,1.095833213E1
1.010090809E0,-1.826775908E0,1.029147625E1,-3.778648853E0,1.111439521E1
1.012083882E0,-1.817199111E0,1.042136192E1,-3.783437252E0,1.123482952E1
1.014076955E0,-1.802235365E0,1.054107189E1,-3.778648853E0,1.134197673E1
1.016070028E0,-1.739986062E0,1.056022549E1,-3.735553265E0,1.133579605E1
1.018063153E0,-1.692102075E0,1.056501389E1,-3.634996653E0,1.130026232E1
1.020056330E0,-1.711255670E0,1.059853268E1,-3.496133089E0,1.129071466E1
1.022049559E0,-1.682525277E0,1.063205147E1,-3.366846085E0,1.127861083E1
1.024042840E0,-1.625064373E0,1.059374428E1,-3.237559319E0,1.119598331E1
1.026036121E0,-1.610699177E0,1.056501389E1,-3.117849112E0,1.113260317E1
1.028029403E0,-1.534084797E0,1.052191830E1,-3.017292738E0,1.105297409E1
1.030022684E0,-1.495777488E0,1.043572712E1,-2.926312923E0,1.094098067E1
1.032015965E0,-1.352125406E0,1.027232265E1,-2.715024710E0,1.071075231E1
1.034009246E0,-1.237203717E0,1.008557510E1,-2.489969730E0,1.046180900E1
1.036002528E0,-1.146224022E0,9.874884605E0,-2.159569979E0,1.017304861E1
1.037995809E0,-1.083974838E0,9.668983459E0,-1.838746905E0,9.901779273E0
1.039989090E0,-1.007360339E0,9.434351921E0,-1.502960086E0,9.606282322E0
1.041982371E0,-9.546879530E-1,9.333795547E0,-1.182137132E0,9.456670482E0
1.043975653E0,-9.690531492E-1,9.271546364E0,-8.804676533E-1,9.363538822E0
1.045968882E0,-1.007360339E0,9.189544678E0,-6.314706802E-1,9.266135195E0
1.047962059E0,-1.064821243E0,9.189544678E0,-3.818751574E-1,9.258909455E0
1.049955184E0,-1.160589218E0,9.218275070E0,-1.520318091E-1,9.292291228E0
1.051948309E0,-1.256357312E0,9.261370659E0,4.429273307E-2,9.346303121E0
1.053941434E0,-1.385644197E0,9.391256332E0,1.927332431E-1,9.494885541E0
1.055934559E0,-1.467047095E0,9.333795547E0,3.507505357E-1,9.454892513E0
1.057927528E0,-1.467047095E0,9.352949142E0,4.177882075E-1,9.476520027E0
1.059920496E0,-1.534084797E0,9.381679535E0,3.794809580E-1,9.513849529E0
1.061913465E0,-1.706467271E0,9.348160744E0,3.890577853E-1,9.510599655E0
1.063906434E0,-1.865083098E0,9.362525940E0,4.704606235E-1,9.558073035E0
1.065899403E0,-1.956062794E0,9.391256332E0,4.848258495E-1,9.605047280E0
1.067892371E0,-2.090138197E0,9.281123161E0,4.129997790E-1,9.522525591E0
1.069885340E0,-2.176329374E0,9.247005463E0,4.704606235E-1,9.511301318E0
1.071878309E0,-2.209848166E0,9.463082314E0,6.194996834E-1,9.737409083E0
1.073871278E0,-2.161964178E0,9.630676270E0,6.530185342E-1,9.891938522E0
1.075864246E0,-2.008735180E0,9.769539833E0,6.721721292E-1,9.996536447E0
1.077857267E0,-1.841141105E0,9.841365814E0,7.056909800E-1,1.003694582E1
1.079850340E0,-1.817199111E0,9.884461403E0,6.865373254E-1,1.007353579E1
1.081843413E0,-1.850717902E0,9.985017776E0,6.194996834E-1,1.017396268E1
1.083836486E0,-1.932120800E0,1.009994030E1,5.811924338E-1,1.029949851E1
1.085829559E0,-1.951274395E0,1.015740108E1,4.944026470E-1,1.035493614E1
1.087822632E0,-1.936909199E0,1.015740108E1,4.034229815E-1,1.034829281E1
1.089815705E0,-1.946485996E0,1.012867069E1,2.932897210E-1,1.031817797E1
1.091808778E0,-1.932120800E0,1.012388229E1,1.592144072E-1,1.030783356E1
1.093801851E0,-1.951274395E0,1.012867069E1,4.429273307E-2,1.031500866E1
1.095794923E0,-1.932120800E0,1.014303589E1,-7.541735470E-2,1.032569395E1
1.097788048E0,-1.922544003E0,1.015261269E1,-2.286462635E-1,1.033556960E1
1.099781226E0,-1.912967205E0,1.013345909E1,-3.770867586E-1,1.031933288E1
1.101774403E0,-1.807023764E0,1.014782429E1,-5.351040959E-1,1.032133756E1
1.103767580E0,-1.720832467E0,1.010951710E1,-7.128735781E-1,1.027967845E1
1.105760757E0,-1.601122379E0,1.008557510E1,-8.756792545E-1,1.024935277E1
1.107753934E0,-1.462258697E0,1.004726696E1,-1.014542937E0,1.020367930E1
1.109747111E0,-1.309029818E0,1.002811337E1,-1.162983418E0,1.017984023E1
1.111740288E0,-1.155800819E0,1.000417137E1,-1.268328309E0,1.015026980E1
1.113733465E0,-1.069609642E0,9.951498985E0,-1.407191992E0,1.010725413E1
1.115726642E0,-9.882067442E-1,9.908403397E0,-1.507748485E0,1.007106330E1
1.117719819E0,-9.211691022E-1,9.850942612E0,-1.617881775E0,1.002532614E1
1.119712996E0,-9.020155072E-1,9.779116631E0,-1.708861470E0,9.968197509E0
1.121706173E0,-9.403226972E-1,9.745597839E0,-1.766920805E0,9.949014682E0
1.123699351E0,-1.026513934E0,9.712079048E0,-1.838746905E0,9.937766373E0
1.125692528E0,-1.103128433E0,9.716867447E0,-1.934514999E0,9.968788974E0
1.127685705E0,-1.179742932E0,9.726444244E0,-1.996764183E0,9.999128873E0
1.129678882E0,-1.285087705E0,9.750386238E0,-2.035071373E0,1.004305719E1
1.131672059E0,-1.376067400E0,9.759963036E0,-2.054224968E0,1.006828089E1
1.133665236E0,-1.476623893E0,9.755174637E0,-2.073378563E0,1.008180286E1
1.135658413E0,-1.572391987E0,9.774328232E0,-2.039859772E0,1.010796403E1
1.137651590E0,-1.692102075E0,9.764751434E0,-2.030282974E0,1.011610740E1
1.139644767E0,-1.879448295E0,9.731232643E0,-2.011129379E0,1.011305374E1
1.141637944E0,-2.037465572E0,9.683348656E0,-1.977610588E0,1.009105796E1
1.143631121E0,-2.118868589E0,9.640253067E0,-1.900996208E0,1.005175954E1
1.145624298E0,-2.176329374E0,9.625887871E0,-1.781286120E0,1.002831527E1
1.147617476E0,-2.233790159E0,9.582792282E0,-1.665765882E0,9.979704523E0
1.149610653E0,-2.252943754E0,9.549273491E0,-1.550844193E0,9.933252110E0
1.151603830E0,-2.272097349E0,9.554061890E0,-1.431134105E0,9.924246560E0
1.153596955E0,-2.248155355E0,9.530119896E0,-1.316212416E0,9.879767348E0
1.155589976E0,-2.209848166E0,9.520543098E0,-1.230021119E0,9.850742193E0
1.157582892E0,-2.185906172E0,9.477447510E0,-1.119887829E0,9.790523267E0
1.159575809E0,-2.195482969E0,9.463082314E0,-1.038484931E0,9.769776010E0
1.161568726E0,-2.185906172E0,9.410409927E0,-9.666589499E-1,9.709193083E0
1.163561642E0,-2.152387381E0,9.400833130E0,-8.852560520E-1,9.684632840E0
1.165554559E0,-2.147598982E0,9.386467934E0,-8.613140583E-1,9.667462106E0
1.167547476E0,-2.128445387E0,9.367314339E0,-8.373720646E-1,9.642512622E0
1.169540392E0,-2.094926596E0,9.372102737E0,-8.469488621E-1,9.640661260E0
1.171533309E0,-2.075772762E0,9.348160744E0,-8.804676533E-1,9.616244856E0
1.173526226E0,-2.042253971E0,9.357737541E0,-9.427168965E-1,9.624280146E0
1.175519194E0,-2.027888775E0,9.367314339E0,-1.009754539E0,9.637350000E0
1.177512215E0,-2.018311977E0,9.372102737E0,-1.091157436E0,9.648860944E0
1.179505288E0,-2.027888775E0,9.396044731E0,-1.172560334E0,9.683640184E0
1.181498413E0,-2.032677174E0,9.424775124E0,-1.244386315E0,9.721453591E0
1.183491590E0,-2.085349798E0,9.458293915E0,-1.311424017E0,9.773834484E0
1.185484819E0,-2.118868589E0,9.472659111E0,-1.344942808E0,9.799476817E0
1.187478101E0,-2.152387381E0,9.525331497E0,-1.388038397E0,9.863638383E0
1.189471434E0,-2.205059767E0,9.554061890E0,-1.421557307E0,9.907734975E0
1.191464819E0,-2.300827742E0,9.601945877E0,-1.455076098E0,9.980401764E0
1.193458205E0,-2.363077164E0,9.630676270E0,-1.474229693E0,1.002533851E1
1.195451590E0,-2.430114746E0,9.673771858E0,-1.488594890E0,1.008480215E1
1.197444976E0,-2.487575531E0,9.697713852E0,-1.479018092E0,1.012033500E1
1.199438361E0,-2.549824715E0,9.726444244E0,-1.488594890E0,1.016470553E1
1.201431694E0,-2.602497339E0,9.769539833E0,-1.479018092E0,1.021784691E1
1.203424923E0,-2.655169725E0,9.803058624E0,-1.435922503E0,1.025727830E1
1.205418048E0,-2.717418909E0,9.827000618E0,-1.426345706E0,1.029508469E1
1.207411173E0,-2.746149302E0,9.831789017E0,-1.407191992E0,1.030463976E1
1.209404194E0,-2.784456491E0,9.865307808E0,-1.368884802E0,1.034172818E1
1.211397215E0,-2.832340717E0,9.894038200E0,-1.325789213E0,1.037650533E1
1.213390236E0,-2.865859509E0,9.898826599E0,-1.292270422E0,1.038604263E1
1.215383257E0,-2.908955097E0,9.894038200E0,-1.220444322E0,1.038477231E1
1.217376278E0,-2.923320293E0,9.908403397E0,-1.191713929E0,1.039915581E1
1.219369298E0,-2.967014551E0,9.903614998E0,-1.119887829E0,1.039898621E1
1.221362319E0,-2.962226152E0,9.903614998E0,-1.076792240E0,1.039306766E1
1.223355392E0,-2.986168146E0,9.884461403E0,-9.858125448E-1,1.037263726E1
1.225348465E0,-2.967014551E0,9.874884605E0,-9.187749028E-1,1.035184373E1
1.227341538E0,-2.962226152E0,9.855731010E0,-8.613140583E-1,1.032724936E1
1.229334663E0,-2.962226152E0,9.822212219E0,-7.942764163E-1,1.028987423E1
1.231327788E0,-2.932897091E0,9.769539833E0,-7.176619768E-1,1.022549914E1
1.233320913E0,-2.938283920E0,9.740809441E0,-6.362590790E-1,1.019419965E1
1.235314038E0,-2.952649355E0,9.721655846E0,-5.542576909E-1,1.017526079E1
1.237307163E0,-2.957437754E0,9.683348656E0,-4.776432514E-1,1.013616408E1
1.239300288E0,-2.957437754E0,9.654618263E0,-4.153940082E-1,1.010597071E1
1.241293413E0,-2.904166698E0,9.606734276E0,-3.483563364E-1,1.004215514E1
1.243286538E0,-2.875436306E0,9.582792282E0,-3.004723191E-1,1.000941185E1
1.245279663E0,-2.856282711E0,9.534908295E0,-2.334346622E-1,9.956270329E0
1.247272788E0,-2.841917515E0,9.487024307E0,-1.951274425E-1,9.905463143E0
1.249265913E0,-2.803610086E0,9.458293915E0,-1.328781992E-1,9.865962189E0
1.251259038E0,-2.817975283E0,9.386467934E0,-1.568202078E-1,9.801599744E0
1.253252163E0,-2.822763920E0,9.343372345E0,-7.062894851E-2,9.760716745E0
1.255245288E0,-2.779668093E0,9.300276756E0,-3.711012751E-2,9.706857350E0
1.257238413E0,-2.698265314E0,9.281123161E0,5.865794048E-2,9.665574147E0
1.259231538E0,-2.640804529E0,9.281123161E0,1.256955862E-1,9.650331345E0
1.261224663E0,-2.559401512E0,9.295488358E0,1.783680320E-1,9.643052165E0
1.263217788E0,-2.473210335E0,9.295488358E0,2.214636505E-1,9.621430211E0
1.265210913E0,-2.406172752E0,9.314641953E0,2.597708702E-1,9.623913077E0
1.267204038E0,-2.343923569E0,9.333795547E0,2.885012925E-1,9.627925530E0
1.269197163E0,-2.276885748E0,9.352949142E0,3.076549172E-1,9.631018530E0
1.271190184E0,-2.229001760E0,9.376891136E0,3.028665185E-1,9.642938575E0
1.273183205E0,-2.176329374E0,9.396044731E0,3.172317147E-1,9.650010471E0
1.275176121E0,-2.152387381E0,9.405621529E0,3.220201433E-1,9.654127861E0
1.277169038E0,-2.109291792E0,9.415198326E0,3.172317147E-1,9.653792381E0
1.279161955E0,-2.099714994E0,9.439140320E0,2.885012925E-1,9.674161774E0
1.281154871E0,-2.099714994E0,9.434351921E0,2.406172752E-1,9.668179555E0
1.283147788E0,-2.080561161E0,9.453505516E0,2.166752517E-1,9.682171732E0
1.285140705E0,-2.066195965E0,9.429563522E0,1.592144072E-1,9.654593892E0
1.287133621E0,-2.085349798E0,9.434351921E0,1.161187813E-1,9.662772041E0
1.289126538E0,-2.090138197E0,9.434351921E0,5.865794048E-2,9.663286946E0
1.291119455E0,-2.123656988E0,9.467870712E0,2.513911761E-2,9.703150355E0
1.293112371E0,-2.099714994E0,9.515754700E0,1.077390742E-2,9.744665548E0
1.295105340E0,-2.094926596E0,9.578003883E0,-3.591302549E-3,9.804432096E0
1.297098361E0,-2.099714994E0,9.616311073E0,1.077390742E-2,9.842883612E0
1.299091434E0,-2.061407566E0,9.668983459E0,2.513911761E-2,9.886317528E0
1.301084559E0,-2.018311977E0,9.716867447E0,4.908113554E-2,9.924389411E0
1.303077736E0,-1.980004787E0,9.764751434E0,8.738835901E-2,9.963855993E0
1.305070965E0,-1.922544003E0,9.817423820E0,1.400607973E-1,1.000487896E1
1.307064246E0,-1.898601890E0,9.860519409E0,2.023100406E-1,1.004367769E1
1.309057528E0,-1.874659896E0,9.913191795E0,2.501940727E-1,1.009199278E1
1.311050809E0,-1.841141105E0,9.946710587E0,3.124433160E-1,1.012049766E1
1.313044090E0,-1.802235365E0,9.980229378E0,3.746925592E-1,1.014856765E1
1.315037371E0,-1.773504853E0,1.002811337E1,4.321534038E-1,1.019289624E1
1.317030653E0,-1.730409265E0,1.006642151E1,4.800374508E-1,1.022534079E1
1.319023934E0,-1.677736878E0,1.012388229E1,5.237316489E-1,1.027531452E1
1.321017215E0,-1.625064373E0,1.017176628E1,5.955576897E-1,1.031796261E1
1.323010392E0,-1.529296279E0,1.023880386E1,6.434416771E-1,1.037236081E1
1.325003517E0,-1.428739905E0,1.026753426E1,6.673837304E-1,1.038792368E1
1.326996590E0,-1.476623893E0,1.024359226E1,6.578069329E-1,1.037035730E1
1.328989663E0,-1.471835494E0,1.021486187E1,6.721721292E-1,1.034222017E1
1.330982736E0,-1.419163108E0,1.024359226E1,7.009025216E-1,1.036515657E1
1.332975809E0,-1.385644197E0,1.028668785E1,7.679402232E-1,1.040796277E1
1.334968882E0,-1.342548609E0,1.032020664E1,8.445546627E-1,1.044137800E1
1.336961955E0,-1.241992116E0,1.039263058E1,9.355342984E-1,1.050830810E1
1.338955028E0,-1.122282028E0,1.043093872E1,1.031302333E0,1.054170688E1
1.340948153E0,-1.040879130E0,1.046445751E1,1.107916832E0,1.057429809E1
1.342941330E0,-9.020155072E-1,1.049318790E1,1.194108129E0,1.059936407E1
1.344934559E0,-7.918822169E-1,1.051712990E1,1.237203717E0,1.061921710E1
1.346927840E0,-6.907271743E-1,1.051712990E1,1.280299306E0,1.061726385E1
1.348921173E0,-5.853823423E-1,1.053628349E1,1.261145711E0,1.062762583E1
1.350914507E0,-5.087678432E-1,1.052191830E1,1.251568913E0,1.060830025E1
1.352907840E0,-4.082113802E-1,1.051712990E1,1.241992116E0,1.059807540E1
1.354901173E0,-3.746925592E-1,1.051234150E1,1.241992116E0,1.059208491E1
1.356894507E0,-2.980781198E-1,1.048839951E1,1.241992116E0,1.056588468E1
1.358887840E0,-2.023100406E-1,1.047403431E1,1.198896527E0,1.054436707E1
1.360881017E0,-1.209071875E-1,1.045009232E1,1.141435623E0,1.051294075E1
1.362874194E0,-1.113303825E-1,1.033936024E1,1.012148738E0,1.038937966E1
1.364867371E0,-5.386953801E-2,1.032020664E1,8.637082577E-1,1.035642598E1
1.366860548E0,-1.556231081E-2,1.031541824E1,7.104793787E-1,1.033986831E1
1.368853726E0,6.584054977E-2,1.037287903E1,7.009025216E-1,1.039674077E1
1.370846903E0,1.089361757E-1,1.047403431E1,6.961141229E-1,1.049770626E1
1.372840080E0,1.520318091E-1,1.052670670E1,6.769605279E-1,1.054954706E1
1.374833257E0,2.238578647E-1,1.051234150E1,6.338648796E-1,1.053381321E1
1.376826434E0,3.004723191E-1,1.054586029E1,6.099228859E-1,1.056775562E1
1.378819611E0,3.722983599E-1,1.052191830E1,5.524620414E-1,1.054298748E1
1.380812788E0,3.818751574E-1,1.052670670E1,5.087678432E-1,1.054591045E1
1.382805965E0,4.447229803E-1,1.052670670E1,4.513070285E-1,1.054575793E1
1.384799142E0,4.686649740E-1,1.050755310E1,3.794809580E-1,1.052484322E1
1.386792371E0,4.686649740E-1,1.047882271E1,3.459621370E-1,1.049500176E1
1.388785601E0,4.782418013E-1,1.048361111E1,3.124433160E-1,1.049916368E1
1.390778882E0,4.542997777E-1,1.045009232E1,2.166752517E-1,1.046220655E1
1.392772215E0,4.106055796E-1,1.038245583E1,1.640028208E-1,1.039186619E1
1.394765548E0,3.579331636E-1,1.033457184E1,4.429273307E-2,1.034086327E1
1.396758882E0,2.861070931E-1,1.028668785E1,-7.062894851E-2,1.029090825E1
1.398752215E0,2.286462635E-1,1.027232265E1,-9.935937077E-2,1.027534740E1
1.400745548E0,1.472434103E-1,1.025316906E1,-1.280897856E-1,1.025502625E1
1.402738882E0,7.062894851E-2,1.026274586E1,-1.089361757E-1,1.026356702E1
1.404732215E0,3.232172132E-2,1.033457184E1,-3.711012751E-2,1.033468901E1
1.406725548E0,-7.781155407E-2,1.040220737E1,1.077390742E-2,1.040250398E1
1.408718882E0,-1.209071875E-1,1.050276470E1,8.738835901E-2,1.050382414E1
1.410712163E0,-1.352723986E-1,1.067035866E1,2.214636505E-1,1.067351389E1
1.412705288E0,-2.262520641E-1,1.082358742E1,3.315969408E-1,1.083102909E1
1.414698361E0,-2.741360962E-1,1.091456699E1,4.704606235E-1,1.092814058E1
1.416691434E0,-3.459621370E-1,1.103427696E1,6.099228859E-1,1.105653489E1
1.418684507E0,-4.321534038E-1,1.123060131E1,8.732850552E-1,1.127278977E1
1.420677580E0,-4.848258495E-1,1.138861847E1,1.222838521E0,1.146433691E1
1.422670653E0,-6.189011335E-1,1.151850414E1,1.601122379E0,1.164571033E1
1.424663726E0,-7.679402232E-1,1.170525169E1,1.956062794E0,1.189238542E1
1.426656798E0,-7.631517649E-1,1.188721180E1,2.238578558E0,1.212020788E1
1.428649871E0,-9.355342984E-1,1.201171017E1,2.353500366E0,1.227580423E1
1.430642944E0,-1.069609642E0,1.210268974E1,2.650381327E0,1.243558141E1
1.432636017E0,-1.146224022E0,1.216972733E1,2.938283920E0,1.257177812E1
1.434629142E0,-1.232415318E0,1.223676491E1,3.053205729E0,1.267198990E1
1.436622319E0,-1.232415318E0,1.229422569E1,3.096301317E0,1.273789287E1
1.438615548E0,-1.189319730E0,1.238999367E1,3.125031710E0,1.283324775E1
1.440608830E0,-1.208473325E0,1.247618484E1,3.158550501E0,1.292640852E1
1.442602163E0,-1.165377736E0,1.252406883E1,3.177704096E0,1.297336536E1
1.444595548E0,-1.103128433E0,1.263480091E1,3.192069530E0,1.307839418E1
1.446588986E0,-1.002571940E0,1.270662689E1,3.163338900E0,1.313279218E1
1.448582476E0,-9.451110959E-1,1.270183849E1,3.034052134E0,1.309333450E1
1.450576017E0,-9.115923047E-1,1.262462521E1,3.000533342E0,1.300828053E1
1.452569559E0,-9.163807034E-1,1.252406883E1,2.952649355E0,1.290000744E1
1.454563101E0,-9.546879530E-1,1.231337929E1,2.837727547E0,1.267215200E1
1.456556642E0,-1.040879130E0,1.217451572E1,2.693476915E0,1.251227719E1
1.458550132E0,-1.136647224E0,1.198297977E1,2.578555346E0,1.230986267E1
1.460543309E0,-1.337760210E0,1.177707863E1,2.477998734E0,1.210907350E1
1.462536486E0,-1.471835494E0,1.157596493E1,2.358288765E0,1.190507411E1
1.464529663E0,-1.701678872E0,1.134552288E1,2.252943754E0,1.169155062E1
1.466522840E0,-1.951274395E0,1.108694935E1,2.147598982E0,1.146037081E1
1.468516017E0,-2.262520552E0,1.086668301E1,2.051830769E0,1.128777251E1
1.470509194E0,-2.650381327E0,1.065599346E1,2.027888775E0,1.116633560E1
1.472502371E0,-2.928108692E0,1.047882271E1,1.956062794E0,1.105466994E1
1.474495548E0,-3.163338900E0,1.031541824E1,1.941697598E0,1.096288083E1
1.476488726E0,-3.354875088E0,1.016218948E1,1.860294700E0,1.086213507E1
1.478481903E0,-3.488950491E0,1.000895977E1,1.731007814E0,1.074003907E1
1.480475080E0,-3.651756048E0,9.917980194E0,1.572391987E0,1.068522671E1
1.482468309E0,-3.709217072E0,9.889249802E0,1.409586191E0,1.065563166E1
1.484461590E0,-3.790619850E0,9.898826599E0,1.218050122E0,1.066954605E1
1.486454923E0,-3.757101059E0,9.879673004E0,1.016937137E0,1.061875267E1
1.488448309E0,-3.661332846E0,9.783905029E0,8.397662640E-1,1.048023679E1
1.490441694E0,-3.517680883E0,9.707290649E0,6.673837304E-1,1.034654394E1
1.492435080E0,-3.388393879E0,9.664195061E0,5.668272376E-1,1.025666478E1
1.494428465E0,-3.225588322E0,9.582792282E0,4.560954273E-1,1.012138088E1
1.496421851E0,-3.067570925E0,9.534908295E0,3.986345828E-1,1.002413972E1
1.498415236E0,-2.928108692E0,9.477447510E0,3.363853395E-1,9.925169364E0
1.500408621E0,-2.822763920E0,9.396044731E0,2.885012925E-1,9.815135543E0
1.502402007E0,-2.707842112E0,9.367314339E0,2.214636505E-1,9.753360086E0
1.504395392E0,-2.631227732E0,9.362525940E0,2.214636505E-1,9.727759120E0
1.506388778E0,-2.597708941E0,9.381679535E0,2.118868530E-1,9.736986119E0
1.508382163E0,-2.516305923E0,9.400833130E0,2.310404629E-1,9.734517899E0
1.510375548E0,-2.511517525E0,9.410409927E0,2.837128937E-1,9.743922633E0
1.512368934E0,-2.477998734E0,9.376891136E0,3.459621370E-1,9.704960325E0
1.514362319E0,-2.501940727E0,9.372102737E0,3.363853395E-1,9.706140954E0
1.516355705E0,-2.583343744E0,9.348160744E0,3.651157618E-1,9.705415175E0
1.518348830E0,-2.626439333E0,9.352949142E0,4.321534038E-1,9.724330198E0
1.520341955E0,-2.664746523E0,9.338583946E0,4.896142483E-1,9.723669383E0
1.522335080E0,-2.669534922E0,9.324218750E0,5.764040351E-1,9.715951503E0
1.524328205E0,-2.631227732E0,9.295488358E0,6.242880821E-1,9.680867667E0
1.526321330E0,-2.626439333E0,9.266757965E0,6.913257241E-1,9.656547934E0
1.528314455E0,-2.616862535E0,9.251793861E0,7.679402232E-1,9.645381867E0
1.530307580E0,-2.578555346E0,9.276334763E0,9.068039060E-1,9.670658076E0
1.532300705E0,-2.506729126E0,9.300276756E0,1.016937137E0,9.685711115E0
1.534293830E0,-2.425326347E0,9.281123161E0,1.208473325E0,9.668601905E0
1.536286955E0,-2.353500366E0,9.290699959E0,1.366490602E0,9.681082908E0
1.538280080E0,-2.161964178E0,9.319430351E0,1.529296279E0,9.688375420E0
1.540273205E0,-2.032677174E0,9.290699959E0,1.644816518E0,9.651647714E0
1.542266330E0,-2.118868589E0,9.309853554E0,1.788468719E0,9.713989790E0
1.544259455E0,-2.085349798E0,9.324218750E0,1.965639591E0,9.754664427E0
1.546252632E0,-2.094926596E0,9.329007149E0,2.166752577E0,9.803770119E0
1.548245861E0,-2.147598982E0,9.314641953E0,2.296039343E0,9.830896844E0
1.550239142E0,-2.070984364E0,9.285911560E0,2.463633537E0,9.827849202E0
1.552232476E0,-1.989581585E0,9.251793861E0,2.612074137E0,9.817181664E0
1.554225809E0,-1.984793186E0,9.223063469E0,2.789843559E0,9.838065401E0
1.556219142E0,-1.999158382E0,9.175179482E0,2.938283920E0,9.839413862E0
1.558212528E0,-1.932120800E0,9.117718697E0,3.139396906E0,9.834719007E0
1.560205965E0,-1.936909199E0,9.084199905E0,3.321356297E0,9.864365809E0
1.562199403E0,-1.956062794E0,9.002797127E0,3.517680883E0,9.861572722E0
1.564192840E0,-2.037465572E0,8.978855133E0,3.752312660E0,9.942381795E0
1.566186278E0,-2.114080191E0,8.964489937E0,3.910928488E0,1.000633682E1
1.568179715E0,-2.123656988E0,8.916605949E0,4.059369087E0,1.002468244E1
1.570172996E0,-2.147598982E0,8.878298759E0,4.150348663E0,1.003303365E1
1.572166278E0,-2.257732153E0,8.873510361E0,4.155137062E0,1.005493434E1
1.574159507E0,-2.296039343E0,8.820837975E0,4.159925461E0,1.001917956E1
1.576152736E0,-2.310404539E0,8.710704803E0,4.155137062E0,9.923684362E0
1.578145965E0,-2.353500366E0,8.614935875E0,4.188655853E0,9.864122970E0
1.580139194E0,-2.454056740E0,8.581417084E0,4.164713860E0,9.849261657E0
1.582132423E0,-2.104503393E0,8.557475090E0,4.255693436E0,9.786227111E0
1.584125653E0,-2.185906172E0,8.519167900E0,4.207809448E0,9.749875274E0
1.586118882E0,-2.377442360E0,8.452130318E0,4.097676277E0,9.689256419E0
1.588112111E0,-2.473210335E0,8.394669533E0,3.848080635E0,9.560071679E0
1.590105340E0,-2.549824715E0,8.322843552E0,3.666121244E0,9.445198560E0
1.592098569E0,-2.631227732E0,8.251017570E0,3.455431700E0,9.324304722E0
1.594091798E0,-2.621650934E0,8.260594368E0,3.321356297E0,9.281265031E0
1.596085028E0,-2.607285738E0,8.169614792E0,3.216011524E0,9.158781299E0
1.598078257E0,-2.468421936E0,8.034940720E0,3.024475336E0,8.933131046E0
1.600071486E0,-2.276885748E0,7.910442352E0,2.866457939E0,8.716414861E0
1.602064715E0,-2.090138197E0,7.795520782E0,2.626439333E0,8.487461665E0
1.604057944E0,-2.133233786E0,7.757213593E0,2.521094322E0,8.430952834E0
1.606051173E0,-2.243366957E0,7.690176010E0,2.449268341E0,8.376778484E0
1.608044403E0,-2.343923569E0,7.603984833E0,2.257732153E0,8.271149709E0
1.610037632E0,-2.387019157E0,7.532158375E0,2.157175779E0,8.190523645E0
1.612030861E0,-2.348711967E0,7.493851185E0,2.051830769E0,8.116912159E0
1.614024090E0,-2.363077164E0,7.407660007E0,1.917755604E0,8.008454721E0
1.616017319E0,-2.372653961E0,7.354987621E0,1.869871497E0,7.951210546E0
1.618010548E0,-2.463633537E0,7.283161640E0,1.845929503E0,7.907046820E0
1.620003778E0,-2.597708941E0,7.273584843E0,1.778891921E0,7.925754517E0
1.621997007E0,-2.636016130E0,7.240066051E0,1.754949808E0,7.902340558E0
1.623990236E0,-2.655169725E0,7.192182064E0,1.711854219E0,7.855434678E0
1.625983465E0,-2.726995707E0,7.149086475E0,1.692700624E0,7.836528467E0
1.627976694E0,-2.784456491E0,7.101202011E0,1.586757183E0,7.790896374E0
1.629969923E0,-2.693476915E0,6.985682011E0,1.577180386E0,7.651278914E0
1.631963153E0,-2.731784105E0,6.933009624E0,1.678335428E0,7.638460359E0
1.633956382E0,-2.832340717E0,6.846818447E0,1.683123827E0,7.598288136E0
1.635949611E0,-2.837129116E0,6.798934460E0,1.869871497E0,7.600738834E0
1.637942840E0,-2.827552319E0,6.770204067E0,1.984793186E0,7.600665709E0
1.639936069E0,-2.822763920E0,6.688800812E0,2.123656988E0,7.564256173E0
1.641929298E0,-2.693476915E0,6.607398033E0,2.310404539E0,7.500033053E0
1.643922528E0,-2.444479942E0,6.545148849E0,2.430114746E0,7.397290945E0
1.645915757E0,-2.602497339E0,6.487688065E0,2.372653961E0,7.381908672E0
1.647908986E0,-2.870647907E0,6.444592476E0,2.444479942E0,7.466516844E0
1.649902215E0,-3.077147722E0,6.372766495E0,2.377442360E0,7.465468711E0
1.651895444E0,-3.158550501E0,6.296152115E0,2.391807556E0,7.438999671E0
1.653888673E0,-3.192069530E0,6.195595264E0,2.525882721E0,7.413149944E0
1.655881903E0,-3.268683910E0,6.133346081E0,2.645592928E0,7.436490476E0
1.657875132E0,-3.388393879E0,6.080673695E0,2.698265314E0,7.465684253E0
1.659868361E0,-3.402759075E0,6.023212910E0,2.722207308E0,7.434263629E0
1.661861590E0,-3.321356297E0,5.913079739E0,2.813785553E0,7.342568269E0
1.663854819E0,-3.297414303E0,5.859808445E0,3.034052134E0,7.376704443E0
1.665847944E0,-3.254318714E0,5.778405666E0,3.177704096E0,7.353799403E0
1.667841069E0,-3.311779499E0,5.764040470E0,3.268683910E0,7.407856674E0
1.669834142E0,-3.326144695E0,5.725733280E0,3.297414303E0,7.397310404E0
1.671827215E0,-3.216011524E0,5.677849293E0,3.412335873E0,7.363744891E0
1.673820288E0,-3.120243311E0,5.634753704E0,3.532046080E0,7.345863947E0
1.675813361E0,-3.139396906E0,5.620388508E0,3.675698042E0,7.413186630E0
1.677806434E0,-3.110666513E0,5.553350925E0,3.852869034E0,7.440467220E0
1.679799507E0,-2.986168146E0,5.529408932E0,3.915716887E0,7.404350212E0
1.681792580E0,-2.841917515E0,5.476736546E0,4.040215492E0,7.375261322E0
1.683785653E0,-2.837129116E0,5.443217754E0,4.193444252E0,7.433901791E0
1.685778726E0,-2.822763920E0,5.448006153E0,4.246116638E0,7.461787567E0
1.687771798E0,-2.803610086E0,5.491101742E0,4.260481834E0,7.494273368E0
1.689764923E0,-2.841917515E0,5.495890141E0,4.485537052E0,7.642077351E0
1.691758101E0,-2.784456491E0,5.486313343E0,4.595670223E0,7.679389094E0
1.693751330E0,-2.779668093E0,5.476736546E0,4.724956989E0,7.748962282E0
1.695744611E0,-2.774879694E0,5.567716122E0,4.820724964E0,7.870121302E0
1.697737892E0,-2.774879694E0,5.634753704E0,4.878185749E0,7.952804714E0
1.699731173E0,-2.717418909E0,5.658695698E0,4.983530998E0,8.015034856E0
1.701724455E0,-2.693476915E0,5.720944881E0,5.036801815E0,8.084145023E0
1.703717736E0,-2.698265314E0,5.759252071E0,5.132569790E0,8.172691893E0
1.705711017E0,-2.698265314E0,5.855020046E0,5.146934986E0,8.249414234E0
1.707704298E0,-2.683900118E0,5.922656536E0,5.161300182E0,8.301819069E0
1.709697580E0,-2.683900118E0,5.965752125E0,5.151723385E0,8.326690344E0
1.711690705E0,-2.722207308E0,6.051943302E0,5.146934986E0,8.398057520E0
1.713683726E0,-2.726995707E0,6.104615688E0,5.113416195E0,8.417236094E0
1.715676746E0,-2.736572504E0,6.157288074E0,5.075109005E0,8.435505730E0
1.717669767E0,-2.755726099E0,6.233902454E0,5.007472992E0,8.457561818E0
1.719662788E0,-2.760514498E0,6.262633324E0,4.973954201E0,8.460569533E0
1.721655809E0,-2.717418909E0,6.291363716E0,4.906916618E0,8.428727878E0
1.723648830E0,-2.674323320E0,6.339247704E0,4.796782970E0,8.387323383E0
1.725641851E0,-2.655169725E0,6.377554893E0,4.691438198E0,8.350612256E0
1.727634871E0,-2.602497339E0,6.420650482E0,4.629189014E0,8.332294759E0
1.729627944E0,-2.535459518E0,6.444592476E0,4.610035419E0,8.319480376E0
1.731621069E0,-2.473210335E0,6.502053261E0,4.552574635E0,8.313807898E0
1.733614246E0,-2.372653961E0,6.545148849E0,4.538209438E0,8.310463596E0
1.735607476E0,-2.281674147E0,6.583456039E0,4.495113850E0,8.291801906E0
1.737600757E0,-2.181117773E0,6.636128426E0,4.442441463E0,8.278330833E0
1.739594038E0,-2.070984364E0,6.664858818E0,4.466383457E0,8.286006305E0
1.741587319E0,-1.975216389E0,6.717531204E0,4.437653065E0,8.289720742E0
1.743580601E0,-1.903390408E0,6.741473198E0,4.485537052E0,8.318076615E0
1.745573882E0,-1.836352706E0,6.703166008E0,4.475960255E0,8.266731276E0
1.747567163E0,-1.783081770E0,6.731896400E0,4.432864666E0,8.255186182E0
1.749560444E0,-1.720832467E0,6.707954407E0,4.380191803E0,8.194144064E0
1.751553726E0,-1.644217968E0,6.688800812E0,4.322731018E0,8.132005440E0
1.753547007E0,-1.572391987E0,6.640916824E0,4.332307816E0,8.083506902E0
1.755540184E0,-1.519719481E0,6.616974831E0,4.351461411E0,8.064063468E0
1.757533361E0,-1.495777488E0,6.597821236E0,4.384980202E0,8.062049784E0
1.759526538E0,-1.486200690E0,6.545148849E0,4.471171856E0,8.064684973E0
1.761519715E0,-1.467047095E0,6.516418457E0,4.528632641E0,8.069972136E0
1.763512892E0,-1.419163108E0,6.463746071E0,4.633977413E0,8.078847929E0
1.765506017E0,-1.443105102E0,6.454169273E0,4.724956989E0,8.127980801E0
1.767499142E0,-1.452681899E0,6.425438881E0,4.830301762E0,8.168743148E0
1.769492267E0,-1.457470298E0,6.367978096E0,4.863820553E0,8.144453025E0
1.771485392E0,-1.457470298E0,6.334459305E0,4.959589005E0,8.176008650E0
1.773478517E0,-1.510142684E0,6.382343292E0,5.103839397E0,8.310476125E0
1.775471642E0,-1.524507880E0,6.372766495E0,5.166088581E0,8.344144552E0
1.777464767E0,-1.543661594E0,6.425438881E0,5.127781391E0,8.364406609E0
1.779457892E0,-1.562815189E0,6.420650482E0,5.113416195E0,8.355487365E0
1.781451017E0,-1.615487576E0,6.458957672E0,5.032013416E0,8.345603234E0
1.783444090E0,-1.605910778E0,6.478111267E0,5.055955410E0,8.373025745E0
1.785437163E0,-1.567603588E0,6.506841660E0,4.993107796E0,8.350299088E0
1.787430236E0,-1.558026791E0,6.535572052E0,4.997896194E0,8.373775486E0
1.789423205E0,-1.538873196E0,6.597821236E0,4.988319397E0,8.413245876E0
1.791416173E0,-1.505354285E0,6.655282021E0,4.964377403E0,8.438241126E0
1.793409142E0,-1.471835494E0,6.693589211E0,4.983530998E0,8.473843133E0
1.795402111E0,-1.452681899E0,6.736684799E0,5.007472992E0,8.518684907E0
1.797395080E0,-1.428739905E0,6.832453251E0,4.964377403E0,8.565556499E0
1.799388048E0,-1.447893500E0,6.947374821E0,4.959589005E0,8.657940609E0
1.801381017E0,-1.385644197E0,6.995258808E0,5.012859821E0,8.716789502E0
1.803373986E0,-1.404797792E0,7.134721279E0,5.089474201E0,8.875835297E0
1.805366955E0,-1.447893500E0,7.283161640E0,5.151723385E0,9.037759285E0
1.807359819E0,-1.400009394E0,7.378929615E0,5.190030575E0,9.129350795E0
1.809352580E0,-1.395220995E0,7.517793179E0,5.252279758E0,9.276330016E0
1.811345288E0,-1.443105102E0,7.656657219E0,5.257068157E0,9.399133881E0
1.813337996E0,-1.510142684E0,7.838616371E0,5.223549366E0,9.539911190E0
1.815330705E0,-1.471835494E0,7.967903137E0,5.257068157E0,9.658703108E0
1.817323413E0,-1.495777488E0,8.121131897E0,5.271433830E0,9.796843788E0
1.819316121E0,-1.553238392E0,8.332420349E0,5.357625008E0,1.002725905E1
1.821308830E0,-1.577180386E0,8.485649109E0,5.448604584E0,1.020691093E1
1.823301538E0,-1.629852772E0,8.681973457E0,5.568314552E0,1.044218416E1
1.825294246E0,-1.644217968E0,8.839991570E0,5.688024521E0,1.063966760E1
1.827286955E0,-1.586757183E0,8.964489937E0,5.826888561E0,1.080890876E1
1.829279663E0,-1.605910778E0,9.146449089E0,5.927444935E0,1.101685453E1
1.831272371E0,-1.581968784E0,9.295488358E0,6.114192486E0,1.123797485E1
1.833265080E0,-1.649006367E0,9.448717117E0,6.229712963E0,1.143708008E1
1.835257788E0,-1.625064373E0,9.616311073E0,6.382941723E0,1.165573755E1
1.837250496E0,-1.687313676E0,9.783905029E0,6.473921299E0,1.185257280E1
1.839243205E0,-1.677736878E0,9.874884605E0,6.636727333E0,1.201558557E1
1.841235913E0,-1.759139657E0,1.005205631E1,6.718130112E0,1.221767902E1
1.843228673E0,-1.841141105E0,1.021965027E1,6.794744492E0,1.240965773E1
1.845221486E0,-1.912967205E0,1.033457184E1,6.847416878E0,1.254392030E1
1.847214351E0,-2.066195965E0,1.049797630E1,6.909666061E0,1.273656772E1
1.849207267E0,-2.128445387E0,1.057459068E1,6.924031258E0,1.281773992E1
1.851200236E0,-2.190694571E0,1.067993546E1,7.000645638E0,1.295643482E1
1.853193257E0,-2.257732153E0,1.079006863E1,6.981492043E0,1.304853120E1
1.855186330E0,-2.363077164E0,1.090499020E1,6.981492043E0,1.316222534E1
1.857179403E0,-2.463633537E0,1.095766258E1,6.957550049E0,1.321163738E1
1.859172476E0,-2.559401512E0,1.101512337E1,6.914454460E0,1.325492963E1
1.861165548E0,-2.631227732E0,1.102948856E1,6.847416878E0,1.324613511E1
1.863158621E0,-2.688688517E0,1.099118137E1,6.780379295E0,1.319123411E1
1.865151694E0,-2.712630510E0,1.095766258E1,6.708553314E0,1.313139068E1
1.867144767E0,-2.798821688E0,1.090977859E1,6.646304131E0,1.307784502E1
1.869137684E0,-2.861071110E0,1.081401062E1,6.603208065E0,1.298964627E1
1.871130444E0,-2.938283920E0,1.071824265E1,6.584054470E0,1.291758534E1
1.873123205E0,-2.990956545E0,1.057937908E1,6.603208065E0,1.282464189E1
1.875115965E0,-3.005321741E0,1.044530392E1,6.603208065E0,1.271765267E1
1.877108726E0,-3.043628931E0,1.032978344E1,6.617573261E0,1.263963523E1
1.879101486E0,-3.067570925E0,1.019570827E1,6.684611320E0,1.257165411E1
1.881094246E0,-3.062782526E0,1.009036350E1,6.718130112E0,1.250317338E1
1.883087007E0,-3.072359324E0,9.994594574E0,6.770802498E0,1.245692895E1
1.885079767E0,-3.062782526E0,9.922768593E0,6.866570473E0,1.244956880E1
1.887072528E0,-3.043628931E0,9.898826599E0,6.919242859E0,1.245497358E1
1.889065288E0,-3.048417330E0,9.917980194E0,6.971915245E0,1.250067124E1
1.891058048E0,-3.029263735E0,9.908403397E0,7.086836815E0,1.255293403E1
1.893050809E0,-2.971802950E0,9.961075783E0,7.153874874E0,1.261873881E1
1.895043569E0,-2.918531895E0,1.005205631E1,7.225700855E0,1.271897863E1
1.897036330E0,-2.894589901E0,1.014303589E1,7.278971672E0,1.281574252E1
1.899029142E0,-2.894589901E0,1.024838066E1,7.302913666E0,1.291280391E1
1.901022007E0,-2.865859509E0,1.036809063E1,7.350797653E0,1.302861006E1
1.903014923E0,-2.899378300E0,1.050755310E1,7.389104843E0,1.316867256E1
1.905007840E0,-3.014898539E0,1.064162827E1,7.417835236E0,1.331758780E1
1.907000757E0,-3.148973703E0,1.077570343E1,7.432200432E0,1.346363335E1
1.908993673E0,-3.354875088E0,1.088104820E1,7.417835236E0,1.358957970E1
1.910986590E0,-3.594295263E0,1.095287418E1,7.374739647E0,1.368470665E1
1.912979507E0,-3.886387825E0,1.104385376E1,7.244854450E0,1.376802935E1
1.914972476E0,-4.188655853E0,1.107737255E1,7.091625214E0,1.380377371E1
1.916965444E0,-4.490325451E0,1.108694935E1,6.833051682E0,1.377585075E1
1.918958413E0,-4.782417774E0,1.110131454E1,6.584054470E0,1.376446431E1
1.920951434E0,-5.060145378E0,1.108216095E1,6.287173748E0,1.370940977E1
1.922944455E0,-5.309741020E0,1.105343056E1,5.956175327E0,1.363259701E1
1.924937476E0,-5.520430565E0,1.102470016E1,5.640140533E0,1.355840524E1
1.926930496E0,-5.664082527E0,1.101512337E1,5.324106216E0,1.348187230E1
1.928923517E0,-5.755062103E0,1.102470016E1,4.954800606E0,1.338711330E1
1.930916538E0,-5.812523365E0,1.101991177E1,4.590881824E0,1.327780400E1
1.932909559E0,-5.850830555E0,1.106779575E1,4.188655853E0,1.320125596E1
1.934902580E0,-5.826888561E0,1.112046814E1,3.819350243E0,1.312268563E1
1.936895601E0,-5.745485306E0,1.121144772E1,3.460220098E0,1.306446648E1
1.938888621E0,-5.731120110E0,1.126412010E1,3.115454912E0,1.301661241E1
1.940881642E0,-5.654505730E0,1.133115768E1,2.818573952E0,1.297354726E1
1.942874663E0,-5.563526154E0,1.142213821E1,2.602497339E0,1.296884949E1
1.944867684E0,-5.491700172E0,1.150832939E1,2.406172752E0,1.297652047E1
1.946860705E0,-5.472546577E0,1.164300251E1,2.181117773E0,1.304858415E1
1.948853726E0,-5.477334976E0,1.179144382E1,2.032677174E0,1.315944993E1
1.950846642E0,-5.520430565E0,1.196382618E1,1.912967205E0,1.331419295E1
1.952839559E0,-5.496488571E0,1.211226654E1,1.879448295E0,1.343319445E1
1.954832371E0,-5.501276970E0,1.230380249E1,1.893813491E0,1.361007471E1
1.956825028E0,-5.467758179E0,1.247139645E1,1.903390408E0,1.374972741E1
1.958817684E0,-5.448604584E0,1.260547161E1,1.932120800E0,1.386788727E1
1.960810340E0,-5.439027786E0,1.273535728E1,2.003946781E0,1.399243192E1
1.962802996E0,-5.434239388E0,1.286464405E1,2.047042370E0,1.411454593E1
1.964795653E0,-5.453392982E0,1.298435402E1,2.094926596E0,1.423803574E1
1.966788309E0,-5.534795761E0,1.303702641E1,2.042253971E0,1.430974573E1
1.968781017E0,-5.568314552E0,1.299393082E1,1.994369984E0,1.427676002E1
1.970773778E0,-5.544372559E0,1.304660320E1,1.965639591E0,1.431145210E1
1.972766590E0,-5.683236122E0,1.298914242E1,1.826775908E0,1.429524759E1
1.974759455E0,-5.635352135E0,1.298435402E1,1.841141105E0,1.427376767E1
1.976752371E0,-5.802946568E0,1.308012199E1,1.932120800E0,1.443942073E1
1.978745340E0,-6.018424511E0,1.323814011E1,1.951274395E0,1.467232970E1
1.980738361E0,-6.224325657E0,1.339136887E1,1.912967205E0,1.489061562E1
1.982731434E0,-6.368576527E0,1.351107883E1,1.941697598E0,1.506247682E1
1.984724507E0,-6.502651691E0,1.358769321E1,1.960851192E0,1.519061629E1
1.986717580E0,-6.617573261E0,1.368824959E1,1.941697598E0,1.532744735E1
1.988710653E0,-6.694188118E0,1.375588608E1,1.912967205E0,1.541739277E1
1.990703726E0,-6.670246124E0,1.392826843E1,1.941697598E0,1.556467264E1
1.992696798E0,-6.852205276E0,1.390911484E1,1.932120800E0,1.562527707E1
1.994689871E0,-7.072471619E0,1.394742203E1,1.927332401E0,1.575642873E1
1.996682788E0,-7.134721279E0,1.391869164E1,1.994369984E0,1.576742643E1
1.998675653E0,-7.115567684E0,1.383728886E1,2.138022184E0,1.570582711E1
2.000668517E0,-7.015010834E0,1.373613358E1,2.224213362E0,1.558328809E1
2.002661382E0,-6.722918510E0,1.347756004E1,2.339135170E0,1.524184409E1
2.004654246E0,-6.272210121E0,1.302744961E1,2.468421936E0,1.466792998E1
2.006647111E0,-5.721543312E0,1.237562847E1,2.559401512E0,1.387237449E1
2.008639976E0,-5.185242176E0,1.165736771E1,2.669534922E0,1.303485232E1
2.010632840E0,-4.614823818E0,1.092893219E1,2.746149302E0,1.217700676E1
2.012625705E0,-4.102464676E0,1.023880386E1,2.789843559E0,1.137745789E1
2.014618569E0,-3.661332846E0,9.611522675E0,2.804208755E0,1.066069008E1
2.016611382E0,-3.263895512E0,9.045892715E0,2.828150749E0,1.002395259E1
2.018604194E0,-2.865859509E0,8.533533096E0,2.828150749E0,9.435718017E0
2.020597007E0,-2.535459518E0,8.063671112E0,2.808997154E0,8.907402078E0
2.022589819E0,-2.243366957E0,7.656657219E0,2.707842112E0,8.425526925E0
2.024582632E0,-1.980004787E0,7.254431248E0,2.597708941E0,7.955833295E0
2.026575444E0,-1.725620866E0,6.865972042E0,2.382230759E0,7.469562426E0
2.028568257E0,-1.500565886E0,6.516418457E0,2.142810583E0,7.021897513E0
2.030561069E0,-1.318606615E0,6.181230068E0,1.884236693E0,6.595201019E0
2.032553882E0,-1.194108129E0,5.864596844E0,1.577180386E0,6.189255879E0
2.034546694E0,-1.107916832E0,5.572504520E0,1.246780515E0,5.816764392E0
2.036539507E0,-1.021725535E0,5.266046524E0,8.876502514E-1,5.437195236E0
2.038532319E0,-9.594763517E-1,4.993107796E0,4.944026470E-1,5.108439518E0
2.040525132E0,-8.828618526E-1,4.724358559E0,1.256955862E-1,4.807786208E0
2.042517944E0,-8.780734539E-1,4.494514942E0,-2.621650994E-1,4.586982461E0
2.044510757E0,-9.642647505E-1,4.250306606E0,-6.362590790E-1,4.404513409E0
2.046503569E0,-1.112705231E0,4.044404984E0,-9.522937536E-1,4.301416975E0
2.048496382E0,-1.246780515E0,3.843292236E0,-1.282693505E0,4.239181465E0
2.050489194E0,-1.361702204E0,3.661332846E0,-1.589151382E0,4.217225772E0
2.052482007E0,-1.495777488E0,3.473986626E0,-1.867477298E0,4.218222946E0
2.054474819E0,-1.591545582E0,3.296815634E0,-2.130839586E0,4.235857411E0
2.056467684E0,-1.720832467E0,3.248931646E0,-2.379836559E0,4.379548295E0
2.058460601E0,-1.811812162E0,3.196259260E0,-2.662352324E0,4.537274123E0
2.060453569E0,-1.855506301E0,3.172317266E0,-2.902370930E0,4.682975281E0
2.062446590E0,-1.874659896E0,3.134010077E0,-3.151367903E0,4.823638517E0
2.064439663E0,-1.903390408E0,3.162740469E0,-3.366846085E0,4.996146002E0
2.066432736E0,-1.951274395E0,3.239354849E0,-3.591901064E0,5.215615482E0
2.068425809E0,-1.941697598E0,3.363853455E0,-3.769072056E0,5.412171818E0
2.070418882E0,-1.903390408E0,3.493140221E0,-3.879205227E0,5.556361835E0
2.072411955E0,-1.845929503E0,3.636792421E0,-3.980360270E0,5.698858019E0
2.074405028E0,-1.749562860E0,3.795408249E0,-4.061763287E0,5.827865387E0
2.076398101E0,-1.610699177E0,3.943848848E0,-4.052186489E0,5.879499206E0
2.078391173E0,-1.514931083E0,4.168903828E0,-4.028244495E0,5.991788466E0
2.080384246E0,-1.371279001E0,4.441842556E0,-4.009090900E0,6.138662822E0
2.082377319E0,-1.232415318E0,4.714781761E0,-3.903147221E0,6.243602550E0
2.084370392E0,-1.170166135E0,4.993107796E0,-3.745130062E0,6.350308136E0
2.086363465E0,-1.151012421E0,5.270834923E0,-3.577535868E0,6.473429791E0
2.088356538E0,-1.093551636E0,5.572504520E0,-3.414730072E0,6.626389913E0
2.090349611E0,-1.165377736E0,5.946598530E0,-3.208828926E0,6.856874100E0
2.092342632E0,-1.241992116E0,6.296152115E0,-3.017292738E0,7.091412506E0
2.094335653E0,-1.400009394E0,6.660070419E0,-2.844311714E0,7.376087948E0
2.096328673E0,-1.610699177E0,7.072471619E0,-2.638410330E0,7.718511236E0
2.098321642E0,-1.792658567E0,7.484274387E0,-2.552218914E0,8.108132290E0
2.100314559E0,-1.984793186E0,7.795520782E0,-2.322375536E0,8.372752020E0
2.102307319E0,-2.286462545E0,8.125920296E0,-2.106897593E0,8.700431546E0
2.104300080E0,-2.463633537E0,8.452130318E0,-1.939303398E0,9.014926222E0
2.106292840E0,-2.650381327E0,8.844779968E0,-1.766920805E0,9.400886288E0
2.108285601E0,-2.870647907E0,9.242217064E0,-1.550844193E0,9.801240400E0
2.110278361E0,-3.091512918E0,9.673771858E0,-1.388038397E0,1.025016901E1
2.112271121E0,-3.235165119E0,1.007120991E1,-1.148618221E0,1.064024841E1
2.114263882E0,-3.359663486E0,1.049797630E1,-8.948329091E-1,1.105873280E1
2.116256642E0,-3.503315687E0,1.098160458E1,-6.021417379E-1,1.154259219E1
2.118249403E0,-3.603872061E0,1.141256142E1,-2.956839204E-1,1.197171169E1
2.120242215E0,-3.828927040E0,1.195424938E1,-2.274491638E-2,1.255250086E1
2.122235080E0,-4.020462990E0,1.248097324E1,3.268085420E-1,1.311661616E1
2.124227996E0,-4.212597847E0,1.297477722E1,6.099228859E-1,1.365513934E1
2.126220965E0,-4.423287868E0,1.346798325E1,8.684966564E-1,1.420233554E1
2.128213986E0,-4.667496204E0,1.395221043E1,1.088763237E0,1.475246088E1
2.130207007E0,-4.830301762E0,1.433049393E1,1.385644197E0,1.518600939E1
2.132200028E0,-4.983530998E0,1.463216400E1,1.639429569E0,1.554424440E1
2.134193048E0,-5.127182961E0,1.488654804E1,1.869871497E0,1.585540088E1
2.136186069E0,-5.194818974E0,1.496316242E1,2.104503393E0,1.597846389E1
2.138179090E0,-5.209184170E0,1.494879723E1,2.296039343E0,1.599605998E1
2.140172111E0,-5.108029366E0,1.478060436E1,2.454056740E0,1.582973859E1
2.142165132E0,-5.007472992E0,1.453639603E1,2.559401512E0,1.558628023E1
2.144158153E0,-4.739322186E0,1.422514915E1,2.679111719E0,1.523133884E1
2.146151173E0,-4.394556999E0,1.380855846E1,2.785055161E0,1.475618346E1
2.148144194E0,-3.953425646E0,1.335785007E1,2.895188332E0,1.422827637E1
2.150137111E0,-3.441066504E0,1.289816284E1,3.115454912E0,1.370801235E1
2.152130028E0,-2.952649355E0,1.239478207E1,3.283049107E0,1.315777991E1
2.154122840E0,-2.554613113E0,1.193509579E1,3.316567898E0,1.264801100E1
2.156115653E0,-2.161964178E0,1.147481060E1,3.354875088E0,1.214909685E1
2.158108465E0,-1.970427990E0,1.100554657E1,3.263895512E0,1.164721665E1
2.160101278E0,-1.725620866E0,1.060332108E1,3.216011524E0,1.121387156E1
2.162094090E0,-1.390432596E0,1.027232265E1,3.129820108E0,1.082818957E1
2.164086903E0,-1.103128433E0,9.951498985E0,3.029263735E0,1.046067221E1
2.166079715E0,-8.780734539E-1,9.678560257E0,2.885611534E0,1.013766717E1
2.168072528E0,-6.667851806E-1,9.396044731E0,2.707842112E0,9.801156461E0
2.170065340E0,-5.039794445E-1,9.141660690E0,2.511517525E0,9.493770365E0
2.172058153E0,-3.986345828E-1,8.940547943E0,2.262520552E0,9.230997037E0
2.174050965E0,-3.603273630E-1,8.763377190E0,1.960851192E0,8.987299537E0
2.176043778E0,-4.177882075E-1,8.576628685E0,1.634641171E0,8.741004424E0
2.178036590E0,-4.752490520E-1,8.442553520E0,1.318606615E0,8.558112818E0
2.180029403E0,-5.949591398E-1,8.303689957E0,9.929951429E-1,8.383989661E0
2.182022215E0,-7.056909800E-1,8.198345184E0,6.147112846E-1,8.251589755E0
2.184015028E0,-8.158242106E-1,8.068459511E0,2.980781198E-1,8.115076006E0
2.186007840E0,-9.834183455E-1,7.987056732E0,-4.189852998E-2,8.047480498E0
2.188000653E0,-1.117493629E0,7.881711960E0,-3.818751574E-1,7.969692846E0
2.189993465E0,-1.232415318E0,7.795520782E0,-6.937199235E-1,7.922767138E0
2.191986278E0,-1.323395014E0,7.723694801E0,-1.019331336E0,7.902270061E0
2.193979090E0,-1.428739905E0,7.651868820E0,-1.316212416E0,7.894606341E0
2.195971903E0,-1.476623893E0,7.599195957E0,-1.555632591E0,7.896087010E0
2.197964715E0,-1.538873196E0,7.546523571E0,-1.771709204E0,7.902980591E0
2.199957580E0,-1.581968784E0,7.532158375E0,-1.987187386E0,7.948896069E0
2.201950496E0,-1.605910778E0,7.493851185E0,-2.173935175E0,7.966351056E0
2.203943465E0,-1.625064373E0,7.493851185E0,-2.355894566E0,8.021775302E0
2.205936486E0,-1.620275974E0,7.493851185E0,-2.547430515E0,8.079139932E0
2.207929559E0,-1.543661594E0,7.513004780E0,-2.710236311E0,8.134710370E0
2.209922632E0,-1.481412292E0,7.498639584E0,-2.878428936E0,8.167590289E0
2.211915705E0,-1.409586191E0,7.536946774E0,-3.012504339E0,8.238184405E0
2.213908778E0,-1.313818216E0,7.565677166E0,-3.113060713E0,8.285936054E0
2.215901851E0,-1.208473325E0,7.603984833E0,-3.208828926E0,8.341317413E0
2.217894923E0,-1.131858826E0,7.685387611E0,-3.275866508E0,8.430752548E0
2.219887996E0,-1.021725535E0,7.718906403E0,-3.290231705E0,8.452873109E0
2.221881017E0,-8.637082577E-1,7.762001991E0,-3.295020103E0,8.476545543E0
2.223873621E0,-7.392097712E-1,7.805097580E0,-3.285443306E0,8.500595099E0
2.225866226E0,-6.332663298E-1,7.867346764E0,-3.261501312E0,8.540114879E0
2.227858830E0,-5.231330991E-1,7.924807549E0,-3.218405724E0,8.569386111E0
2.229851434E0,-3.794809580E-1,7.977479935E0,-3.156156301E0,8.587520859E0
2.231844038E0,-3.124433160E-1,8.049305916E0,-3.074753523E0,8.622241923E0
2.233836694E0,-2.310404629E-1,8.111555099E0,-2.969408751E0,8.641070197E0
2.235829403E0,-1.975216419E-1,8.188768387E0,-2.859275341E0,8.675851426E0
2.237822163E0,-1.879448295E-1,8.298901558E0,-2.738966703E0,8.741225825E0
2.239814976E0,-2.070984542E-1,8.370727539E0,-2.638410330E0,8.779133122E0
2.241807840E0,-1.783680320E-1,8.461707115E0,-2.513911724E0,8.829046076E0
2.243800757E0,-1.927332431E-1,8.538321495E0,-2.394201756E0,8.869739686E0
2.245793726E0,-1.687912196E-1,8.619724274E0,-2.245761156E0,8.909072915E0
2.247786746E0,-1.975216419E-1,8.710704803E0,-2.078166962E0,8.957352895E0
2.249779767E0,-2.358288616E-1,8.792107582E0,-1.905784607E0,8.999376976E0
2.251772788E0,-2.693476975E-1,8.873510361E0,-1.723226666E0,9.043298317E0
2.253765809E0,-2.789244950E-1,8.969278336E0,-1.536478996E0,9.104203449E0
2.255758830E0,-3.411737382E-1,9.050681114E0,-1.364096403E0,9.159256910E0
2.257751851E0,-3.603273630E-1,9.132083893E0,-1.201290727E0,9.217802962E0
2.259744871E0,-4.177882075E-1,9.232640266E0,-1.043273449E0,9.300785599E0
2.261737684E0,-4.944026470E-1,9.314641953E0,-8.852560520E-1,9.369667388E0
2.263730496E0,-6.045359373E-1,9.405621529E0,-7.032967210E-1,9.451233058E0
2.265723309E0,-7.152677774E-1,9.482235909E0,-5.255272985E-1,9.523685461E0
2.267716121E0,-8.254010081E-1,9.587580681E0,-2.908954918E-1,9.627440487E0
2.269708934E0,-8.924387097E-1,9.659406662E0,-5.147533491E-2,9.700682121E0
2.271701746E0,-9.882067442E-1,9.745597839E0,1.735796183E-1,9.797109763E0
2.273694559E0,-1.064821243E0,9.807847023E0,3.842693865E-1,9.872961585E0
2.275687371E0,-1.136647224E0,9.874884605E0,5.859808922E-1,9.957343345E0
2.277680184E0,-1.184531331E0,9.889249802E0,7.823054194E-1,9.990614490E0
2.279672996E0,-1.285087705E0,9.932345390E0,9.211691022E-1,1.005740960E1
2.281665809E0,-1.332971811E0,9.965864182E0,1.103128433E0,1.011494711E1
2.283658621E0,-1.356913805E0,9.961075783E0,1.280299306E0,1.013426920E1
2.285651434E0,-1.423951507E0,9.975440979E0,1.467047095E0,1.018279371E1
2.287644246E0,-1.452681899E0,9.927556992E0,1.591545582E0,1.015872481E1
2.289637059E0,-1.443105102E0,9.908403397E0,1.745373011E0,1.016392331E1
2.291629871E0,-1.438316703E0,9.865307808E0,1.869871497E0,1.014344480E1
2.293622684E0,-1.462258697E0,9.855731010E0,1.970427990E0,1.015658509E1
2.295615496E0,-1.452681899E0,9.807847023E0,2.104503393E0,1.013573295E1
2.297608309E0,-1.457470298E0,9.750386238E0,2.195482969E0,1.010021767E1
2.299601121E0,-1.476623893E0,9.712079048E0,2.252943754E0,1.007872279E1
2.301593934E0,-1.467047095E0,9.640253067E0,2.315192938E0,1.002231633E1
2.303586746E0,-1.519719481E0,9.568427086E0,2.420537949E0,9.986157828E0
2.305579559E0,-1.534084797E0,9.525331497E0,2.468421936E0,9.958838444E0
2.307572371E0,-1.558026791E0,9.439140320E0,2.554613113E0,9.902063705E0
2.309565184E0,-1.558026791E0,9.400833130E0,2.602497339E0,9.878061724E0
2.311557996E0,-1.577180386E0,9.319430351E0,2.631227732E0,9.811352578E0
2.313550809E0,-1.615487576E0,9.266757965E0,2.655169725E0,9.774074358E0
2.315543621E0,-1.658583283E0,9.223063469E0,2.655169725E0,9.739903723E0
2.317536434E0,-1.720832467E0,9.184756279E0,2.636016130E0,9.709252975E0
2.319529246E0,-1.773504853E0,9.132083893E0,2.664746523E0,9.676835729E0
2.321522059E0,-1.831564307E0,9.069834709E0,2.631227732E0,9.619765529E0
2.323514871E0,-1.874659896E0,9.045892715E0,2.602497339E0,9.597682905E0
2.325507684E0,-1.860294700E0,8.974066734E0,2.559401512E0,9.515519230E0
2.327500496E0,-1.841141105E0,8.921394348E0,2.501940727E0,9.446734096E0
2.329493309E0,-1.841141105E0,8.868721962E0,2.444479942E0,9.381871455E0
2.331486121E0,-1.817199111E0,8.801684380E0,2.348711967E0,9.289150038E0
2.333478934E0,-1.763928056E0,8.696338654E0,2.248155355E0,9.153794332E0
2.335471746E0,-1.749562860E0,8.629301071E0,2.157175779E0,9.065275204E0
2.337464611E0,-1.768716455E0,8.562263489E0,2.061407566E0,8.982767675E0
2.339457528E0,-1.802235365E0,8.514379501E0,1.932120800E0,8.914920156E0
2.341450496E0,-1.836352706E0,8.437765121E0,1.778891921E0,8.816605241E0
2.343443517E0,-1.817199111E0,8.394669533E0,1.615487576E0,8.739707620E0
2.345436538E0,-1.811812162E0,8.327631950E0,1.462258697E0,8.646983156E0
2.347429559E0,-1.821987510E0,8.270171165E0,1.313818216E0,8.569800925E0
2.349422580E0,-1.850717902E0,8.236652374E0,1.165377736E0,8.522071600E0
2.351415601E0,-1.850717902E0,8.174403191E0,1.002571940E0,8.441041095E0
2.353408621E0,-1.869871497E0,8.130708694E0,8.493430614E-1,8.386073391E0
2.355401642E0,-1.831564307E0,8.054094315E0,6.961141229E-1,8.289007052E0
2.357394663E0,-1.817199111E0,7.977479935E0,5.620388389E-1,8.201114947E0
2.359387684E0,-1.802235365E0,7.929595947E0,4.560954273E-1,8.144603565E0
2.361380705E0,-1.783081770E0,7.891288757E0,3.220201433E-1,8.096636081E0
2.363373726E0,-1.744774461E0,7.838616371E0,2.070984542E-1,8.033121081E0
2.365366746E0,-1.701678872E0,7.785943985E0,1.065419763E-1,7.970444524E0
2.367359767E0,-1.692102075E0,7.728483200E0,5.985504016E-3,7.911554704E0
2.369352788E0,-1.763928056E0,7.685387611E0,-7.062894851E-2,7.885531902E0
2.371345809E0,-1.783081770E0,7.661445618E0,-1.472434103E-1,7.867579690E0
2.373338830E0,-1.778293371E0,7.656657219E0,-2.382230759E-1,7.864062393E0
2.375331694E0,-1.787870169E0,7.618350029E0,-3.100491166E-1,7.831466488E0
2.377324455E0,-1.768716455E0,7.623138428E0,-3.627215624E-1,7.834038825E0
2.379317215E0,-1.725620866E0,7.647080421E0,-4.345476031E-1,7.851397198E0
2.381309976E0,-1.749562860E0,7.656657219E0,-4.824316502E-1,7.868806152E0
2.383302736E0,-1.744774461E0,7.651868820E0,-5.446808934E-1,7.867147618E0
2.385295496E0,-1.720832467E0,7.675810814E0,-5.829881430E-1,7.887915517E0
2.387288257E0,-1.677736878E0,7.704541206E0,-6.218938828E-1,7.909583316E0
2.389281017E0,-1.577180386E0,7.718906403E0,-6.793547273E-1,7.907625236E0
2.391273778E0,-1.505354285E0,7.752425194E0,-7.176619768E-1,7.929768384E0
2.393266538E0,-1.414374709E0,7.805097580E0,-7.846996188E-1,7.970932037E0
2.395259298E0,-1.356913805E0,7.838616371E0,-8.134300113E-1,7.996673688E0
2.397252059E0,-1.265934110E0,7.934384346E0,-8.277952671E-1,8.077269905E0
2.399244819E0,-1.218050122E0,7.972691536E0,-8.469488621E-1,8.109548619E0
2.401237580E0,-1.203684926E0,8.063671112E0,-8.661024570E-1,8.198889112E0
2.403230340E0,-1.127070427E0,8.116343498E0,-8.613140583E-1,8.239367781E0
2.405223101E0,-1.060032845E0,8.169614792E0,-8.804676533E-1,8.285016522E0
2.407215861E0,-9.642647505E-1,8.260594368E0,-8.565256596E-1,8.360673539E0
2.409208621E0,-9.163807034E-1,8.313266754E0,-8.373720646E-1,8.405435723E0
2.411201382E0,-8.828618526E-1,8.399457932E0,-8.421604633E-1,8.487612906E0
2.413194142E0,-8.493430614E-1,8.485649109E0,-8.230068088E-1,8.567669732E0
2.415186903E0,-8.062474132E-1,8.590993881E0,-7.942764163E-1,8.665222778E0
2.417179663E0,-7.823054194E-1,8.686761856E0,-7.368155718E-1,8.752984091E0
2.419172423E0,-7.296329737E-1,8.772953987E0,-6.554127336E-1,8.827607365E0
2.421165184E0,-6.619967818E-1,8.883087158E0,-5.829881430E-1,8.926777267E0
2.423157944E0,-6.284779310E-1,8.969278336E0,-5.015852451E-1,9.005249920E0
2.425150705E0,-5.901707411E-1,9.098565102E0,-4.106055796E-1,9.126926391E0
2.427143465E0,-5.279214978E-1,9.179967880E0,-3.292027414E-1,9.201026347E0
2.429136226E0,-5.039794445E-1,9.314641953E0,-2.238578647E-1,9.330951845E0
2.431128986E0,-4.560954273E-1,9.443928719E0,-1.472434103E-1,9.456082344E0
2.433121798E0,-4.608838260E-1,9.568427086E0,-9.457096457E-2,9.579987185E0
2.435114611E0,-4.225766063E-1,9.692925453E0,-3.711012751E-2,9.702203461E0
2.437107423E0,-4.129997790E-1,9.812635422E0,6.823474914E-2,9.821559892E0
2.439100236E0,-4.225766063E-1,9.941922188E0,1.735796183E-1,9.952412655E0
2.441093048E0,-3.746925592E-1,1.002332497E1,2.310404629E-1,1.003298647E1
2.443085861E0,-3.315969408E-1,1.010472870E1,3.028665185E-1,1.011470349E1
2.445078673E0,-3.268085420E-1,1.018613148E1,3.938461840E-1,1.019898000E1
2.447071486E0,-3.794809580E-1,1.027232265E1,4.465186298E-1,1.028902315E1
2.449064298E0,-4.656722248E-1,1.030105305E1,5.333084464E-1,1.032535532E1
2.451057111E0,-5.614402890E-1,1.038245583E1,6.147112846E-1,1.041578005E1
2.453049923E0,-6.284779310E-1,1.040220737E1,6.673837304E-1,1.044252382E1
2.455042736E0,-6.763619781E-1,1.043093872E1,7.344213724E-1,1.047861264E1
2.457035548E0,-7.727286220E-1,1.041178417E1,8.637082577E-1,1.047608472E1
2.459028361E0,-9.211691022E-1,1.040699577E1,9.786299467E-1,1.049341842E1
2.461021173E0,-1.031302333E0,1.038784218E1,1.079186440E0,1.049454587E1
2.463013986E0,-1.146224022E0,1.038784218E1,1.141435623E0,1.051303809E1
2.465006798E0,-1.203684926E0,1.039741898E1,1.198896527E0,1.053529931E1
2.466999611E0,-1.275510907E0,1.038245583E1,1.304241419E0,1.054150666E1
2.468992423E0,-1.366490602E0,1.035851383E1,1.366490602E0,1.053723882E1
2.470985236E0,-1.443105102E0,1.036809063E1,1.467047095E0,1.057033977E1
2.472978048E0,-1.577180386E0,1.041178417E1,1.519719481E0,1.063965671E1
2.474970861E0,-1.735197663E0,1.043572712E1,1.543661594E0,1.069103375E1
2.476963673E0,-1.836352706E0,1.046445751E1,1.596333981E0,1.074361878E1
2.478956486E0,-1.932120800E0,1.048361111E1,1.663970232E0,1.078925343E1
2.480949246E0,-2.051830769E0,1.053628349E1,1.731007814E0,1.087288680E1
2.482942007E0,-2.229001760E0,1.059374428E1,1.759738207E0,1.096779582E1
2.484934663E0,-2.305616140E0,1.063205147E1,1.802833915E0,1.102753800E1
2.486927319E0,-2.396595955E0,1.063205147E1,1.855506301E0,1.105563631E1
2.488919976E0,-2.511517525E0,1.067035866E1,1.898601890E0,1.112515003E1
2.490912632E0,-2.602497339E0,1.068951225E1,1.917755604E0,1.116765200E1
2.492905288E0,-2.664746523E0,1.076612663E1,1.898601890E0,1.125233513E1
2.494897944E0,-2.693476915E0,1.081401062E1,1.889025092E0,1.130336496E1
2.496890601E0,-2.731784105E0,1.087625980E1,1.865083098E0,1.136812239E1
2.498883257E0,-2.760514498E0,1.095766258E1,1.802833915E0,1.144294629E1
2.500875913E0,-2.717418909E0,1.098639297E1,1.711854219E0,1.144620640E1
2.502868569E0,-2.703053713E0,1.105821896E1,1.596333981E0,1.149517238E1
2.504861226E0,-2.679111719E0,1.109652615E1,1.476623893E0,1.151047133E1
2.506853882E0,-2.506729126E0,1.114919853E1,1.323395014E0,1.150389904E1
2.508846538E0,-2.334346771E0,1.117314053E1,1.155800819E0,1.147275554E1
2.510839194E0,-2.276885748E0,1.123538971E1,9.690531492E-1,1.150466230E1
2.512831851E0,-2.161964178E0,1.128327370E1,7.583633661E-1,1.151353418E1
2.514824559E0,-1.965639591E0,1.135988808E1,5.476736426E-1,1.154169583E1
2.516817319E0,-1.817199111E0,1.144608021E1,3.220201433E-1,1.159390623E1
2.518810132E0,-1.701678872E0,1.152329254E1,9.217676520E-2,1.164862561E1
2.520802996E0,-1.505354285E0,1.160469532E1,-1.520318091E-1,1.170291240E1
2.522795913E0,-1.332971811E0,1.171004009E1,-3.818751574E-1,1.179184809E1
2.524788882E0,-1.232415318E0,1.180580902E1,-6.218938828E-1,1.188624104E1
2.526781903E0,-1.012148738E0,1.189200020E1,-8.517372608E-1,1.196534873E1
2.528774976E0,-7.439981699E-1,1.196861458E1,-1.086369038E0,1.204082497E1
2.530768101E0,-4.991910458E-1,1.204522896E1,-1.297058821E0,1.212514305E1
2.532761278E0,-4.034229815E-1,1.213142014E1,-1.493383288E0,1.222964833E1
2.534754507E0,-1.544260085E-1,1.218888092E1,-1.675342679E0,1.230444792E1
2.536747788E0,1.663970202E-1,1.221282291E1,-1.833958507E0,1.235087589E1
2.538741121E0,2.861070931E-1,1.222718811E1,-1.968033791E0,1.238786274E1
2.540734455E0,4.686649740E-1,1.221282291E1,-2.097320795E0,1.240046148E1
2.542727788E0,6.027402878E-1,1.223676491E1,-2.178723574E0,1.244381564E1
2.544721121E0,7.703344226E-1,1.226070690E1,-2.226607561E0,1.248503625E1
2.546714455E0,1.043273449E0,1.227986050E1,-2.360682964E0,1.254815593E1
2.548707788E0,1.110311031E0,1.234689808E1,-2.389413357E0,1.262489521E1
2.550701017E0,1.129464626E0,1.239478207E1,-2.470816135E0,1.268902066E1
2.552694142E0,1.244386315E0,1.244745445E1,-2.509123325E0,1.275865665E1
2.554687163E0,1.344942808E0,1.251449203E1,-2.494758129E0,1.283141458E1
2.556680080E0,1.421557307E0,1.257674122E1,-2.442085743E0,1.289026872E1
2.558672996E0,1.589749932E0,1.262941360E1,-2.375048161E0,1.294875464E1
2.560665913E0,1.435922503E0,1.273535728E1,-2.379836559E0,1.303513792E1
2.562658830E0,1.253963113E0,1.281197166E1,-2.317587137E0,1.308014723E1
2.564651746E0,1.119887829E0,1.285027885E1,-2.231395960E0,1.309056696E1
2.566644663E0,1.100734234E0,1.286943245E1,-2.154781580E0,1.309492234E1
2.568637580E0,9.331400990E-1,1.288858604E1,-2.030282974E0,1.308084285E1
2.570630496E0,7.846996188E-1,1.292210484E1,-1.896207690E0,1.308404182E1
2.572623413E0,6.027402878E-1,1.297956562E1,-1.747767210E0,1.311057244E1
2.574616330E0,4.542997777E-1,1.304660320E1,-1.550844193E0,1.314630599E1
2.576609246E0,2.382230759E-1,1.309927559E1,-1.321000814E0,1.316787053E1
2.578602163E0,-1.161187813E-1,1.316152573E1,-1.033696532E0,1.320256685E1
2.580595080E0,-5.279214978E-1,1.320462132E1,-7.416039705E-1,1.323596244E1
2.582588048E0,-8.972271085E-1,1.324292850E1,-4.249708056E-1,1.328008931E1
2.584581017E0,-1.194108129E0,1.323814011E1,-1.520318091E-1,1.329275597E1
2.586573986E0,-1.452681899E0,1.323335171E1,7.781155407E-2,1.331307390E1
2.588566955E0,-1.658583283E0,1.322377491E1,2.501940727E-1,1.332973062E1
2.590559923E0,-1.768716455E0,1.322377491E1,3.459621370E-1,1.334602078E1
2.592552892E0,-1.860294700E0,1.326687050E1,3.842693865E-1,1.340217192E1
2.594545913E0,-1.908178806E0,1.329081249E1,3.220201433E-1,1.343095455E1
2.596538986E0,-1.941697598E0,1.332433128E1,2.406172752E-1,1.346721539E1
2.598532111E0,-1.932120800E0,1.330996609E1,8.259996027E-2,1.344972531E1
2.600525288E0,-1.903390408E0,1.333390808E1,-1.041477770E-1,1.346947833E1
2.602518569E0,-1.889025092E0,1.335785007E1,-2.717418969E-1,1.349349540E1
2.604511955E0,-1.922544003E0,1.335785007E1,-4.584896266E-1,1.350327911E1
2.606505444E0,-1.932120800E0,1.338658047E1,-6.458359361E-1,1.354070646E1
2.608498986E0,-1.951274395E0,1.346319485E1,-8.852560520E-1,1.363263604E1
2.610492580E0,-1.980004787E0,1.351586723E1,-1.086369038E0,1.370325814E1
2.612486226E0,-2.003946781E0,1.359248161E1,-1.239597917E0,1.379521519E1
2.614479923E0,-2.023100376E0,1.363557720E1,-1.364096403E0,1.385217166E1
2.616473621E0,-2.090138197E0,1.368346119E1,-1.464652896E0,1.391944668E1
2.618467319E0,-2.200271368E0,1.372655678E1,-1.536478996E0,1.398643353E1
2.620460548E0,-2.296039343E0,1.375049877E1,-1.603516579E0,1.403279297E1
2.622453726E0,-2.439691544E0,1.377982807E1,-1.622670174E0,1.408789605E1
2.624446903E0,-2.559401512E0,1.377503967E1,-1.622670174E0,1.410444301E1
2.626439976E0,-2.717418909E0,1.377025127E1,-1.622670174E0,1.412930445E1
2.628432996E0,-2.822763920E0,1.373613358E1,-1.593939781E0,1.411346895E1
2.630426017E0,-2.947860956E0,1.365951920E1,-1.546055794E0,1.405925451E1
2.632419038E0,-3.024475336E0,1.356853962E1,-1.459864497E0,1.397797993E1
2.634412059E0,-3.067570925E0,1.350150204E1,-1.435922503E0,1.391985711E1
2.636405080E0,-3.172915697E0,1.343446445E1,-1.421557307E0,1.387706937E1
2.638398101E0,-3.220799923E0,1.332433128E1,-1.359308004E0,1.377530670E1
2.640391121E0,-3.254318714E0,1.318067932E1,-1.349731207E0,1.364341130E1
2.642384142E0,-3.268683910E0,1.305139160E1,-1.383249998E0,1.352540195E1
2.644377163E0,-3.220799923E0,1.287422085E1,-1.416768909E0,1.334639834E1
2.646370184E0,-3.192069530E0,1.272578049E1,-1.469441295E0,1.320204736E1
2.648363205E0,-3.187281132E0,1.259110641E1,-1.579574585E0,1.308395115E1
2.650356226E0,-3.187281132E0,1.250012684E1,-1.680131078E0,1.300902658E1
2.652349246E0,-3.206434727E0,1.237084007E1,-1.824381709E0,1.290919348E1
2.654342267E0,-3.101089716E0,1.219366932E1,-1.948880196E0,1.273186801E1
2.656335288E0,-2.957437754E0,1.199734497E1,-2.126051188E0,1.253805480E1
2.658328309E0,-2.774879694E0,1.176271248E1,-2.264914751E0,1.229598312E1
2.660321330E0,-2.578555346E0,1.152329254E1,-2.375048161E0,1.204475290E1
2.662314351E0,-2.382230759E0,1.124496651E1,-2.499546528E0,1.176316403E1
2.664307371E0,-2.205059767E0,1.098639297E1,-2.547430515E0,1.149141077E1
2.666300392E0,-2.018311977E0,1.075654984E1,-2.576161146E0,1.124337822E1
2.668293413E0,-1.874659896E0,1.060332108E1,-2.537853718E0,1.106279662E1
2.670286434E0,-1.744774461E0,1.046924591E1,-2.489969730E0,1.090180247E1
2.672279455E0,-1.653794765E0,1.038245583E1,-2.389413357E0,1.078145270E1
2.674272476E0,-1.649006367E0,1.032978344E1,-2.269703150E0,1.070398058E1
2.676265496E0,-1.625064373E0,1.031541824E1,-2.135627985E0,1.065878017E1
2.678258517E0,-1.620275974E0,1.027711105E1,-2.011129379E0,1.059664792E1
2.680251538E0,-1.586757183E0,1.024359226E1,-1.843535304E0,1.052841884E1
2.682244559E0,-1.567603588E0,1.018613148E1,-1.656189084E0,1.043827657E1
2.684237580E0,-1.529296279E0,1.016218948E1,-1.488594890E0,1.038387004E1
2.686230601E0,-1.524507880E0,1.011430550E1,-1.277905107E0,1.030807166E1
2.688223621E0,-1.519719481E0,1.008557510E1,-1.052850246E0,1.025362697E1
2.690216642E0,-1.481412292E0,1.005684471E1,-8.038532138E-1,1.019710194E1
2.692209663E0,-1.414374709E0,1.001853657E1,-5.829881430E-1,1.013466358E1
2.694202684E0,-1.337760210E0,9.989806175E0,-3.531447649E-1,1.008516440E1
2.696195705E0,-1.246780515E0,9.994594574E0,-1.663970202E-1,1.007343389E1
2.698188726E0,-1.107916832E0,9.999382973E0,1.556231081E-2,1.006058556E1
2.700181746E0,-1.012148738E0,9.975440979E0,2.358288616E-1,1.002943084E1
2.702174767E0,-8.876502514E-1,9.965864182E0,4.369418025E-1,1.001485347E1
2.704167788E0,-7.727286220E-1,9.956287384E0,6.242880821E-1,1.000572354E1
2.706160809E0,-6.524199843E-1,9.937133789E0,9.546879530E-1,1.000418457E1
2.708153830E0,-5.758054852E-1,9.894038200E0,1.294664621E0,9.994983759E0
2.710146851E0,-4.944026470E-1,9.889249802E0,1.601122379E0,1.003021877E1
2.712139871E0,-3.459621370E-1,9.812635422E0,1.845929503E0,9.990743689E0
2.714132892E0,-2.214636505E-1,9.692925453E0,1.936909199E0,9.887035311E0
2.716125913E0,-1.113303825E-1,9.558850288E0,1.960851192E0,9.758532200E0
2.718118934E0,1.795651205E-2,9.429563522E0,1.922544003E0,9.623573458E0
2.720111955E0,7.541735470E-2,9.295488358E0,1.807622313E0,9.469914995E0
2.722104976E0,1.568202078E-1,9.165602684E0,1.663970232E0,9.316740958E0
2.724097996E0,2.286462635E-1,9.021950722E0,1.534084797E0,9.154304458E0
2.726091017E0,2.669534981E-1,8.935759544E0,1.361702204E0,9.042858823E0
2.728084090E0,3.244143426E-1,8.859145164E0,1.174954534E0,8.942606771E0
2.730077215E0,3.675099611E-1,8.825626373E0,9.977835417E-1,8.889449727E0
2.732070392E0,3.962403834E-1,8.744223595E0,8.301894665E-1,8.792477880E0
2.734063621E0,3.722983599E-1,8.739435196E0,6.817489266E-1,8.773888261E0
2.736056955E0,3.387795389E-1,8.801684380E0,5.476736426E-1,8.825211947E0
2.738050392E0,3.435679376E-1,8.763377190E0,3.938461840E-1,8.778948315E0
2.740043934E0,3.292027414E-1,8.734646797E0,2.310404629E-1,8.743901235E0
2.742037528E0,2.430114746E-1,8.835203171E0,-5.626374111E-2,8.838723621E0
2.744031173E0,7.541735470E-2,8.950124741E0,-3.339911401E-1,8.956671856E0
2.746024871E0,-3.471592441E-2,9.002797127E0,-4.776432514E-1,9.015525740E0
2.748018621E0,-2.023100406E-1,9.093776703E0,-6.554127336E-1,9.119609088E0
2.750012423E0,-4.082113802E-1,9.189544678E0,-8.613140583E-1,9.238843533E0
2.752006226E0,-6.284779310E-1,9.348160744E0,-1.115099430E0,9.435387673E0
2.754000028E0,-8.301894665E-1,9.463082314E0,-1.301847219E0,9.588219209E0
2.755993830E0,-9.977835417E-1,9.477447510E0,-1.483806491E0,9.644649553E0
2.757987371E0,-1.218050122E0,9.563638687E0,-1.853112102E0,9.817375184E0
2.759980861E0,-1.481412292E0,9.726444244E0,-2.121262789E0,1.006469353E1
2.761974351E0,-1.586757183E0,9.721655846E0,-2.403778553E0,1.013935610E1
2.763967840E0,-1.783081770E0,9.865307808E0,-2.700659513E0,1.038254499E1
2.765961330E0,-1.980004787E0,1.000895977E1,-2.950255156E0,1.062090863E1
2.767954819E0,-2.090138197E0,1.008078671E1,-3.189675331E0,1.077798529E1
2.769948309E0,-2.205059767E0,1.018134308E1,-3.395576477E0,1.095682322E1
2.771941798E0,-2.363077164E0,1.037766743E1,-3.596689463E0,1.123460235E1
2.773935288E0,-2.549824715E0,1.062247467E1,-3.970185041E0,1.162329314E1
2.775928778E0,-2.698265314E0,1.098639297E1,-4.406527996E0,1.214079714E1
2.777922267E0,-2.717418909E0,1.135988808E1,-4.789600372E0,1.262425025E1
2.779915757E0,-2.755726099E0,1.170046329E1,-5.086481571E0,1.305247725E1
2.781909246E0,-2.636016130E0,1.205480576E1,-5.278616428E0,1.342127841E1
2.783902736E0,-2.482787132E0,1.237562847E1,-5.398326397E0,1.372815865E1
2.785896226E0,-2.315192938E0,1.265874290E1,-5.355230808E0,1.393852170E1
2.787889715E0,-1.989581585E0,1.275451088E1,-5.259462357E0,1.393907913E1
2.789883205E0,-1.572391987E0,1.281676006E1,-5.111021996E0,1.388755921E1
2.791876642E0,-1.184531331E0,1.276408768E1,-4.904522419E0,1.372513712E1
2.793869767E0,-8.254010081E-1,1.260547161E1,-4.583699226E0,1.343835927E1
2.795862840E0,-4.704606235E-1,1.250970364E1,-4.305971622E0,1.323840662E1
2.797855913E0,-1.448491961E-1,1.241393566E1,-3.898358822E0,1.301245486E1
2.799848986E0,7.541735470E-2,1.224155331E1,-3.457825899E0,1.272076551E1
2.801842059E0,2.142810524E-1,1.204044056E1,-2.969408751E0,1.240304453E1
2.803835132E0,3.052607179E-1,1.182017422E1,-2.528276920E0,1.209139722E1
2.805828205E0,3.339911401E-1,1.165257931E1,-2.044648170E0,1.183531752E1
2.807821278E0,3.148375154E-1,1.140298462E1,-1.656189084E0,1.152693121E1
2.809814351E0,3.004723191E-1,1.116835213E1,-1.206079125E0,1.123730393E1
2.811807423E0,1.999158412E-1,1.093372059E1,-7.703344226E-1,1.096264691E1
2.813800496E0,1.795651205E-2,1.073260784E1,-3.818751574E-1,1.073941442E1
2.815793569E0,-1.544260085E-1,1.055064869E1,8.259996027E-2,1.055210206E1
2.817786642E0,-2.501940727E-1,1.038784218E1,5.572504401E-1,1.040578638E1
2.819779767E0,-4.465186298E-1,1.021007347E1,9.834183455E-1,1.026703905E1
2.821772944E0,-6.961141229E-1,1.011430550E1,1.428739905E0,1.023841044E1
2.823766121E0,-1.016937137E0,9.970652580E0,1.912967205E0,1.020330915E1
2.825759298E0,-1.361702204E0,9.908403397E0,2.348711967E0,1.027361371E1
2.827752476E0,-1.778293371E0,9.850942612E0,2.785055161E0,1.039037679E1
2.829745653E0,-2.296039343E0,9.764751434E0,3.254318714E0,1.054574594E1
2.831738830E0,-2.938283920E0,9.726444244E0,3.627814054E0,1.078880275E1
2.833732007E0,-3.627814054E0,9.678560257E0,3.891774893E0,1.104452241E1
2.835725184E0,-4.279635429E0,9.721655846E0,4.078522682E0,1.137805867E1
2.837718361E0,-4.954800606E0,9.745597839E0,4.188655853E0,1.170775658E1
2.839711538E0,-5.597044945E0,9.750386238E0,4.270058632E0,1.202623568E1
2.841704715E0,-6.224325657E0,9.850942612E0,4.442441463E0,1.247070914E1
2.843697892E0,-6.694188118E0,9.894038200E0,4.557363033E0,1.278568357E1
2.845688882E0,-7.067683220E0,9.922768593E0,4.839878559E0,1.310869586E1
2.847679871E0,-7.393294811E0,9.970652580E0,5.012859821E0,1.338669058E1
2.849671121E0,-7.762600422E0,9.932345390E0,5.175665379E0,1.362706727E1
2.851662684E0,-8.016386032E0,9.946710587E0,5.352836609E0,1.385107780E1
2.853654611E0,-8.088212013E0,9.913191795E0,5.563526154E0,1.395146474E1
2.855646955E0,-8.030751228E0,9.860519409E0,5.750273705E0,1.395666350E1
2.857639715E0,-7.800907612E0,9.759963036E0,5.846042156E0,1.379446436E1
2.859632892E0,-7.465719223E0,9.573215485E0,5.850830555E0,1.347648457E1
2.861626486E0,-7.000645638E0,9.415198326E0,5.841253757E0,1.310630552E1
2.863620444E0,-6.406883717E0,9.136872292E0,5.764639378E0,1.256032091E1
2.865614715E0,-5.946598530E0,8.930971146E0,5.721543312E0,1.215978361E1
2.867609246E0,-5.434239388E0,8.686761856E0,5.563526154E0,1.165948595E1
2.869603986E0,-4.830301762E0,8.447341919E0,5.348048210E0,1.110364896E1
2.871598830E0,-4.375403404E0,8.174403191E0,5.002684593E0,1.053526818E1
2.873593726E0,-4.097676277E0,7.910442352E0,4.581305027E0,1.001770457E1
2.875587944E0,-3.809773445E0,7.666234016E0,4.169502258E0,9.522093613E0
2.877581017E0,-3.536834478E0,7.436390400E0,3.790619850E0,9.065202654E0
2.879573986E0,-3.249530315E0,7.216124058E0,3.536834478E0,8.668396150E0
2.881566955E0,-3.000533342E0,6.952163219E0,3.412335873E0,8.305408471E0
2.883559923E0,-2.817975283E0,6.741473198E0,3.230376720E0,7.988978616E0
2.885552892E0,-2.645592928E0,6.540360451E0,3.029263735E0,7.678015078E0
2.887545861E0,-2.573766708E0,6.391920090E0,2.765302896E0,7.424810948E0
2.889538830E0,-2.444479942E0,6.253056526E0,2.454056740E0,7.148327958E0
2.891531798E0,-2.291250944E0,6.104615688E0,2.094926596E0,6.848713823E0
2.893524767E0,-2.205059767E0,5.937021732E0,1.716642618E0,6.561812059E0
2.895517736E0,-2.104503393E0,5.778405666E0,1.332971811E0,6.292513045E0
2.897510705E0,-1.994369984E0,5.634753704E0,9.594763517E-1,6.053805068E0
2.899503673E0,-1.811812162E0,5.500678539E0,5.668272376E-1,5.819056695E0
2.901496642E0,-1.668160081E0,5.380968094E0,2.693476975E-1,5.640046442E0
2.903489611E0,-1.558026791E0,5.275623322E0,2.035071515E-2,5.500914748E0
2.905482580E0,-1.467047095E0,5.208585739E0,-1.807622313E-1,5.414265192E0
2.907475548E0,-1.318606615E0,5.122394562E0,-4.058171809E-1,5.304935159E0
2.909468517E0,-1.198896527E0,5.040991783E0,-5.734112859E-1,5.213228514E0
2.911461486E0,-1.165377736E0,4.997896194E0,-5.973533392E-1,5.166614235E0
2.913454455E0,-1.055244446E0,4.945223808E0,-7.224503756E-1,5.107906998E0
2.915447423E0,-9.259575009E-1,4.906916618E0,-7.607575655E-1,5.051136512E0
2.917440392E0,-8.493430614E-1,4.878185749E0,-7.751228213E-1,5.011875420E0
2.919433361E0,-7.918822169E-1,4.863820553E0,-7.368155718E-1,4.982642372E0
2.921426330E0,-6.859387755E-1,4.873397350E0,-7.080851793E-1,4.972112062E0
2.923419298E0,-5.758054852E-1,4.844666958E0,-7.080851793E-1,4.929881795E0
2.925412267E0,-5.087678432E-1,4.882974148E0,-6.697779298E-1,4.954884834E0
2.927405236E0,-4.560954273E-1,4.930858612E0,-5.734112859E-1,4.984996509E0
2.929398205E0,-3.555389643E-1,4.950012207E0,-5.159504414E-1,4.989512367E0
2.931391173E0,-3.124433160E-1,5.007472992E0,-3.627215624E-1,5.030305510E0
2.933384142E0,-3.268085420E-1,5.098452568E0,-2.621650994E-1,5.115638079E0
2.935377111E0,-3.411737382E-1,5.122394562E0,-8.020575345E-2,5.134370315E0
2.937370080E0,-3.746925592E-1,5.122394562E0,1.065419763E-1,5.137185197E0
2.939363101E0,-5.997475386E-1,5.194220543E0,3.746925592E-1,5.242138750E0
2.941356173E0,-7.009025216E-1,5.289988518E0,6.194996834E-1,5.372059449E0
2.943349298E0,-7.823054194E-1,5.251681328E0,5.859808922E-1,5.341865980E0
2.945342476E0,-8.541314602E-1,5.318718910E0,5.237316489E-1,5.412264428E0
2.947335653E0,-7.631517649E-1,5.289988518E0,6.386532784E-1,5.382774112E0
2.949328830E0,-8.349778652E-1,5.280411720E0,8.206126094E-1,5.408635782E0
2.951322007E0,-1.040879130E0,5.294776917E0,1.083974838E0,5.503916188E0
2.953315184E0,-1.280299306E0,5.313930511E0,1.313818216E0,5.621667199E0
2.955308361E0,-1.519719481E0,5.299565315E0,1.591545582E0,5.738288697E0
2.957301538E0,-1.744774461E0,5.294776917E0,1.826775908E0,5.866516064E0
2.959294715E0,-1.884236693E0,5.275623322E0,2.056619167E0,5.967598491E0
2.961287892E0,-2.080561161E0,5.242104530E0,2.161964178E0,6.040073158E0
2.963280861E0,-2.300827742E0,5.213374138E0,2.281674147E0,6.138331623E0
2.965273778E0,-2.501940727E0,5.170278549E0,2.387019157E0,6.220076216E0
2.967266694E0,-2.722207308E0,5.117606163E0,2.473210335E0,6.302148429E0
2.969259611E0,-2.918531895E0,5.084087372E0,2.468421936E0,6.360729493E0
2.971252528E0,-3.096301317E0,5.050568581E0,2.525882721E0,6.440140399E0
2.973245444E0,-3.105878115E0,4.997896194E0,2.664746523E0,6.459591261E0
2.975238361E0,-3.139396906E0,4.921281815E0,2.717418909E0,6.438881359E0
2.977231278E0,-3.220799923E0,4.863820553E0,2.746149302E0,6.447607192E0
2.979224194E0,-3.244741917E0,4.825513363E0,2.799420357E0,6.453734086E0
2.981217111E0,-3.268683910E0,4.748300552E0,2.895188332E0,6.450795929E0
2.983210028E0,-3.235165119E0,4.714781761E0,3.014898539E0,6.464137499E0
2.985202996E0,-3.268683910E0,4.662109375E0,3.062782526E0,6.465307041E0
2.987196017E0,-3.297414303E0,4.642955780E0,3.225588322E0,6.544799423E0
2.989189090E0,-3.283049107E0,4.599860191E0,3.364451885E0,6.576979679E0
2.991182215E0,-3.311779499E0,4.551976204E0,3.436278105E0,6.595178392E0
2.993175392E0,-3.283049107E0,4.504091740E0,3.541622877E0,6.603661593E0
2.995168621E0,-3.292625904E0,4.504091740E0,3.599083662E0,6.639399894E0
2.997161903E0,-3.244741917E0,4.480149746E0,3.757101059E0,6.686994857E0
2.999155236E0,-3.182492495E0,4.432265759E0,3.958812475E0,6.741322900E0
3.001148569E0,-3.139396906E0,4.417900562E0,4.121618271E0,6.808920288E0
3.003141903E0,-3.072359324E0,4.379593372E0,4.274847031E0,6.847959335E0
3.005135236E0,-2.976591349E0,4.360439777E0,4.442441463E0,6.899914294E0
3.007128569E0,-2.889801502E0,4.336497784E0,4.638765812E0,6.976697930E0
3.009121851E0,-2.817975283E0,4.283825397E0,4.734533787E0,6.979108461E0
3.011114871E0,-2.779668093E0,4.231153011E0,4.830301762E0,6.997215562E0
3.013107788E0,-2.741360903E0,4.226364613E0,4.940435410E0,7.055857104E0
3.015100653E0,-2.602497339E0,4.173692226E0,5.113416195E0,7.095049287E0
3.017093517E0,-2.535459518E0,4.154538631E0,5.209184170E0,7.129119576E0
3.019086382E0,-2.434903145E0,4.111443043E0,5.295375824E0,7.132581744E0
3.021079246E0,-2.343923569E0,4.106654644E0,5.376778603E0,7.160191213E0
3.023072111E0,-2.248155355E0,4.068347454E0,5.491700172E0,7.194749773E0
3.025064976E0,-2.152387381E0,4.006097794E0,5.534795761E0,7.163487634E0
3.027057840E0,-2.142810583E0,3.996521235E0,5.482123375E0,7.114597379E0
3.029050705E0,-2.133233786E0,4.010886192E0,5.410297394E0,7.064645237E0
3.031043569E0,-2.070984364E0,3.986944437E0,5.415085793E0,7.036181942E0
3.033036486E0,-2.037465572E0,3.977367640E0,5.391143799E0,7.002510318E0
3.035029455E0,-2.042253971E0,3.991732836E0,5.304952621E0,6.946024376E0
3.037022476E0,-2.066195965E0,3.996521235E0,5.233126163E0,6.901228672E0
3.039015548E0,-2.070984364E0,3.986944437E0,5.156511784E0,6.839175093E0
3.041008673E0,-2.138022184E0,4.053982258E0,5.022436619E0,6.799322069E0
3.043001851E0,-2.171540976E0,4.073135853E0,4.945223808E0,6.764707266E0
3.044995080E0,-2.262520552E0,4.183269024E0,4.791994572E0,6.751440657E0
3.046988361E0,-2.343923569E0,4.250306606E0,4.715380192E0,6.767118611E0
3.048981642E0,-2.425326347E0,4.302978992E0,4.619612217E0,6.763035793E0
3.050974923E0,-2.468421936E0,4.331709385E0,4.571728230E0,6.764429913E0
3.052968205E0,-2.592920542E0,4.470572948E0,4.576516628E0,6.903170567E0
3.054961486E0,-2.712630510E0,4.571129799E0,4.629189014E0,7.048615669E0
3.056954767E0,-2.827552319E0,4.709993362E0,4.667496204E0,7.208648306E0
3.058947892E0,-2.957437754E0,4.825513363E0,4.753687382E0,7.391181300E0
3.060940913E0,-3.043628931E0,4.978742599E0,4.772840977E0,7.538671364E0
3.062933934E0,-3.125031710E0,5.074510574E0,4.868608952E0,7.695442410E0
3.064926955E0,-3.235165119E0,5.194220543E0,4.983530998E0,7.891882007E0
3.066919819E0,-3.369240284E0,5.400122166E0,5.118204594E0,8.167564983E0
3.068912684E0,-3.460220098E0,5.534197330E0,5.237914562E0,8.368764077E0
3.070905548E0,-3.555988073E0,5.673060894E0,5.252279758E0,8.509707031E0
3.072898413E0,-3.575141668E0,5.792770863E0,5.319317818E0,8.639037809E0
3.074891278E0,-3.623025656E0,5.927444935E0,5.429450989E0,8.817020835E0
3.076884142E0,-3.718793869E0,6.147711277E0,5.568314552E0,9.090099490E0
3.078877059E0,-3.709217072E0,6.272210121E0,5.812523365E0,9.321176908E0
3.080870028E0,-3.646967649E0,6.382343292E0,5.956175327E0,9.461009643E0
3.082863048E0,-3.632602453E0,6.535572052E0,6.008847713E0,9.592484218E0
3.084856121E0,-3.560776472E0,6.731896400E0,6.177040577E0,9.805783422E0
3.086849246E0,-3.484162092E0,6.923432827E0,6.335057735E0,1.001030789E1
3.088842423E0,-3.369240284E0,7.077260017E0,6.545747280E0,1.021206134E1
3.090835601E0,-3.249530315E0,7.211335659E0,6.660669327E0,1.034056696E1
3.092828778E0,-3.139396906E0,7.364564419E0,6.689399719E0,1.043267418E1
3.094821955E0,-2.971802950E0,7.517793179E0,6.603208065E0,1.043796838E1
3.096815132E0,-2.832340717E0,7.680599213E0,6.627150536E0,1.053246801E1
3.098808309E0,-2.626439333E0,7.867346764E0,6.655880928E0,1.063457002E1
3.100801486E0,-2.382230759E0,8.030152321E0,6.684611320E0,1.071645455E1
3.102794663E0,-2.109291792E0,8.183979988E0,6.713341713E0,1.079331262E1
3.104787840E0,-1.994369984E0,8.399457932E0,6.794744492E0,1.098621672E1
3.106781017E0,-1.893813491E0,8.648454666E0,6.780379295E0,1.115149501E1
3.108774194E0,-1.668160081E0,8.916605949E0,6.679822922E0,1.126537412E1
3.110767371E0,-1.447893500E0,9.218275070E0,6.493074894E0,1.136806986E1
3.112760548E0,-1.131858826E0,9.510966301E0,6.282385349E0,1.145460388E1
3.114753726E0,-8.637082577E-1,9.836577415E0,6.133346081E0,1.162420670E1
3.116746903E0,-6.715735793E-1,1.015261269E1,6.032789707E0,1.182882526E1
3.118740080E0,-5.327098966E-1,1.054586029E1,6.004059315E0,1.214692049E1
3.120733257E0,-4.273650050E-1,1.091456699E1,5.989694118E0,1.245740138E1
3.122726434E0,-4.321534038E-1,1.129763889E1,6.047154903E0,1.282152423E1
3.124719611E0,-4.608838260E-1,1.174355888E1,5.984905720E0,1.318873328E1
3.126712788E0,-4.704606235E-1,1.217930412E1,5.874772549E0,1.353032648E1
3.128705965E0,-4.513070285E-1,1.264437771E1,5.721543312E0,1.388596498E1
3.130699142E0,-4.608838260E-1,1.308969879E1,5.654505730E0,1.426625611E1
3.132692319E0,-6.476315856E-1,1.361163521E1,5.649717331E0,1.475179127E1
3.134685496E0,-7.918822169E-1,1.404319000E1,5.649717331E0,1.515775606E1
3.136678673E0,-1.141435623E0,1.461779881E1,5.616198540E0,1.570110198E1
3.138671851E0,-1.433528304E0,1.502541161E1,5.611410141E0,1.610297864E1
3.140665028E0,-1.744774461E0,1.548509789E1,5.601833344E0,1.655937895E1
3.142658205E0,-2.090138197E0,1.594957352E1,5.453392982E0,1.698520144E1
3.144651382E0,-2.420537949E0,1.637155151E1,5.395932198E0,1.740697525E1
3.146644559E0,-2.822763920E0,1.675462341E1,5.501276970E0,1.785915592E1
3.148637736E0,-3.072359324E0,1.702277374E1,5.597044945E0,1.818079013E1
3.150630913E0,-3.350086689E0,1.725321579E1,5.716754913E0,1.848182412E1
3.152624090E0,-3.474585295E0,1.732504272E1,5.826888561E0,1.860597965E1
3.154617267E0,-3.421912670E0,1.727236938E1,5.932233334E0,1.858051729E1
3.156610444E0,-3.316567898E0,1.705150414E1,5.960963726E0,1.836536154E1
3.158603621E0,-3.268683910E0,1.677377701E1,6.177040577E0,1.817139840E1
3.160596798E0,-3.110666513E0,1.651999092E1,6.153098583E0,1.790103261E1
3.162589976E0,-2.923320293E0,1.614170837E1,6.148310184E0,1.751862634E1
3.164583153E0,-2.779668093E0,1.573409462E1,6.320692539E0,1.718253306E1
3.166576330E0,-2.659958124E0,1.527919674E1,6.550535679E0,1.683563922E1
3.168569507E0,-2.640804529E0,1.491049004E1,6.684611320E0,1.655235905E1
3.170562684E0,-2.545036316E0,1.442147350E1,7.000645638E0,1.623160951E1
3.172555705E0,-2.387019157E0,1.393784523E1,7.298125267E0,1.591301425E1
3.174548726E0,-2.272097349E0,1.343446445E1,7.604583263E0,1.560374789E1
3.176541746E0,-2.147598982E0,1.288858604E1,7.944559574E0,1.529195404E1
3.178534767E0,-2.037465572E0,1.234210968E1,8.246229172E0,1.498263104E1
3.180527788E0,-1.850717902E0,1.172919369E1,8.519766808E0,1.461456697E1
3.182520809E0,-1.672948480E0,1.114441013E1,8.802282333E0,1.429953874E1
3.184513830E0,-1.524507880E0,1.064162827E1,9.094375610E0,1.408105267E1
3.186506851E0,-1.328183413E0,1.012388229E1,9.482235909E0,1.393448462E1
3.188499871E0,-1.131858826E0,9.654618263E0,9.841964722E0,1.383318574E1
3.190492892E0,-9.355342984E-1,9.290699959E0,1.026813221E1,1.387900822E1
3.192485913E0,-7.439981699E-1,8.988431931E0,1.066616821E1,1.396827069E1
3.194478934E0,-5.518634915E-1,8.749011993E0,1.097262669E1,1.404451140E1
3.196471955E0,-3.842693865E-1,8.576628685E0,1.135569859E1,1.423580391E1
3.198464976E0,-3.076549172E-1,8.480860710E0,1.161427212E1,1.438440012E1
3.200458048E0,-2.885012925E-1,8.423399925E0,1.171482849E1,1.443170488E1
3.202451173E0,-3.842693865E-1,8.351573944E0,1.162863731E1,1.432206885E1
3.204444351E0,-5.614402890E-1,8.279747963E0,1.153765774E1,1.421221262E1
3.206437580E0,-8.349778652E-1,8.164826393E0,1.140837097E1,1.405391427E1
3.208430809E0,-1.189319730E0,8.049305916E0,1.104445267E1,1.371808084E1
3.210424038E0,-1.577180386E0,7.891288757E0,1.068053341E1,1.337287292E1
3.212417267E0,-1.994369984E0,7.738059998E0,1.012448025E1,1.289806902E1
3.214410496E0,-2.343923569E0,7.599195957E0,9.545084000E0,1.242378306E1
3.216403726E0,-2.602497339E0,7.493851185E0,8.816647530E0,1.186018852E1
3.218396955E0,-2.851494312E0,7.402871609E0,8.274959564E0,1.146335394E1
3.220390184E0,-3.091512918E0,7.374141216E0,7.618948460E0,1.104462704E1
3.222383361E0,-3.306991100E0,7.422025204E0,6.933608055E0,1.068164636E1
3.224376330E0,-3.445854902E0,7.513004780E0,6.277596951E0,1.037918014E1
3.226369298E0,-3.441066504E0,7.637503624E0,5.601833344E0,1.007734772E1
3.228362267E0,-3.508104086E0,7.781155586E0,4.969165802E0,9.876526986E0
3.230355236E0,-3.623025656E0,7.943961143E0,4.332307816E0,9.746882812E0
3.232348205E0,-3.603872061E0,8.087613106E0,3.690063477E0,9.592390111E0
3.234341173E0,-3.646967649E0,8.188768387E0,3.019686937E0,9.459112534E0
3.236334142E0,-3.651756048E0,8.255805969E0,2.343923569E0,9.326716042E0
3.238327111E0,-3.565564871E0,8.294113159E0,1.740584612E0,9.194302624E0
3.240320132E0,-3.474585295E0,8.322843552E0,1.146224022E0,9.091550872E0
3.242313153E0,-3.292625904E0,8.270171165E0,5.476736426E-1,8.918355390E0
3.244306226E0,-3.230376720E0,8.260594368E0,-6.584054977E-2,8.870010600E0
3.246299298E0,-3.216011524E0,8.279747963E0,-7.272387743E-1,8.912117183E0
3.248292371E0,-3.211223125E0,8.346785545E0,-1.287482023E0,9.035396663E0
3.250285444E0,-3.220799923E0,8.432976723E0,-1.814804912E0,9.207723140E0
3.252278517E0,-3.254318714E0,8.576628685E0,-2.322375536E0,9.462694015E0
3.254271590E0,-3.378817081E0,8.658031464E0,-2.834734917E0,9.716667934E0
3.256264663E0,-3.460220098E0,8.787319183E0,-3.237559319E0,9.983581116E0
3.258257736E0,-3.575141668E0,8.993220329E0,-3.606266260E0,1.032786552E1
3.260250809E0,-3.828927040E0,9.237428665E0,-3.903147221E0,1.073430617E1
3.262243882E0,-4.121618271E0,9.549273491E0,-4.181473255E0,1.120986530E1
3.264236955E0,-4.499902248E0,9.917980194E0,-4.334702015E0,1.172199185E1
3.266230028E0,-4.787206173E0,1.035851383E1,-4.535815239E0,1.227964868E1
3.268223101E0,-5.045780182E0,1.080443382E1,-4.550180435E0,1.276322177E1
3.270216173E0,-5.525218964E0,1.138383007E1,-4.468777657E0,1.341974685E1
3.272209246E0,-6.023212910E0,1.194467258E1,-4.373009205E0,1.407400108E1
3.274202319E0,-6.421248913E0,1.266831970E1,-4.229357243E0,1.481911685E1
3.276195392E0,-7.015010834E0,1.348234844E1,-4.186261654E0,1.576416452E1
3.278188465E0,-7.547122478E0,1.452203083E1,-4.009090900E0,1.684996282E1
3.280181538E0,-7.958924770E0,1.574367142E1,-4.023456097E0,1.809408390E1
3.282174611E0,-8.423399925E0,1.696052551E1,-3.860051632E0,1.932648676E1
3.284167684E0,-8.792705536E0,1.814385986E1,-3.706822872E0,2.050004530E1
3.286160757E0,-9.036913872E0,1.914044571E1,-3.180098295E0,2.140410006E1
3.288153830E0,-9.056067467E0,1.986409378E1,-2.518700123E0,2.197586017E1
3.290146903E0,-8.893261909E0,2.032378006E1,-1.752555609E0,2.225348500E1
3.292139976E0,-8.677783966E0,2.054943275E1,-7.511807680E-1,2.231921579E1
3.294133101E0,-8.303689957E0,2.038602829E1,2.980781198E-1,2.201431959E1
3.296126226E0,-7.662044048E0,1.978747940E1,1.289876223E0,2.125829346E1
3.298119351E0,-6.799532890E0,1.869512367E1,2.099714994E0,2.000375214E1
3.300112476E0,-5.908291340E0,1.745432854E1,2.698265314E0,1.862369799E1
3.302105601E0,-5.160701752E0,1.611776543E1,3.182492495E0,1.722043738E1
3.304098726E0,-4.648342609E0,1.482369995E1,3.527257681E0,1.593081027E1
3.306091851E0,-4.265270233E0,1.367388439E1,3.843292236E0,1.483032500E1
3.308084976E0,-4.010886192E0,1.264916611E1,4.078522682E0,1.388246947E1
3.310078101E0,-3.852869034E0,1.171004009E1,4.188655853E0,1.301977253E1
3.312071226E0,-3.718793869E0,1.093372059E1,4.131195068E0,1.226549821E1
3.314064351E0,-3.646967649E0,1.030584145E1,3.920505285E0,1.161383238E1
3.316057476E0,-3.656544447E0,9.793481827E0,3.589506865E0,1.105292555E1
3.318050601E0,-3.685275078E0,9.352949142E0,3.172915697E0,1.054164618E1
3.320043726E0,-3.747524261E0,9.041104317E0,2.741360903E0,1.016368855E1
3.322036851E0,-3.718793869E0,8.787319183E0,2.281674147E0,9.810832950E0
3.324029976E0,-3.709217072E0,8.576628685E0,1.774103403E0,9.511271932E0
3.326023101E0,-3.723582268E0,8.370727539E0,1.332971811E0,9.258021294E0
3.328016226E0,-3.776254654E0,8.198345184E0,8.924387097E-1,9.070248609E0
3.330009351E0,-3.833715439E0,8.010998726E0,4.129997790E-1,8.890671711E0
3.332002423E0,-3.915118217E0,7.867346764E0,-1.089361757E-1,8.788353819E0
3.333995496E0,-4.015674591E0,7.723694801E0,-6.410474777E-1,8.728805512E0
3.335988569E0,-4.116829872E0,7.527369976E0,-1.158195019E0,8.657424713E0
3.337981642E0,-4.169502258E0,7.345410824E0,-1.574786186E0,8.591842689E0
3.339974715E0,-4.255693436E0,7.149086475E0,-1.944091797E0,8.543995375E0
