"Time (s)","Acceleration x (m/s^2)","Acceleration y (m/s^2)","Acceleration z (m/s^2)","Absolute acceleration (m/s^2)"
1.131990900E-2,-2.032677174E0,4.825513363E0,7.815272808E0,9.407223011E0
1.331303400E-2,-2.123656988E0,4.839878559E0,7.858368397E0,9.470390558E0
1.530610700E-2,-2.229001760E0,4.859032154E0,7.896675587E0,9.536043605E0
1.729918000E-2,-2.315192938E0,4.868608952E0,7.944559574E0,9.601015482E0
1.929209700E-2,-2.410961151E0,4.911705017E0,8.006809235E0,9.697761286E0
2.128501300E-2,-2.458845139E0,4.935647011E0,8.064270020E0,9.769287680E0
2.327793000E-2,-2.521094322E0,4.940435410E0,8.121730804E0,9.834954493E0
2.527084700E-2,-2.568978310E0,4.964377403E0,8.169614792E0,9.898853388E0
2.726376300E-2,-2.592920542E0,4.964377403E0,8.203133583E0,9.932757951E0
2.925668000E-2,-2.592920542E0,4.983530998E0,8.222287178E0,9.958153673E0
3.124959700E-2,-2.597708941E0,5.002684593E0,8.246229172E0,9.988755700E0
3.324251300E-2,-2.607285738E0,5.012261391E0,8.255805969E0,1.000395099E1
3.523543000E-2,-2.612074137E0,5.021838188E0,8.298901558E0,1.004557401E1
3.722834700E-2,-2.631227732E0,5.045780182E0,8.327631950E0,1.008626348E1
3.922126300E-2,-2.583343744E0,5.055356979E0,8.361150742E0,1.010639109E1
4.121418000E-2,-2.592920542E0,5.060145378E0,8.365939140E0,1.011519876E1
4.320714900E-2,-2.602497339E0,5.060145378E0,8.346785545E0,1.010182620E1
4.520017000E-2,-2.578555346E0,5.064933777E0,8.361150742E0,1.010996259E1
4.719319000E-2,-2.573766708E0,5.069722176E0,8.356362343E0,1.010718307E1
4.918621100E-2,-2.568978310E0,5.060145378E0,8.341997147E0,1.008928328E1
5.117923200E-2,-2.540247917E0,5.064933777E0,8.341997147E0,1.008441025E1
5.317225300E-2,-2.535459518E0,5.055356979E0,8.341997147E0,1.007839797E1
5.516527400E-2,-2.506729126E0,5.045780182E0,8.332420349E0,1.005846993E1
5.715829500E-2,-2.477998734E0,5.026626587E0,8.318055153E0,1.002983021E1
5.915131500E-2,-2.468421936E0,5.031414986E0,8.294113159E0,1.001002281E1
6.114433600E-2,-2.449268341E0,5.002684593E0,8.279747963E0,9.978977647E0
6.313735700E-2,-2.430114746E0,4.978742599E0,8.222287178E0,9.914602462E0
6.513037800E-2,-2.406172752E0,4.969165802E0,8.179191589E0,9.868204048E0
6.712339900E-2,-2.367865562E0,4.964377403E0,8.136096001E0,9.820788586E0
6.911642000E-2,-2.372653961E0,4.950012207E0,8.093000412E0,9.778996029E0
7.110944000E-2,-2.339135170E0,4.959589005E0,8.064270020E0,9.752001199E0
7.310246100E-2,-2.324769735E0,4.940435410E0,8.040328026E0,9.719019041E0
7.509548200E-2,-2.305616140E0,4.926070213E0,8.016386032E0,9.687335988E0
7.708850300E-2,-2.272097349E0,4.921281815E0,8.011597633E0,9.673010788E0
7.908152400E-2,-2.286462545E0,4.911705017E0,8.016386032E0,9.675494931E0
8.107454500E-2,-2.257732153E0,4.911705017E0,8.021174431E0,9.672716263E0
8.306756500E-2,-2.248155355E0,4.887762547E0,8.021174431E0,9.658346880E0
8.506058600E-2,-2.233790159E0,4.897339344E0,8.025962830E0,9.663841393E0
8.705360700E-2,-2.209848166E0,4.882974148E0,8.016386032E0,9.643096518E0
8.904662800E-2,-2.190694571E0,4.882974148E0,8.011597633E0,9.634743166E0
9.103964900E-2,-2.181117773E0,4.882974148E0,7.997232437E0,9.620625651E0
9.303267000E-2,-2.176329374E0,4.882974148E0,7.982867241E0,9.607601962E0
9.502569000E-2,-2.176329374E0,4.887762547E0,7.992444038E0,9.617993240E0
9.701871100E-2,-2.142810583E0,4.882974148E0,7.968502045E0,9.588122786E0
9.901173200E-2,-2.161964178E0,4.902127743E0,7.973290443E0,9.606159795E0
1.010047530E-1,-2.157175779E0,4.902127743E0,7.968502045E0,9.601108716E0
1.029977740E-1,-2.161964178E0,4.902127743E0,7.978078842E0,9.610134626E0
1.049907950E-1,-2.171540976E0,4.916493416E0,7.992444038E0,9.631545017E0
1.069838150E-1,-2.176329374E0,4.930858612E0,7.982867241E0,9.632027076E0
1.089768360E-1,-2.171540976E0,4.926070213E0,8.006809235E0,9.648354890E0
1.109698570E-1,-2.185906172E0,4.930858612E0,8.016386032E0,9.661987242E0
1.129628780E-1,-2.195482969E0,4.940435410E0,8.021174431E0,9.673018492E0
1.149558990E-1,-2.209848166E0,4.945223808E0,8.045116425E0,9.698585758E0
1.169489200E-1,-2.205059767E0,4.921281815E0,8.025962830E0,9.669404460E0
1.189419400E-1,-2.200271368E0,4.930858612E0,8.030751228E0,9.677165186E0
1.209349610E-1,-2.181117773E0,4.906916618E0,8.016386032E0,9.648707191E0
1.229279820E-1,-2.181117773E0,4.906916618E0,8.002020836E0,9.636775545E0
1.249210030E-1,-2.142810583E0,4.911705017E0,7.963713169E0,9.598812990E0
1.269140240E-1,-2.152387381E0,4.906916618E0,7.968502045E0,9.602480251E0
1.289070450E-1,-2.157175779E0,4.906916618E0,7.949347973E0,9.587667664E0
1.309000650E-1,-2.152387381E0,4.897339344E0,7.920617580E0,9.557870419E0
1.328930860E-1,-2.147598982E0,4.892550945E0,7.954136372E0,9.582145979E0
1.348861070E-1,-2.161964178E0,4.887762547E0,7.973290443E0,9.598837029E0
1.368791280E-1,-2.166752577E0,4.892550945E0,7.987655640E0,9.614286978E0
1.388721490E-1,-2.166752577E0,4.902127743E0,8.016386032E0,9.643034696E0
1.408651700E-1,-2.190694571E0,4.921281815E0,8.021174431E0,9.662163145E0
1.428581900E-1,-2.200271368E0,4.930858612E0,8.025962830E0,9.673191825E0
1.448512110E-1,-2.205059767E0,4.945223808E0,8.016386032E0,9.673674178E0
1.468442320E-1,-2.224213362E0,4.950012207E0,8.025962830E0,9.688437711E0
1.488372530E-1,-2.229001760E0,4.964377403E0,8.016386032E0,9.688959535E0
1.508302740E-1,-2.229001760E0,4.959589005E0,8.021174431E0,9.690470122E0
1.528232950E-1,-2.229001760E0,4.959589005E0,7.997232437E0,9.670661745E0
1.548163150E-1,-2.248155355E0,4.978742599E0,8.006809235E0,9.692836246E0
1.568093360E-1,-2.229001760E0,4.978742599E0,7.992444038E0,9.676543206E0
1.588023570E-1,-2.233790159E0,4.969165802E0,8.002020836E0,9.680638652E0
1.607953780E-1,-2.267308950E0,4.964377403E0,8.011597633E0,9.693886193E0
1.627883990E-1,-2.315192938E0,4.978742599E0,7.997232437E0,9.700707338E0
1.647814200E-1,-2.372653961E0,4.988319397E0,7.987655640E0,9.711614688E0
1.667744400E-1,-2.410961151E0,4.983530998E0,7.973290443E0,9.706785018E0
1.687674610E-1,-2.420537949E0,4.978742599E0,7.944559574E0,9.683124943E0
1.707604820E-1,-2.363077164E0,4.969165802E0,7.949347973E0,9.667930267E0
1.727535030E-1,-2.319981337E0,4.969165802E0,7.844003201E0,9.570961727E0
1.747465240E-1,-2.276885748E0,4.921281815E0,7.877521992E0,9.563397730E0
1.767395450E-1,-2.257732153E0,4.930858612E0,7.896675587E0,9.579572352E0
1.787325650E-1,-2.248155355E0,4.950012207E0,7.829638004E0,9.532054061E0
1.807255860E-1,-2.257732153E0,4.983530998E0,7.810484409E0,9.536068498E0
1.827186070E-1,-2.257732153E0,4.993107796E0,7.786542416E0,9.521487422E0
1.847116280E-1,-2.257732153E0,4.993107796E0,7.767388821E0,9.505830265E0
1.867044400E-1,-2.276885748E0,4.997896194E0,7.776965618E0,9.520733654E0
1.886972530E-1,-2.286462545E0,4.997896194E0,7.786542416E0,9.530850966E0
1.906900650E-1,-2.291250944E0,5.012261391E0,7.867945194E0,9.606099974E0
1.926828780E-1,-2.281674147E0,5.021838188E0,7.968502045E0,9.691332237E0
1.946756900E-1,-2.229001760E0,4.997896194E0,7.978078842E0,9.674562379E0
1.966685030E-1,-2.229001760E0,4.983530998E0,7.992444038E0,9.679007788E0
1.986613150E-1,-2.252943754E0,4.926070213E0,8.006809235E0,9.667001470E0
2.006541280E-1,-2.219424963E0,4.983530998E0,8.059481621E0,9.732249091E0
2.026469400E-1,-2.147598982E0,5.017049789E0,8.059481621E0,9.733355741E0
2.046397530E-1,-2.075772762E0,4.959589005E0,8.069058418E0,9.696187880E0
2.066325650E-1,-2.056619167E0,4.906916618E0,8.093000412E0,9.685255225E0
2.086253780E-1,-2.003946781E0,4.930858612E0,8.097788811E0,9.690374243E0
2.106181900E-1,-1.951274395E0,4.959589005E0,8.069058418E0,9.670299820E0
2.126110550E-1,-1.917755604E0,4.916493416E0,8.073846817E0,9.645553198E0
2.146039720E-1,-1.893813491E0,4.930858612E0,8.107365608E0,9.676222057E0
2.165969400E-1,-1.874659896E0,4.964377403E0,8.069058418E0,9.657592686E0
2.185899090E-1,-1.865083098E0,4.959589005E0,8.073846817E0,9.657280180E0
2.205828780E-1,-1.855506301E0,4.954800606E0,8.069058418E0,9.648971781E0
2.225758470E-1,-1.841141105E0,4.978742599E0,8.093000412E0,9.678550207E0
2.245688680E-1,-1.850717902E0,4.959589005E0,8.107365608E0,9.682564586E0
2.265619400E-1,-1.836352706E0,4.897339344E0,8.255805969E0,9.773149754E0
2.285550130E-1,-1.845929503E0,4.705204964E0,8.409633636E0,9.811643460E0
2.305480860E-1,-2.123656988E0,4.575918198E0,8.816647530E0,1.015786493E1
2.325411590E-1,-2.363077164E0,4.518456936E0,9.118317604E0,1.044721507E1
2.345342320E-1,-2.516305923E0,4.628590584E0,9.017760277E0,1.044392870E1
2.365273050E-1,-2.315192938E0,4.647744179E0,8.854954720E0,1.026508000E1
2.385203780E-1,-1.936909199E0,4.575918198E0,8.778340340E0,1.008711573E1
2.405134510E-1,-1.893813491E0,4.676474571E0,8.749609947E0,1.010008011E1
2.425065240E-1,-1.889025092E0,4.806359768E0,8.692149162E0,1.011053743E1
2.444995970E-1,-1.783081770E0,4.868608952E0,8.481459618E0,9.940718836E0
2.464926700E-1,-1.658583283E0,4.926070213E0,8.255805969E0,9.755787946E0
2.484857430E-1,-1.562815189E0,4.969165802E0,8.093000412E0,9.624534054E0
2.504788150E-1,-1.486200690E0,4.988319397E0,7.968502045E0,9.517833143E0
2.524717320E-1,-1.404797792E0,5.021838188E0,7.853579998E0,9.427143492E0
2.544646490E-1,-1.352125406E0,5.031414986E0,7.776965618E0,9.360799864E0
2.564575650E-1,-1.309029818E0,5.017049789E0,7.733870029E0,9.311127391E0
2.584504820E-1,-1.251568913E0,5.007472992E0,7.733870029E0,9.298061956E0
2.604433990E-1,-1.213261724E0,5.007472992E0,7.753023624E0,9.308929321E0
2.624363150E-1,-1.189319730E0,4.988319397E0,7.805696011E0,9.339523651E0
2.644292320E-1,-1.174954534E0,4.964377403E0,7.834426403E0,9.348999851E0
2.664221490E-1,-1.179742932E0,4.945223808E0,7.896675587E0,9.391725998E0
2.684151180E-1,-1.222838521E0,4.921281815E0,7.920617580E0,9.404814278E0
2.704080860E-1,-1.222838521E0,4.873397350E0,7.968502045E0,9.420316376E0
2.724011070E-1,-1.275510907E0,4.878185749E0,7.982867241E0,9.441916843E0
2.743941800E-1,-1.328183413E0,4.878185749E0,7.987655640E0,9.453222202E0
2.763872530E-1,-1.371279001E0,4.868608952E0,7.973290443E0,9.442304788E0
2.783803260E-1,-1.433528304E0,4.830301762E0,7.958924770E0,9.419729402E0
2.803733990E-1,-1.500565886E0,4.815936565E0,7.934982777E0,9.402600419E0
2.823664720E-1,-1.562815189E0,4.796782970E0,7.901463985E0,9.374681397E0
2.843595450E-1,-1.605910778E0,4.796782970E0,7.848791599E0,9.337644556E0
2.863526700E-1,-1.711255670E0,4.762665749E0,7.753023624E0,9.258550444E0
2.883457950E-1,-1.826775908E0,4.681262970E0,7.561487675E0,9.078955285E0
2.903389200E-1,-1.932120800E0,3.220201254E0,5.515642166E0,6.672712747E0
2.923320450E-1,-1.841141105E0,2.314594507E0,4.284423828E0,5.206096027E0
2.943252220E-1,-1.960851192E0,2.760514498E0,4.988319397E0,6.028988978E0
2.963183990E-1,-2.061407566E0,3.114856482E0,5.530007362E0,6.673283561E0
2.983115760E-1,-2.118868589E0,3.402160645E0,6.042366505E0,7.250827134E0
3.003047530E-1,-2.133233786E0,3.694851875E0,6.507440090E0,7.781349066E0
3.022979300E-1,-2.056619167E0,3.991732836E0,6.924031258E0,8.252625176E0
3.042911070E-1,-1.960851192E0,4.144961834E0,7.187393665E0,8.525507240E0
3.062842840E-1,-1.811812162E0,4.255095005E0,7.288548470E0,8.632000672E0
3.082774610E-1,-1.668160081E0,4.293402195E0,7.298125267E0,8.630103874E0
3.102706380E-1,-1.562815189E0,4.350862980E0,7.369951248E0,8.699918470E0
3.122638150E-1,-1.486200690E0,4.441842556E0,7.451354027E0,8.801217792E0
3.142569930E-1,-1.423951507E0,4.528033733E0,7.638102055E0,8.992848847E0
3.162501700E-1,-1.366490602E0,4.609436989E0,7.753023624E0,9.122695942E0
3.182433470E-1,-1.323395014E0,4.652532578E0,7.810484409E0,9.187007154E0
3.202365240E-1,-1.285087705E0,4.705204964E0,7.901463985E0,9.285662996E0
3.222297010E-1,-1.275510907E0,4.738723755E0,7.973290443E0,9.362467164E0
3.242227740E-1,-1.270722508E0,4.748300552E0,8.049904823E0,9.431970181E0
3.262158470E-1,-1.280299306E0,4.748300552E0,8.107365608E0,9.482346838E0
3.282089200E-1,-1.299453020E0,4.729146957E0,8.179191589E0,9.536906425E0
3.302019930E-1,-1.328183413E0,4.705204964E0,8.217498779E0,9.561919845E0
3.321950650E-1,-1.371279001E0,4.686051369E0,8.260594368E0,9.595671047E0
3.341881380E-1,-1.409586191E0,4.633378983E0,8.298901558E0,9.608688833E0
3.361812110E-1,-1.471835494E0,4.580706596E0,8.365939140E0,9.650808792E0
3.381740760E-1,-1.510142684E0,4.528033733E0,8.404845238E0,9.665663137E0
3.401669400E-1,-1.591545582E0,4.489726543E0,8.395268440E0,9.652522673E0
3.421598050E-1,-1.649006367E0,4.432265759E0,8.428787231E0,9.664815360E0
3.441526700E-1,-1.735197663E0,4.398746967E0,8.467094421E0,9.698019063E0
3.461455340E-1,-1.783081770E0,4.326920986E0,8.467094421E0,9.674363739E0
3.481383990E-1,-1.869871497E0,4.283825397E0,8.495824814E0,9.696732373E0
3.501312630E-1,-1.946485996E0,4.240729809E0,8.491036415E0,9.688668456E0
3.521241280E-1,-2.032677174E0,4.197634220E0,8.491036415E0,9.687600784E0
3.541169930E-1,-2.104503393E0,4.173692226E0,8.519766808E0,9.717770721E0
3.561098570E-1,-2.161964178E0,4.140173435E0,8.500613213E0,9.699255135E0
3.581027740E-1,-2.233790159E0,4.116231441E0,8.500613213E0,9.705338981E0
3.600957430E-1,-2.296039343E0,4.121019840E0,8.505401611E0,9.726071034E0
3.620887110E-1,-2.343923569E0,4.106654644E0,8.505401611E0,9.731415448E0
3.640816800E-1,-2.406172752E0,4.101866245E0,8.510190010E0,9.748759306E0
3.660746490E-1,-2.477998734E0,4.106654644E0,8.495824814E0,9.756235409E0
3.680676180E-1,-2.535459518E0,4.092289448E0,8.481459618E0,9.752463542E0
3.700605860E-1,-2.535459518E0,4.140173435E0,8.476671219E0,9.768497632E0
3.720535550E-1,-2.535459518E0,4.183269024E0,8.486248016E0,9.795136553E0
3.740465240E-1,-2.554613113E0,4.226364613E0,8.514978409E0,9.843427416E0
3.760394930E-1,-2.549824715E0,4.283825397E0,8.562862396E0,9.908348931E0
3.780324610E-1,-2.540247917E0,4.336497784E0,8.572439194E0,9.937041121E0
3.800254300E-1,-2.564189911E0,4.417900562E0,8.572439194E0,9.978959315E0
3.820183990E-1,-2.549824715E0,4.484938145E0,8.591592789E0,1.002156389E1
3.840113680E-1,-2.549824715E0,4.547187805E0,8.582015991E0,1.004139042E1
3.860043360E-1,-2.588132143E0,4.575918198E0,8.610746384E0,1.008872681E1
3.879973050E-1,-2.612074137E0,4.619013786E0,8.567650795E0,1.007784004E1
3.899902740E-1,-2.602497339E0,4.695628166E0,8.553285599E0,1.009854498E1
3.919832430E-1,-2.602497339E0,4.714781761E0,8.543708801E0,1.009936233E1
3.939762110E-1,-2.592920542E0,4.738723755E0,8.524555206E0,1.009191663E1
3.959692320E-1,-2.573766708E0,4.767454147E0,8.519766808E0,1.009650041E1
3.979623050E-1,-2.568978310E0,4.787206173E0,8.519766808E0,1.010462364E1
3.999553780E-1,-2.545036316E0,4.811148167E0,8.538920403E0,1.012608109E1
4.019484510E-1,-2.497152328E0,4.806359768E0,8.553285599E0,1.012400901E1
4.039415240E-1,-2.454056740E0,4.796782970E0,8.586804390E0,1.013729407E1
4.059345970E-1,-2.387019157E0,4.772840977E0,8.644265175E0,1.015879874E1
4.079276700E-1,-2.310404539E0,4.767454147E0,8.706514359E0,1.019166230E1
4.099207430E-1,-2.224213362E0,4.743512154E0,8.778340340E0,1.022288080E1
4.119138150E-1,-2.090138197E0,4.695628166E0,8.859743118E0,1.024268762E1
4.139068880E-1,-1.975216389E0,4.647744179E0,8.950722694E0,1.027708336E1
4.158999610E-1,-1.860294700E0,4.595071793E0,9.051279068E0,1.031993381E1
4.178930340E-1,-1.730409265E0,4.528033733E0,9.147047997E0,1.035209606E1
4.198861070E-1,-1.629852772E0,4.475361347E0,9.233239174E0,1.038932071E1
4.218791800E-1,-1.524507880E0,4.427477360E0,9.324218750E0,1.043397026E1
4.238722530E-1,-1.428739905E0,4.360439777E0,9.405621529E0,1.046520182E1
4.258653260E-1,-1.356913805E0,4.331709385E0,9.477447510E0,1.050842198E1
4.278583990E-1,-1.313818216E0,4.283825397E0,9.559449196E0,1.055747826E1
4.298514200E-1,-1.232415318E0,4.245518208E0,9.588179588E0,1.055824134E1
4.318444400E-1,-1.179742932E0,4.188057423E0,9.660005569E0,1.059468385E1
4.338374610E-1,-1.160589218E0,4.168903828E0,9.712677956E0,1.063310112E1
4.358304820E-1,-1.155800819E0,4.144961834E0,9.750985146E0,1.065825011E1
4.378235030E-1,-1.155800819E0,4.130596638E0,9.779715538E0,1.067897655E1
4.398165240E-1,-1.184531331E0,4.125808239E0,9.779715538E0,1.068027360E1
4.418095450E-1,-1.232415318E0,4.116231441E0,9.789292336E0,1.069076486E1
4.438025650E-1,-1.280299306E0,4.111443043E0,9.779715538E0,1.068578337E1
4.457955860E-1,-1.337760210E0,4.116231441E0,9.784503937E0,1.069904112E1
4.477886070E-1,-1.438316703E0,4.149750233E0,9.760561943E0,1.070316548E1
4.497816800E-1,-1.519719481E0,4.149750233E0,9.736619949E0,1.069260222E1
4.517748050E-1,-1.610699177E0,4.168903828E0,9.712677956E0,1.069159595E1
4.537679300E-1,-1.716044068E0,4.207211018E0,9.650428772E0,1.066659305E1
4.557610550E-1,-1.807023764E0,4.226364613E0,9.616909981E0,1.065891412E1
4.577541800E-1,-1.932120800E0,4.255095005E0,9.549872398E0,1.063197945E1
4.597473570E-1,-2.090138197E0,4.279036999E0,9.443928719E0,1.057670199E1
4.617405860E-1,-2.612074137E0,4.341286182E0,9.003395081E0,1.033106093E1
4.637338680E-1,-3.077147722E0,4.393958569E0,8.481459618E0,1.003548042E1
4.657271490E-1,-3.670909643E0,4.475361347E0,7.791330814E0,9.706146128E0
4.677204300E-1,-4.519055843E0,4.556764603E0,6.861782074E0,9.395212749E0
4.697137110E-1,-5.692812920E0,4.657320976E0,5.683236122E0,9.295048705E0
4.717069930E-1,-6.991068840E0,4.767454147E0,4.428076267E0,9.550472344E0
4.737002740E-1,-8.251017570E0,4.815936565E0,3.249530315E0,1.009118344E1
4.756933470E-1,-9.463082314E0,4.844666958E0,2.229001760E0,1.086228216E1
4.776864200E-1,-1.045488071E1,4.835090160E0,1.481412292E0,1.161366480E1
4.796794930E-1,-1.108754826E1,4.835090160E0,1.232415318E0,1.215856368E1
4.816725650E-1,-1.119289303E1,4.863820553E0,1.510142684E0,1.229707834E1
4.836656380E-1,-1.075654984E1,4.950012207E0,2.248155355E0,1.205239344E1
4.856587110E-1,-9.923367500E0,5.084087372E0,3.196857929E0,1.159918392E1
4.876517840E-1,-8.898050308E0,5.246892929E0,4.126406670E0,1.112350739E1
4.896448570E-1,-7.848791599E0,5.433640957E0,4.830301762E0,1.069858863E1
4.916378780E-1,-6.861782074E0,5.610811710E0,5.271433830E0,1.031277246E1
4.936308990E-1,-6.032789707E0,5.759252071E0,5.400720596E0,9.936363471E0
4.956239200E-1,-5.343259811E0,5.893926144E0,5.371990204E0,9.599326515E0
4.976169400E-1,-4.782417774E0,6.013636112E0,5.233126163E0,9.296286812E0
4.996099610E-1,-4.298789024E0,6.099827290E0,5.070320606E0,9.021952731E0
5.016029820E-1,-3.876811028E0,6.181230068E0,5.007472992E0,8.849409848E0
5.035959510E-1,-3.517680883E0,6.286575317E0,5.022436619E0,8.781798085E0
5.055889200E-1,-3.206434727E0,6.358401299E0,5.204395771E0,8.820216895E0
5.075818880E-1,-2.938283920E0,6.391920090E0,5.467758179E0,8.909912139E0
5.095748570E-1,-2.746149302E0,6.406285286E0,5.783792973E0,9.057267154E0
5.115678260E-1,-2.564189911E0,6.391920090E0,6.099827290E0,9.199978549E0
5.135607950E-1,-2.506729126E0,6.329670906E0,6.406883717E0,9.348613996E0
5.155537630E-1,-2.477998734E0,6.257844925E0,6.694188118E0,9.492800187E0
5.175467320E-1,-2.454056740E0,6.166864872E0,6.933608055E0,9.598309096E0
5.195397010E-1,-2.473210335E0,6.042366505E0,7.134721279E0,9.671153502E0
5.215326700E-1,-2.535459518E0,5.893926144E0,7.312490463E0,9.728280276E0
5.235256380E-1,-2.588132143E0,5.744886875E0,7.451354027E0,9.758321066E0
5.255186070E-1,-2.669534922E0,5.562927723E0,7.571064472E0,9.766964666E0
5.275115760E-1,-2.765302896E0,5.366602898E0,7.690774441E0,9.777286856E0
5.295045450E-1,-2.885013103E0,5.165490150E0,7.820061207E0,9.806066815E0
5.314975130E-1,-3.014898539E0,4.954800606E0,7.987655640E0,9.871286890E0
5.334904820E-1,-3.182492495E0,4.738723755E0,8.188768387E0,9.981968193E0
5.354835030E-1,-3.364451885E0,4.547187805E0,8.390480042E0,1.011912095E1
5.374765760E-1,-3.522469282E0,4.355651379E0,8.653841972E0,1.030865994E1
5.394697010E-1,-3.632602453E0,4.173692226E0,8.869319916E0,1.045372389E1
5.414628260E-1,-3.742735863E0,4.020462990E0,9.084798813E0,1.061629709E1
5.434559510E-1,-3.771466255E0,3.857657433E0,9.300276756E0,1.075177317E1
5.454490760E-1,-3.781043053E0,3.714005470E0,9.516353607E0,1.089270899E1
5.474422010E-1,-3.747524261E0,3.588908434E0,9.655217171E0,1.096117788E1
5.494353260E-1,-3.646967649E0,3.459621429E0,9.760561943E0,1.097897641E1
5.514284510E-1,-3.488950491E0,3.373430252E0,9.798869133E0,1.093483623E1
5.534215760E-1,-3.306991100E0,3.301604033E0,9.822811127E0,1.087770186E1
5.554147010E-1,-3.043628931E0,3.282450438E0,9.837176323E0,1.080778404E1
5.574078260E-1,-2.784456491E0,3.301604033E0,9.865906715E0,1.076986084E1
5.594009510E-1,-2.501940727E0,3.339911461E0,9.870695114E0,1.071659172E1
5.613940760E-1,-2.209848166E0,3.363853455E0,9.885060310E0,1.067302002E1
5.633872010E-1,-1.932120800E0,3.435679436E0,9.909002304E0,1.066420699E1
5.653803260E-1,-1.672948480E0,3.502717018E0,9.899425507E0,1.063326895E1
5.673734510E-1,-1.414374709E0,3.588908434E0,9.909002304E0,1.063339298E1
5.693665760E-1,-1.170166135E0,3.661332846E0,9.885060310E0,1.060608619E1
5.713597010E-1,-9.642647505E-1,3.742735863E0,9.885060310E0,1.061377857E1
5.733528260E-1,-7.392097712E-1,3.828927040E0,9.913790703E0,1.065318541E1
5.753459510E-1,-5.710170865E-1,3.895964622E0,9.923367500E0,1.067603969E1
5.773390760E-1,-4.465186298E-1,3.972579241E0,9.899425507E0,1.067611306E1
5.793322010E-1,-3.411737382E-1,4.049193859E0,9.956886292E0,1.075415990E1
5.813253260E-1,-2.885012925E-1,4.432265759E0,1.117852783E1,1.202861992E1
5.833184510E-1,-6.141127348E-1,4.930858612E0,1.201230812E1,1.299946335E1
5.853115760E-1,-1.012148738E0,5.275623322E0,1.227088261E1,1.339519341E1
5.873047010E-1,-1.112705231E0,5.385756493E0,1.149935055E1,1.274674660E1
5.892977220E-1,-1.098340034E0,5.270834923E0,1.014363384E1,1.148396095E1
5.912906900E-1,-1.021725535E0,4.988319397E0,8.787917137E0,1.015651225E1
5.932836070E-1,-1.045667648E0,4.384381771E0,7.408258438E0,8.671707873E0
5.952765240E-1,-1.088763237E0,3.867234230E0,6.526593685E0,7.664028386E0
5.972694400E-1,-1.213261724E0,3.704428673E0,6.349422932E0,7.450501149E0
5.992623570E-1,-1.414374709E0,3.785831451E0,6.574477673E0,7.717300841E0
6.012552740E-1,-1.629852772E0,3.977367640E0,6.924031258E0,8.149728968E0
6.032481900E-1,-1.773504853E0,4.207211018E0,7.264606476E0,8.580236084E0
6.052411070E-1,-1.831564307E0,4.403535366E0,7.470507622E0,8.863082740E0
6.072340240E-1,-1.893813491E0,4.571129799E0,7.537545681E0,9.016448972E0
6.092269400E-1,-1.927332401E0,4.652532578E0,7.523180485E0,9.053116269E0
6.112199090E-1,-1.989581585E0,4.681262970E0,7.465719223E0,9.033804370E0
6.132129300E-1,-2.090138197E0,4.753088951E0,7.417835236E0,9.054546474E0
6.152060030E-1,-2.229001760E0,4.806359768E0,7.350797653E0,9.061113022E0
6.171991280E-1,-2.387019157E0,4.849455357E0,7.278971672E0,9.066339190E0
6.191923050E-1,-2.573766708E0,4.878185749E0,7.182605267E0,9.055980879E0
6.211855340E-1,-2.750937700E0,4.964377403E0,7.034164429E0,9.038372112E0
6.231787630E-1,-2.913743496E0,4.993107796E0,6.828263283E0,8.946854535E0
6.251719930E-1,-3.081936121E0,5.007472992E0,6.588842869E0,8.830966333E0
6.271652220E-1,-3.206434727E0,5.031414986E0,6.378153324E0,8.733681941E0
6.291584510E-1,-3.388393879E0,5.064933777E0,6.200982571E0,8.694075689E0
6.311516800E-1,-3.555988073E0,5.098452568E0,6.047154903E0,8.672217259E0
6.331446490E-1,-3.737947464E0,5.108029366E0,5.975328922E0,8.704525890E0
6.351376180E-1,-3.718793869E0,5.108029366E0,6.809109688E0,9.288991688E0
6.371305340E-1,-3.728370667E0,5.012261391E0,8.524555206E0,1.056842247E1
6.391234510E-1,-3.608660460E0,4.777629375E0,9.602544785E0,1.131622901E1
6.411163680E-1,-3.397970676E0,4.825513363E0,8.874108315E0,1.065746604E1
6.431092840E-1,-2.995744944E0,5.237316132E0,7.590218067E0,9.696152760E0
6.451022010E-1,-2.482787132E0,5.663484097E0,6.746860504E0,9.152016757E0
6.470951180E-1,-1.922544003E0,5.913079739E0,6.387730122E0,8.914246101E0
6.490880340E-1,-1.352125406E0,6.018424511E0,6.311115742E0,8.824956579E0
6.510809510E-1,-1.055244446E0,6.008847713E0,6.296750546E0,8.767488758E0
6.530738680E-1,-1.107916832E0,5.989694118E0,6.344634533E0,8.795356883E0
6.550667840E-1,-1.270722508E0,5.903502941E0,6.459556103E0,8.842621088E0
6.570597010E-1,-1.495777488E0,5.711368084E0,6.607996464E0,8.861303118E0
6.590526180E-1,-1.735197663E0,5.495890141E0,6.852205276E0,8.953682847E0
6.610455340E-1,-2.013523579E0,5.222950935E0,7.062894821E0,9.012101693E0
6.630384510E-1,-2.267308950E0,4.988319397E0,7.163451672E0,9.018817003E0
6.650313680E-1,-2.525882721E0,4.801571369E0,7.206547260E0,9.020504118E0
6.670242840E-1,-2.698265314E0,4.729146957E0,7.115567684E0,8.959730471E0
6.690172010E-1,-2.851494312E0,4.743512154E0,6.947973251E0,8.882919546E0
6.710101700E-1,-2.947860956E0,4.753088951E0,6.823474884E0,8.822785744E0
6.730031380E-1,-3.072359324E0,4.681262970E0,6.780379295E0,8.793586197E0
6.749961070E-1,-3.125031710E0,4.604648590E0,6.842628479E0,8.819873941E0
6.769891280E-1,-3.158550501E0,4.523245335E0,6.900089264E0,8.834445171E0
6.789822010E-1,-3.201646328E0,4.441842556E0,6.943184853E0,8.842415982E0
6.809752740E-1,-3.239953518E0,4.322132587E0,7.038952827E0,8.872710173E0
6.829683470E-1,-3.268683910E0,4.250306606E0,7.096413612E0,8.894295189E0
6.849614720E-1,-3.273472309E0,4.231153011E0,7.129932880E0,8.913709645E0
6.869545970E-1,-3.297414303E0,4.269460201E0,7.048529625E0,8.875978896E0
6.889477220E-1,-3.335721493E0,4.326920986E0,6.933608055E0,8.827468706E0
6.909408470E-1,-3.350086689E0,4.384381771E0,6.809109688E0,8.764123406E0
6.929339720E-1,-3.350086689E0,4.427477360E0,6.722918510E0,8.719132405E0
6.949270970E-1,-3.335721493E0,4.451419353E0,6.665457726E0,8.681618445E0
6.969202220E-1,-3.302202702E0,4.446630955E0,6.569689274E0,8.592897456E0
6.989133470E-1,-3.292625904E0,4.441842556E0,6.536170483E0,8.561125815E0
7.009064720E-1,-3.393182278E0,4.470572948E0,6.411672115E0,8.521106018E0
7.028995970E-1,-3.776254654E0,4.508880138E0,6.133346081E0,8.497531021E0
7.048927220E-1,-4.150348663E0,4.528033733E0,5.869984150E0,8.496187229E0
7.068858470E-1,-4.442441463E0,4.566341400E0,5.731120110E0,8.569276378E0
7.088789720E-1,-4.643554211E0,4.528033733E0,5.759850502E0,8.674189472E0
7.108720970E-1,-4.758475780E0,4.528033733E0,5.774216175E0,8.745727739E0
7.128652220E-1,-4.854243755E0,4.508880138E0,5.855618954E0,8.842056088E0
7.148583470E-1,-4.916493416E0,4.532822132E0,5.946598530E0,8.948766287E0
7.168514720E-1,-4.978742599E0,4.571129799E0,6.061520100E0,9.078828748E0
7.188445970E-1,-5.036203384E0,4.662109375E0,6.138733387E0,9.207749777E0
7.208377220E-1,-5.060145378E0,4.787206173E0,6.205770969E0,9.329201869E0
7.228308470E-1,-5.098452568E0,4.935647011E0,6.205770969E0,9.426898924E0
7.248238150E-1,-5.103240967E0,5.050568581E0,6.196194172E0,9.483888104E0
7.268167840E-1,-5.098452568E0,5.160701752E0,6.181828976E0,9.531110672E0
7.288097530E-1,-5.131971359E0,5.261258125E0,6.123769283E0,9.566531102E0
7.308027220E-1,-5.103240967E0,5.294776917E0,6.143521786E0,9.582306136E0
7.327956900E-1,-5.093664169E0,5.328295708E0,6.181828976E0,9.620351309E0
7.347887110E-1,-5.213972569E0,5.366602898E0,6.066308498E0,9.632550825E0
7.367817840E-1,-5.271433830E0,5.328295708E0,6.143521786E0,9.691316201E0
7.387749090E-1,-5.261856556E0,5.266046524E0,6.315904140E0,9.762634149E0
7.407680860E-1,-5.257068157E0,5.175066948E0,6.469132900E0,9.811613731E0
7.427612630E-1,-5.271433830E0,5.108029366E0,6.497863293E0,9.803173262E0
7.447544400E-1,-5.290587425E0,5.026626587E0,6.531382084E0,9.793683785E0
7.467476180E-1,-5.290587425E0,4.959589005E0,6.545747280E0,9.769065762E0
7.487407950E-1,-5.371990204E0,4.916493416E0,6.493074894E0,9.756546922E0
7.507339720E-1,-5.424662590E0,4.854243755E0,6.406883717E0,9.697360755E0
7.527271490E-1,-5.424662590E0,4.835090160E0,6.363788128E0,9.659340578E0
7.547203260E-1,-5.443816185E0,4.777629375E0,6.234501362E0,9.556667010E0
7.567135030E-1,-5.419874191E0,4.724358559E0,6.138733387E0,9.454028117E0
7.587066800E-1,-5.419874191E0,4.642955780E0,6.042366505E0,9.351057031E0
7.606998570E-1,-5.462969780E0,4.599860191E0,5.956175327E0,9.299396600E0
7.626930340E-1,-5.525218964E0,4.590283394E0,5.846042156E0,9.261476941E0
7.646862110E-1,-5.644928932E0,4.556764603E0,5.726331711E0,9.242304970E0
7.666793880E-1,-5.726331711E0,4.537611008E0,5.654505730E0,9.238734955E0
7.686725650E-1,-5.683236122E0,4.528033733E0,5.635352135E0,9.195621566E0
7.706657430E-1,-5.635352135E0,4.523245335E0,5.606621742E0,9.146100229E0
7.726589200E-1,-5.606621742E0,4.484938145E0,5.582679749E0,9.094789206E0
7.746520970E-1,-6.315904140E0,4.585494995E0,4.753687382E0,9.138651607E0
7.766452740E-1,-7.724293232E0,4.863820553E0,3.925293684E0,9.936266241E0
7.786384510E-1,-9.199720383E0,5.088875771E0,3.862445831E0,1.120044640E1
7.806316280E-1,-1.011969185E1,5.151124954E0,3.867234230E0,1.199573891E1
7.826248050E-1,-1.012926865E1,5.026626587E0,3.876811028E0,1.195402534E1
7.846179820E-1,-9.558850288E0,4.820724964E0,3.752312660E0,1.134419932E1
7.866111590E-1,-8.955511093E0,4.662109375E0,3.646967649E0,1.073484121E1
7.886041800E-1,-8.533533096E0,4.590283394E0,3.642179251E0,1.035168385E1
7.905970450E-1,-8.251017570E0,4.575918198E0,3.771466255E0,1.016082064E1
7.925899090E-1,-8.064270020E0,4.604648590E0,3.881599426E0,1.006489214E1
7.945827740E-1,-7.906252384E0,4.652532578E0,3.958812475E0,9.991350377E0
7.965756380E-1,-7.709928036E0,4.705204964E0,3.934870481E0,9.852164725E0
7.985685030E-1,-7.532757282E0,4.811148167E0,3.785831451E0,9.706806825E0
8.005613680E-1,-7.374141216E0,4.959589005E0,3.436278105E0,9.528036995E0
8.025542320E-1,-7.153874874E0,5.031414986E0,3.105878115E0,9.281139011E0
8.045470970E-1,-7.187393665E0,5.040991783E0,2.794631958E0,9.213044754E0
8.065399610E-1,-7.383718014E0,4.959589005E0,2.664746523E0,9.285348073E0
8.085328260E-1,-7.556699276E0,4.835090160E0,2.880823135E0,9.422363968E0
8.105256900E-1,-7.729081631E0,4.709993362E0,3.306991100E0,9.636333871E0
8.125185550E-1,-7.834426403E0,4.585494995E0,3.680486679E0,9.795457295E0
8.145114720E-1,-7.872733593E0,4.451419353E0,3.930082083E0,9.861065544E0
8.165044400E-1,-7.776965618E0,4.331709385E0,4.107253075E0,9.803796624E0
8.184974610E-1,-7.642890453E0,4.183269024E0,4.313154221E0,9.721975804E0
8.204905340E-1,-7.489661694E0,4.030039787E0,4.614823818E0,9.676406970E0
8.224836590E-1,-7.340622425E0,3.857657433E0,4.978742599E0,9.672338721E0
8.244768360E-1,-7.153874874E0,3.666121244E0,5.343259811E0,9.652398464E0
8.264700650E-1,-7.024587631E0,3.526659012E0,5.659294128E0,9.685544136E0
8.284632950E-1,-6.928819656E0,3.383007050E0,5.922656536E0,9.722712532E0
8.304565240E-1,-6.866570473E0,3.258508444E0,6.061520100E0,9.721609602E0
8.324497530E-1,-7.115567684E0,3.148375273E0,6.090250492E0,9.881028357E0
8.344429820E-1,-7.891887188E0,3.076549292E0,6.186617374E0,1.048910261E1
8.364362110E-1,-8.389881134E0,2.956839085E0,6.363788128E0,1.093758667E1
8.384294400E-1,-8.821435928E0,2.913743496E0,6.631938934E0,1.141447533E1
8.404225650E-1,-9.147047997E0,2.861071110E0,6.986280441E0,1.186011506E1
8.424156380E-1,-9.305065155E0,2.789244890E0,7.336432457E0,1.217322331E1
8.444086590E-1,-9.419986725E0,2.736572504E0,7.638102055E0,1.243244071E1
8.464016800E-1,-9.472659111E0,2.683900118E0,7.848791599E0,1.259119216E1
8.483947010E-1,-9.487024307E0,2.645592928E0,8.011597633E0,1.269600287E1
8.503877220E-1,-9.487024307E0,2.597708941E0,8.107365608E0,1.274680741E1
8.523807430E-1,-9.410409927E0,2.583343744E0,8.116942406E0,1.269307819E1
8.543737630E-1,-9.300276756E0,2.520495892E0,8.025962830E0,1.254049946E1
8.563667840E-1,-9.204508781E0,2.535459518E0,7.867945194E0,1.237158431E1
8.583598050E-1,-9.118317604E0,2.573766708E0,7.633313656E0,1.216698271E1
8.603528260E-1,-9.070432663E0,2.573766708E0,7.403470039E0,1.198784353E1
8.623458470E-1,-8.442553520E0,1.850119352E0,8.313266754E0,1.199208304E1
8.643388680E-1,-8.136096001E0,1.332373261E0,8.534132004E0,1.186603075E1
8.663318880E-1,-8.504802704E0,1.577180386E0,7.805696011E0,1.165109682E1
8.683249090E-1,-9.003395081E0,1.979406238E0,6.924031258E0,1.152915352E1
8.703179300E-1,-9.453505516E0,2.410362482E0,5.946598530E0,1.142543863E1
8.723109510E-1,-9.770138741E0,2.760514498E0,5.103839397E0,1.136332821E1
8.743039720E-1,-9.952097893E0,3.014299870E0,4.480748653E0,1.132286910E1
8.762969930E-1,-1.000955868E1,3.224989653E0,3.997119665E0,1.125027950E1
8.782900130E-1,-9.995193481E0,3.421314240E0,3.685275078E0,1.118885768E1
8.802830340E-1,-9.909002304E0,3.564966440E0,3.565564871E0,1.111802884E1
8.822760550E-1,-9.856329918E0,3.714005470E0,3.436278105E0,1.107921853E1
8.842690760E-1,-9.774927139E0,3.833715439E0,3.340509892E0,1.101842008E1
8.862620970E-1,-9.707889557E0,3.934272051E0,3.249530315E0,1.096727238E1
8.882551180E-1,-9.611522675E0,3.977367640E0,3.230376720E0,1.089202255E1
8.902481380E-1,-9.525331497E0,4.020462990E0,3.316567898E0,1.085797796E1
8.922411590E-1,-9.443928719E0,4.058770657E0,3.436278105E0,1.083833087E1
8.942341800E-1,-9.405621529E0,4.068347454E0,3.570353270E0,1.085193945E1
8.962272010E-1,-9.391256332E0,4.106654644E0,3.699640274E0,1.089713935E1
8.982202220E-1,-9.429563522E0,4.121019840E0,3.785831451E0,1.096503500E1
9.002132430E-1,-9.482235909E0,4.144961834E0,3.852869034E0,1.104255886E1
9.022062630E-1,-9.558850288E0,4.154538631E0,3.906140089E0,1.113057683E1
9.041992840E-1,-9.621099472E0,4.154538631E0,3.915716887E0,1.118742978E1
9.061923050E-1,-9.736619949E0,4.144961834E0,3.915716887E0,1.128340885E1
9.081853260E-1,-9.832387924E0,4.140173435E0,3.925293684E0,1.136770948E1
9.101783470E-1,-9.889848709E0,4.077924252E0,3.925293684E0,1.139502103E1
9.121713680E-1,-9.932944298E0,4.025251389E0,3.920505285E0,1.141211606E1
9.141643880E-1,-9.956886292E0,3.953425646E0,3.954024076E0,1.141943367E1
9.161574090E-1,-9.971251488E0,3.862445831E0,3.982754469E0,1.141081405E1
9.181504300E-1,-9.966463089E0,3.800196648E0,4.059369087E0,1.141272791E1
9.201434510E-1,-9.932944298E0,3.723582268E0,4.121618271E0,1.138051776E1
9.221364720E-1,-9.928155899E0,3.632004023E0,4.188655853E0,1.137121676E1
9.241294930E-1,-9.942521095E0,3.574543238E0,4.270058632E0,1.139581001E1
9.261225130E-1,-9.904213905E0,3.526659012E0,4.413711071E0,1.140226391E1
9.281155340E-1,-9.861118317E0,3.512293816E0,4.418499470E0,1.136226209E1
9.301085550E-1,-9.698312759E0,3.406949043E0,4.404133797E0,1.118306607E1
9.321015760E-1,-9.424775124E0,3.325546265E0,4.413711071E0,1.092549722E1
9.340945970E-1,-8.960299492E0,3.426102638E0,4.509479046E0,1.060002583E1
9.360876180E-1,-8.150461197E0,3.579331636E0,4.514267445E0,9.980994101E0
9.380806380E-1,-7.489661694E0,3.426102638E0,4.183867455E0,9.237854645E0
9.400736590E-1,-7.105990410E0,3.349488258E0,3.920505285E0,8.779779780E0
9.420666800E-1,-6.967126846E0,3.430891037E0,4.159925461E0,8.810042545E0
9.440597010E-1,-6.660669327E0,3.507505417E0,5.012859821E0,9.044107127E0
9.460527220E-1,-5.951386929E0,3.982156038E0,6.032789707E0,9.363286001E0
9.480457430E-1,-4.581305027E0,5.462371349E0,7.834426403E0,1.059264337E1
9.500388150E-1,-4.983530998E0,5.285200119E0,7.647678852E0,1.054779187E1
9.520319400E-1,-5.467758179E0,5.151124954E0,7.317278862E0,1.048680303E1
9.540250650E-1,-5.812523365E0,5.127182961E0,7.010222435E0,1.045067709E1
9.560181900E-1,-5.917868137E0,5.098452568E0,6.670246124E0,1.027168756E1
9.580113150E-1,-5.807734966E0,5.055356979E0,6.387730122E0,1.000447479E1
9.600044400E-1,-5.592256546E0,5.012261391E0,6.200982571E0,9.739008285E0
9.619975650E-1,-5.266644955E0,5.002684593E0,6.128557682E0,9.503874025E0
9.639906900E-1,-4.935647011E0,5.079298973E0,6.075885296E0,9.331466744E0
9.659838150E-1,-4.724956989E0,5.194220543E0,6.104615688E0,9.304379523E0
9.679769400E-1,-4.657919407E0,5.285200119E0,5.989694118E0,9.246944854E0
9.699700650E-1,-4.480748653E0,5.352237701E0,5.884349346E0,9.129574149E0
9.719631900E-1,-4.015674591E0,5.505466938E0,5.946598530E0,9.044215980E0
9.739563150E-1,-2.415749550E0,5.888539314E0,6.397306919E0,9.024205060E0
9.759494400E-1,-2.573766708E0,5.937021732E0,6.277596951E0,9.015582377E0
9.779425650E-1,-2.875436306E0,5.898714542E0,6.123769283E0,8.975718213E0
9.799356900E-1,-3.254318714E0,5.802347660E0,5.922656536E0,8.907058387E0
9.819288150E-1,-3.776254654E0,5.701791286E0,5.740696907E0,8.928948654E0
9.839219400E-1,-4.456806660E0,5.653907299E0,5.592256546E0,9.116091631E0
9.859150650E-1,-5.271433830E0,5.802347660E0,5.525218964E0,9.590792334E0
9.879081900E-1,-6.190806866E0,6.104615688E0,5.616198540E0,1.035056078E1
9.899013150E-1,-7.058106422E0,6.449380875E0,5.884349346E0,1.122661780E1
9.918944400E-1,-7.810484409E0,6.894702435E0,6.521805286E0,1.229123804E1
9.938875650E-1,-7.283161640E0,6.698377609E0,6.746860504E0,1.197634472E1
9.958806900E-1,-7.038952827E0,6.573879242E0,6.938396454E0,1.187030288E1
9.978738150E-1,-6.880935669E0,6.468534470E0,7.086836815E0,1.180730579E1
9.998669400E-1,-6.746860504E0,6.396708488E0,7.096413612E0,1.169602891E1
1.001860065E0,-6.598419666E0,6.300940514E0,6.991068840E0,1.149417404E1
1.003853190E0,-6.373364925E0,6.224325657E0,6.852205276E0,1.123898249E1
1.005846315E0,-6.090250492E0,6.166864872E0,6.694188118E0,1.095141671E1
1.007839440E0,-5.774216175E0,6.109404087E0,6.593631268E0,1.068374298E1
1.009832565E0,-5.472546577E0,6.071096897E0,6.497863293E0,1.044170537E1
1.011825690E0,-5.199607372E0,6.051943302E0,6.449979305E0,1.025983273E1
1.013818815E0,-4.911705017E0,6.085462093E0,6.402095318E0,1.010665719E1
1.015811940E0,-4.629189014E0,6.123769283E0,6.368576527E0,9.974402646E0
1.017805065E0,-4.389768600E0,6.200383663E0,6.363788128E0,9.910228316E0
1.019798190E0,-4.155137062E0,6.233902454E0,6.339846134E0,9.814293292E0
1.021791315E0,-3.991732836E0,6.291363716E0,6.363788128E0,9.798621728E0
1.023784440E0,-3.848080635E0,6.367978096E0,6.368576527E0,9.793754979E0
1.025777513E0,-3.694851875E0,6.396708488E0,6.325480938E0,9.725303027E0
1.027770482E0,-3.532046080E0,6.406285286E0,6.272808552E0,9.636595239E0
1.029763451E0,-3.259107113E0,6.358401299E0,6.071096897E0,9.375994016E0
1.031756420E0,-3.316567898E0,6.382343292E0,5.793369770E0,9.235640845E0
1.033749388E0,-3.718793869E0,6.487688065E0,5.683236122E0,9.392480880E0
1.035742357E0,-4.068945885E0,6.602609634E0,5.678447723E0,9.612260044E0
1.037735326E0,-4.250905037E0,6.621763229E0,5.826888561E0,9.791351909E0
1.039728295E0,-4.303577423E0,6.650493622E0,6.004059315E0,9.939747095E0
1.041721263E0,-4.365826607E0,6.631340027E0,6.114192486E0,1.002090127E1
1.043714232E0,-4.437653065E0,6.631340027E0,6.186617374E0,1.009661675E1
1.045707201E0,-4.471171856E0,6.626551628E0,6.148310184E0,1.008485411E1
1.047700170E0,-4.471171856E0,6.650493622E0,6.056731701E0,1.004512031E1
1.049693138E0,-4.485537052E0,6.660070419E0,5.965752125E0,1.000333840E1
1.051686107E0,-4.514267445E0,6.698377609E0,5.869984150E0,9.985168355E0
1.053679076E0,-4.519055843E0,6.736684799E0,5.826888561E0,9.987863541E0
1.055672045E0,-4.461595058E0,6.770204067E0,5.802946568E0,9.970741319E0
1.057665013E0,-4.418499470E0,6.794146061E0,5.774216175E0,9.951137156E0
1.059657982E0,-4.389768600E0,6.837241650E0,5.798158169E0,9.981812455E0
1.061650951E0,-4.279635429E0,6.856395245E0,5.855618954E0,9.980666736E0
1.063643920E0,-4.188655853E0,6.865972042E0,5.937021732E0,9.996731315E0
1.065636888E0,-4.083311081E0,6.842030048E0,5.956175327E0,9.948006287E0
1.067629857E0,-4.010886192E0,6.794146061E0,5.984905720E0,9.902864496E0
1.069622826E0,-3.915118217E0,6.722319603E0,5.975328922E0,9.809295960E0
1.071615847E0,-3.814561844E0,6.626551628E0,5.889137745E0,9.651114543E0
1.073608920E0,-3.714005470E0,6.516418457E0,5.755062103E0,9.454008988E0
1.075602045E0,-3.599083662E0,6.411073685E0,5.587468147E0,9.234450135E0
1.077595170E0,-3.541622877E0,6.291363716E0,5.391143799E0,9.010481756E0
1.079588295E0,-3.455431700E0,6.190806866E0,5.209184170E0,8.797823458E0
1.081581420E0,-3.407547474E0,6.075885296E0,5.032013416E0,8.593539488E0
1.083574545E0,-3.330933094E0,5.980117321E0,4.868608952E0,8.400016165E0
1.085567670E0,-3.302202702E0,5.869385242E0,4.701014996E0,8.213024278E0
1.087560795E0,-3.287837505E0,5.773617268E0,4.571728230E0,8.065062357E0
1.089553920E0,-3.273472309E0,5.692214489E0,4.452018261E0,7.933309104E0
1.091547045E0,-3.297414303E0,5.629965305E0,4.356249809E0,7.845149000E0
1.093540118E0,-3.512892485E0,5.615600109E0,4.370615005E0,7.935846125E0
1.095533086E0,-3.824138641E0,5.615600109E0,4.437653065E0,8.114910083E0
1.097525899E0,-3.455431700E0,5.495890141E0,4.217386246E0,7.741522035E0
1.099518711E0,-3.527257681E0,5.515043736E0,4.231751442E0,7.795189184E0
1.101511524E0,-3.594295263E0,5.543774128E0,4.217386246E0,7.838286596E0
1.103504336E0,-3.718793869E0,5.558139324E0,4.260481834E0,7.929315610E0
1.105497149E0,-3.852869034E0,5.610811710E0,4.394556999E0,8.101724450E0
1.107489961E0,-4.034828186E0,5.649118900E0,4.533421040E0,8.291217592E0
1.109482774E0,-4.212597847E0,5.658695698E0,4.720168591E0,8.488039181E0
1.111475586E0,-4.404133797E0,5.697002888E0,4.964377403E0,8.746272315E0
1.113468399E0,-4.605247021E0,5.725733280E0,5.223549366E0,9.015419552E0
1.115461263E0,-4.815936565E0,5.744886875E0,5.515642166E0,9.306947873E0
1.117454180E0,-4.973954201E0,5.764040470E0,5.802946568E0,9.572803758E0
1.119447149E0,-5.079298973E0,5.730521679E0,6.047154903E0,9.757368457E0
1.121440170E0,-5.175066948E0,5.720944881E0,6.253654957E0,9.930696278E0
1.123433243E0,-5.247491360E0,5.706579685E0,6.421248913E0,1.006646188E1
1.125426368E0,-5.309741020E0,5.673060894E0,6.598419666E0,1.019392524E1
1.127419545E0,-5.333683014E0,5.644330502E0,6.732495308E0,1.027779813E1
1.129412722E0,-5.324106216E0,5.601234913E0,6.804321289E0,1.029653960E1
1.131405899E0,-5.304952621E0,5.529408932E0,6.866570473E0,1.028915329E1
1.133399076E0,-5.242702961E0,5.486313343E0,6.895300865E0,1.025332836E1
1.135392253E0,-5.223549366E0,5.433640957E0,6.938396454E0,1.024457258E1
1.137385430E0,-5.237914562E0,5.409698963E0,6.986280441E0,1.027174310E1
1.139378607E0,-5.266644955E0,5.400122166E0,7.062894821E0,1.033360304E1
1.141371784E0,-5.348048210E0,5.395333767E0,7.139509678E0,1.042515441E1
1.143364857E0,-5.448604584E0,5.395333767E0,7.220912457E0,1.053273445E1
1.145357878E0,-5.486911774E0,5.395333767E0,7.283760071E0,1.059570611E1
1.147350899E0,-5.549160957E0,5.395333767E0,7.360374451E0,1.068072684E1
1.149343868E0,-5.620986938E0,5.385756493E0,7.422623634E0,1.075626370E1
1.151336836E0,-5.688024521E0,5.380968094E0,7.527968884E0,1.086180262E1
1.153329805E0,-5.779004574E0,5.385756493E0,7.604583263E0,1.096507882E1
1.155322774E0,-5.855618954E0,5.385756493E0,7.709928036E0,1.107870194E1
1.157315743E0,-5.913079739E0,5.390544891E0,7.781754017E0,1.116145966E1
1.159308711E0,-5.960963726E0,5.400122166E0,7.853579998E0,1.124158026E1
1.161301680E0,-5.999270916E0,5.395333767E0,7.882310390E0,1.127970279E1
1.163294545E0,-6.056731701E0,5.390544891E0,7.954136372E0,1.135826829E1
1.165287409E0,-6.147711277E0,5.390544891E0,7.973290443E0,1.142040668E1
1.167280222E0,-6.281786919E0,5.404910564E0,7.987655640E0,1.150984569E1
1.169273034E0,-6.445190907E0,5.409698963E0,8.030751228E0,1.163177948E1
1.171265847E0,-6.545747280E0,5.414487362E0,8.045116425E0,1.169988800E1
1.173258659E0,-6.627150536E0,5.419275761E0,8.002020836E0,1.171836215E1
1.175251472E0,-6.718130112E0,5.409698963E0,7.944559574E0,1.172664240E1
1.177244284E0,-6.746860504E0,5.395333767E0,7.824849606E0,1.165581505E1
1.179237097E0,-6.794744492E0,5.380968094E0,7.729081631E0,1.161301310E1
1.181229909E0,-6.780379295E0,5.337872505E0,7.614160061E0,1.150833870E1
1.183222722E0,-6.737283707E0,5.270834923E0,7.508815289E0,1.138222296E1
1.185215534E0,-6.670246124E0,5.222950935E0,7.379528046E0,1.123516061E1
1.187208347E0,-6.598419666E0,5.151124954E0,7.249642849E0,1.107386797E1
1.189201159E0,-6.560112476E0,5.093664169E0,7.125144482E0,1.094295089E1
1.191193972E0,-6.560112476E0,5.031414986E0,7.029376030E0,1.085183578E1
1.193186836E0,-6.617573261E0,4.988319397E0,6.943184853E0,1.081126367E1
1.195179753E0,-6.713341713E0,4.950012207E0,6.866570473E0,1.080376637E1
1.197172722E0,-6.847416878E0,4.926070213E0,6.799532890E0,1.083452506E1
1.199165743E0,-6.967126846E0,4.911705017E0,6.766014099E0,1.088322790E1
1.201158815E0,-7.149086475E0,4.902127743E0,6.751648903E0,1.098749547E1
1.203151940E0,-7.316680431E0,4.844666958E0,6.737283707E0,1.106325459E1
1.205145118E0,-7.436988831E0,4.830301762E0,6.722918510E0,1.112826362E1
1.207138347E0,-7.537545681E0,4.791994572E0,6.713341713E0,1.117348486E1
1.209131628E0,-7.614160061E0,4.772840977E0,6.665457726E0,1.118855536E1
1.211124909E0,-7.642890453E0,4.748300552E0,6.603208065E0,1.116075667E1
1.213118190E0,-7.638102055E0,4.724358559E0,6.536170483E0,1.110773115E1
1.215111472E0,-7.623736858E0,4.700416565E0,6.440402508E0,1.103150325E1
1.217104753E0,-7.633313656E0,4.690839767E0,6.411672115E0,1.101730432E1
1.219098034E0,-7.685986042E0,4.686051369E0,6.411672115E0,1.105183235E1
1.221091315E0,-7.762600422E0,4.700416565E0,6.440402508E0,1.112792279E1
1.223084597E0,-7.887098789E0,4.757877350E0,6.483498096E0,1.126407882E1
1.225077670E0,-8.040328026E0,4.815936565E0,6.564900875E0,1.144281623E1
1.227070690E0,-8.193556786E0,4.882974148E0,6.646304131E0,1.162545345E1
1.229063711E0,-8.255805969E0,4.954800606E0,6.737283707E0,1.175156896E1
1.231056732E0,-8.303689957E0,5.012261391E0,6.780379295E0,1.183416979E1
1.233049753E0,-8.274959564E0,5.079298973E0,6.856993675E0,1.188665622E1
1.235042774E0,-8.255805969E0,5.131971359E0,6.895300865E0,1.191808023E1
1.237035795E0,-8.222287178E0,5.184643745E0,6.928819656E0,1.193713027E1
1.239028815E0,-8.207921982E0,5.242104530E0,6.928819656E0,1.195232969E1
1.241021836E0,-8.212710381E0,5.323507309E0,6.928819656E0,1.199153383E1
1.243014857E0,-8.227075577E0,5.380968094E0,6.933608055E0,1.202973445E1
1.245007878E0,-8.251017570E0,5.438429356E0,6.909666061E0,1.205816279E1
1.247000899E0,-8.303689957E0,5.486313343E0,6.885724068E0,1.210223520E1
1.248993920E0,-8.361150742E0,5.534197330E0,6.866570473E0,1.215261173E1
1.250986940E0,-8.428188324E0,5.562927723E0,6.804321289E0,1.217699928E1
1.252979961E0,-8.476072311E0,5.596446514E0,6.732495308E0,1.218566816E1
1.254972930E0,-8.538321495E0,5.629965305E0,6.675034523E0,1.221292468E1
1.256965795E0,-8.601169586E0,5.644330502E0,6.584054470E0,1.221426864E1
1.258958607E0,-8.639476776E0,5.663484097E0,6.512228489E0,1.221166373E1
1.260951420E0,-8.725667953E0,5.677849293E0,6.445190907E0,1.224400832E1
1.262944232E0,-8.792705536E0,5.692214489E0,6.378153324E0,1.226351566E1
1.264937045E0,-8.883685112E0,5.711368084E0,6.291962147E0,1.229342809E1
1.266929857E0,-8.955511093E0,5.701791286E0,6.234501362E0,1.231180775E1
1.268922670E0,-9.017760277E0,5.701791286E0,6.186617374E0,1.233307175E1
1.270915482E0,-9.060855865E0,5.701791286E0,6.128557682E0,1.233566991E1
1.272908295E0,-9.060855865E0,5.663484097E0,6.138733387E0,1.232307627E1
1.274901107E0,-9.036913872E0,5.634753704E0,6.167463779E0,1.230665962E1
1.276893920E0,-8.998606682E0,5.591658115E0,6.220136166E0,1.228542456E1
1.278886732E0,-8.998606682E0,5.553350925E0,6.272808552E0,1.229482639E1
1.280879545E0,-8.998606682E0,5.510255337E0,6.363788128E0,1.232216034E1
1.282872357E0,-9.027337074E0,5.495890141E0,6.488286495E0,1.240143075E1
1.284865170E0,-9.075222015E0,5.491101742E0,6.651092529E0,1.251993949E1
1.286857982E0,-9.123106003E0,5.486313343E0,6.789956093E0,1.262672566E1
1.288850795E0,-9.123106003E0,5.491101742E0,6.957550049E0,1.271969985E1
1.290843607E0,-9.185355186E0,5.510255337E0,7.110779285E0,1.285678209E1
1.292836420E0,-9.252392769E0,5.519832134E0,7.220912457E0,1.296984562E1
1.294829232E0,-9.396044731E0,5.558139324E0,7.322067261E0,1.314500811E1
1.296822045E0,-9.539696693E0,5.596446514E0,7.417835236E0,1.331729350E1
1.298814857E0,-9.698312759E0,5.658695698E0,7.484873295E0,1.349449649E1
1.300807670E0,-9.851541519E0,5.749675274E0,7.489661694E0,1.364575642E1
1.302800482E0,-1.001913548E1,5.840654850E0,7.499238491E0,1.381068075E1
1.304793347E0,-1.016757584E1,5.965752125E0,7.465719223E0,1.395373643E1
1.306786263E0,-1.031122780E1,6.090250492E0,7.403470039E0,1.407920234E1
1.308779232E0,-1.039263058E1,6.209960461E0,7.322067261E0,1.414860587E1
1.310772253E0,-1.044530392E1,6.324882507E0,7.240066051E0,1.419602300E1
1.312765274E0,-1.047403431E1,6.435015678E0,7.206547260E0,1.424953139E1
1.314758295E0,-1.052191830E1,6.521206856E0,7.163451672E0,1.430216569E1
1.316751315E0,-1.055543709E1,6.626551628E0,7.115567684E0,1.435129757E1
1.318744336E0,-1.062247467E1,6.707954407E0,7.082048416E0,1.442182479E1
1.320737357E0,-1.066557026E1,6.808511257E0,7.010222435E0,1.446559481E1
1.322730378E0,-1.079485703E1,6.923432827E0,6.962338448E0,1.459236160E1
1.324723399E0,-1.090558910E1,7.043741226E0,6.880935669E0,1.469331276E1
1.326716420E0,-1.103008747E1,7.139509678E0,6.789956093E0,1.478982528E1
1.328709440E0,-1.117852783E1,7.259219646E0,6.708553314E0,1.492181095E1
1.330702461E0,-1.130302620E1,7.374141216E0,6.588842869E0,1.501829585E1
1.332695482E0,-1.140837097E1,7.479485989E0,6.497863293E0,1.511012463E1
1.334688503E0,-1.148498535E1,7.580042362E0,6.358999729E0,1.515911634E1
1.336681524E0,-1.153286934E1,7.623138428E0,6.229712963E0,1.516339798E1
1.338674545E0,-1.152329254E1,7.675810814E0,6.109404087E0,1.513370942E1
1.340667565E0,-1.153286934E1,7.699752808E0,5.965752125E0,1.509580958E1
1.342660586E0,-1.149935055E1,7.699752808E0,5.836465359E0,1.501950679E1
1.344653607E0,-1.147540855E1,7.694964409E0,5.697601318E0,1.494523802E1
1.346646628E0,-1.145625496E1,7.671022415E0,5.568314552E0,1.486931369E1
1.348639649E0,-1.146104336E1,7.661445618E0,5.419874191E0,1.481311244E1
1.350632670E0,-1.148977375E1,7.685387611E0,5.276222229E0,1.479589823E1
1.352625690E0,-1.151371574E1,7.680599213E0,5.122992992E0,1.475812697E1
1.354618659E0,-1.152329254E1,7.699752808E0,4.993107796E0,1.473104171E1
1.356611628E0,-1.152329254E1,7.699752808E0,4.849455357E0,1.468297250E1
1.358604545E0,-1.150892735E1,7.728483200E0,4.696226597E0,1.463691926E1
1.360597409E0,-1.147062016E1,7.738059998E0,4.562151432E0,1.456934882E1
1.362590274E0,-1.142273617E1,7.762001991E0,4.384980202E0,1.448984568E1
1.364583034E0,-1.135569859E1,7.776367188E0,4.198232651E0,1.438919506E1
1.366575795E0,-1.124556541E1,7.781155586E0,4.001908302E0,1.424866288E1
1.368568555E0,-1.113064384E1,7.762001991E0,3.771466255E0,1.408417073E1
1.370561315E0,-1.105402946E1,7.733271599E0,3.522469282E0,1.394284214E1
1.372554076E0,-1.095347309E1,7.694964409E0,3.273472309E0,1.378066294E1
1.374546836E0,-1.085770512E1,7.651868820E0,3.062782526E0,1.363163577E1
1.376539597E0,-1.076612663E1,7.570465565E0,2.847304344E0,1.346582985E1
1.378532409E0,-1.066078186E1,7.522581577E0,2.631227732E0,1.331032918E1
1.380525274E0,-1.058416748E1,7.460332394E0,2.415749550E0,1.317258542E1
1.382518190E0,-1.050755310E1,7.417236805E0,2.233790159E0,1.305426721E1
1.384511159E0,-1.041178417E1,7.374141216E0,2.056619167E0,1.292334673E1
1.386504180E0,-1.032559299E1,7.331045628E0,1.884236693E0,1.280282971E1
1.388497201E0,-1.020588303E1,7.292738438E0,1.740584612E0,1.266387449E1
1.390490222E0,-1.005744267E1,7.259219646E0,1.629852772E0,1.251018956E1
1.392483243E0,-9.942521095E0,7.244854450E0,1.548449993E0,1.239916687E1
1.394476263E0,-9.846753120E0,7.220912457E0,1.490989089E0,1.230134839E1
1.396469284E0,-9.760561943E0,7.201758862E0,1.438316703E0,1.221485387E1
1.398462305E0,-9.717466354E0,7.211335659E0,1.428739905E0,1.218498306E1
1.400455326E0,-9.698312759E0,7.244854450E0,1.409586191E0,1.218737542E1
1.402448347E0,-9.698312759E0,7.283161640E0,1.395220995E0,1.220853617E1
1.404441368E0,-9.746196747E0,7.354987621E0,1.414374709E0,1.229164959E1
1.406434388E0,-9.803657532E0,7.422025204E0,1.452681899E0,1.238177870E1
1.408427409E0,-9.861118317E0,7.484274387E0,1.514931083E0,1.247201001E1
1.410420430E0,-9.880271912E0,7.556100368E0,1.581968784E0,1.253862237E1
1.412413451E0,-9.899425507E0,7.627926826E0,1.615487576E0,1.260133696E1
1.414406472E0,-9.885060310E0,7.685387611E0,1.663970232E0,1.263124685E1
1.416399493E0,-9.846753120E0,7.699752808E0,1.702277422E0,1.261516899E1
1.418392513E0,-9.803657532E0,7.704541206E0,1.774103403E0,1.259440745E1
1.420385430E0,-9.717466354E0,7.728483200E0,1.817199111E0,1.254833923E1
1.422378295E0,-9.582792282E0,7.738059998E0,1.879448295E0,1.245952673E1
1.424371159E0,-9.448717117E0,7.690176010E0,1.898601890E0,1.232971011E1
1.426364024E0,-9.309853554E0,7.661445618E0,1.960851192E0,1.221540255E1
1.428356836E0,-9.170989990E0,7.608773232E0,2.013523579E0,1.208531194E1
1.430349649E0,-9.051279068E0,7.546523571E0,2.070984364E0,1.196514300E1
1.432342461E0,-8.969876289E0,7.508216381E0,2.104503393E0,1.188532408E1
1.434335274E0,-8.883685112E0,7.450755596E0,2.123656988E0,1.178743140E1
1.436328086E0,-8.802282333E0,7.417236805E0,2.147598982E0,1.170930218E1
1.438320899E0,-8.754398346E0,7.369352818E0,2.142810583E0,1.164209983E1
1.440313711E0,-8.720879555E0,7.359776020E0,2.114080191E0,1.160557531E1
1.442306524E0,-8.730456352E0,7.374141216E0,2.090138197E0,1.161755157E1
1.444299336E0,-8.759186745E0,7.402871609E0,2.023100376E0,1.164554832E1
1.446292149E0,-8.797493935E0,7.436390400E0,1.941697598E0,1.168186592E1
1.448284961E0,-8.816647530E0,7.445967197E0,1.841141105E0,1.168612432E1
1.450277826E0,-8.797493935E0,7.455543995E0,1.707065821E0,1.165740578E1
1.452270743E0,-8.744821548E0,7.445967197E0,1.605910778E0,1.159712382E1
1.454263711E0,-8.672995567E0,7.393294811E0,1.514931083E0,1.149681158E1
1.456256680E0,-8.591592789E0,7.326257229E0,1.438316703E0,1.138236647E1
1.458249701E0,-8.476072311E0,7.249642849E0,1.347337008E0,1.123460904E1
1.460242722E0,-8.380304337E0,7.149086475E0,1.275510907E0,1.108899753E1
1.462235795E0,-8.255805969E0,7.053318024E0,1.174954534E0,1.092191126E1
1.464228868E0,-8.179191589E0,6.956951618E0,1.083974838E0,1.079228207E1
1.466221940E0,-8.126519203E0,6.885125637E0,1.002571940E0,1.069815030E1
1.468215013E0,-8.102577209E0,6.813299656E0,9.068039060E-1,1.062521073E1
1.470208086E0,-8.107365608E0,6.794146061E0,7.727286220E-1,1.060598451E1
1.472201159E0,-8.107365608E0,6.770204067E0,6.434416771E-1,1.058201575E1
1.474194232E0,-8.102577209E0,6.755838871E0,4.465186298E-1,1.055900067E1
1.476187305E0,-8.088212013E0,6.774992466E0,2.549824715E-1,1.055389561E1
1.478180378E0,-8.040328026E0,6.760627270E0,1.161187813E-1,1.050554327E1
1.480173451E0,-7.954136372E0,6.736684799E0,2.035071515E-2,1.042360886E1
1.482166524E0,-7.858368397E0,6.722319603E0,-7.062894851E-2,1.034159191E1
1.484159597E0,-7.762600422E0,6.727108002E0,-1.089361757E-1,1.027247850E1
1.486152670E0,-7.676409245E0,6.760627270E0,-1.520318091E-1,1.023017369E1
1.488145534E0,-7.609371662E0,6.803722858E0,-1.855506301E-1,1.020919247E1
1.490138399E0,-7.532757282E0,6.870760441E0,-2.238578647E-1,1.019803381E1
1.492131263E0,-7.436988831E0,6.928221226E0,-1.903390288E-1,1.016588811E1
1.494123972E0,-7.393294811E0,7.019799232E0,-1.520318091E-1,1.019615139E1
1.496116680E0,-7.316680431E0,7.110779285E0,-7.062894851E-2,1.020303793E1
1.498109388E0,-7.249642849E0,7.211335659E0,1.556231081E-2,1.022550368E1
1.500102097E0,-7.192182064E0,7.302315235E0,1.161187813E-1,1.025011094E1
1.502094805E0,-7.110779285E0,7.378929615E0,2.358288616E-1,1.025023900E1
1.504087513E0,-7.000645638E0,7.450755596E0,3.459621370E-1,1.022949110E1
1.506080222E0,-6.890512466E0,7.465120792E0,4.896142483E-1,1.017088554E1
1.508072930E0,-6.799532890E0,7.503427982E0,6.147112846E-1,1.014460196E1
1.510065638E0,-6.703764915E0,7.508216381E0,7.631517649E-1,1.009436367E1
1.512058399E0,-6.584054470E0,7.522581577E0,8.541314602E-1,1.003337169E1
1.514051211E0,-6.464344501E0,7.532158375E0,9.259575009E-1,9.968879421E0
1.516044076E0,-6.354211330E0,7.536946774E0,1.012148738E0,9.909894720E0
1.518036993E0,-6.272210121E0,7.522581577E0,1.103128433E0,9.856304872E0
1.520029961E0,-6.200383663E0,7.536946774E0,1.198896527E0,9.832989226E0
1.522022982E0,-6.147711277E0,7.522581577E0,1.280299306E0,9.799120055E0
1.524016055E0,-6.080673695E0,7.503427982E0,1.371279001E0,9.754815742E0
1.526009180E0,-6.023212910E0,7.469909191E0,1.457470298E0,9.705815615E0
1.528002305E0,-5.960963726E0,7.445967197E0,1.500565886E0,9.655424073E0
1.529995430E0,-5.903502941E0,7.407660007E0,1.572391987E0,9.601936801E0
1.531988555E0,-5.846042156E0,7.378929615E0,1.625064373E0,9.553305468E0
1.533981680E0,-5.774216175E0,7.340622425E0,1.659181833E0,9.485736365E0
1.535974805E0,-5.688024521E0,7.340622425E0,1.697489023E0,9.440329948E0
1.537967930E0,-5.597044945E0,7.297526836E0,1.726219416E0,9.357384438E0
1.539961055E0,-5.501276970E0,7.273584843E0,1.750161409E0,9.286126734E0
1.541954024E0,-5.405508995E0,7.249642849E0,1.798045516E0,9.220076822E0
1.543946993E0,-5.319317818E0,7.230489254E0,1.841141105E0,9.163237281E0
1.545939961E0,-5.252279758E0,7.220912457E0,1.917755604E0,9.132677916E0
1.547932878E0,-5.233126163E0,7.201758862E0,1.989581585E0,9.121917289E0
1.549925795E0,-5.266644955E0,7.216124058E0,2.042253971E0,9.164103708E0
1.551918711E0,-5.357625008E0,7.225700855E0,2.104503393E0,9.238172606E0
1.553911628E0,-5.443816185E0,7.240066051E0,2.195482969E0,9.320613529E0
1.555904545E0,-5.525218964E0,7.254431248E0,2.252943754E0,9.393113056E0
1.557897461E0,-5.568314552E0,7.244854450E0,2.310404539E0,9.425073586E0
1.559890378E0,-5.568314552E0,7.220912457E0,2.353500366E0,9.417359908E0
1.561883295E0,-5.553949356E0,7.168240070E0,2.372653961E0,9.373340172E0
1.563876211E0,-5.491700172E0,7.110779285E0,2.401384354E0,9.299924712E0
1.565869128E0,-5.415085793E0,7.048529625E0,2.401384354E0,9.207147812E0
1.567862045E0,-5.333683014E0,6.980893612E0,2.410961151E0,9.110092414E0
1.569854961E0,-5.247491360E0,6.904279232E0,2.420537949E0,9.003568251E0
1.571847878E0,-5.175066948E0,6.832453251E0,2.406172752E0,8.902438018E0
1.573840795E0,-5.098452568E0,6.770204067E0,2.391807556E0,8.806283273E0
1.575833763E0,-5.045780182E0,6.717531204E0,2.372653961E0,8.730097934E0
1.577826784E0,-4.983530998E0,6.660070419E0,2.358288765E0,8.646019032E0
1.579819857E0,-4.945223808E0,6.607398033E0,2.339135170E0,8.578140861E0
1.581812930E0,-4.930858612E0,6.588244438E0,2.300827742E0,8.544714140E0
1.583806003E0,-4.906916618E0,6.525995255E0,2.291250944E0,8.480346435E0
1.585799076E0,-4.902127743E0,6.516418457E0,2.252943754E0,8.459924437E0
1.587792149E0,-4.940435410E0,6.506841660E0,2.291250944E0,8.485088173E0
1.589785222E0,-4.988319397E0,6.482899666E0,2.305616140E0,8.498657792E0
1.591778295E0,-5.045780182E0,6.492476463E0,2.343923569E0,8.550212042E0
1.593771368E0,-5.069722176E0,6.492476463E0,2.367865562E0,8.570946324E0
1.595764440E0,-5.103240967E0,6.473322868E0,2.415749550E0,8.589692847E0
1.597757513E0,-5.108029366E0,6.478111267E0,2.434903145E0,8.601548867E0
1.599750586E0,-5.108029366E0,6.473322868E0,2.473210335E0,8.608869979E0
1.601743659E0,-5.088875771E0,6.468534470E0,2.473210335E0,8.593914367E0
1.603736732E0,-5.021838188E0,6.454169273E0,2.463633537E0,8.540764018E0
1.605729805E0,-4.916493416E0,6.435015678E0,2.487575531E0,8.471680253E0
1.607722878E0,-4.787206173E0,6.406285286E0,2.458845139E0,8.366824578E0
1.609715951E0,-4.638765812E0,6.348824501E0,2.463633537E0,8.239855036E0
1.611709024E0,-4.514267445E0,6.348824501E0,2.449268341E0,8.166094447E0
1.613702097E0,-4.442441463E0,6.315305710E0,2.468421936E0,8.106261729E0
1.615695170E0,-4.389768600E0,6.281786919E0,2.458845139E0,8.048405722E0
1.617688243E0,-4.380191803E0,6.272210121E0,2.492363930E0,8.046028709E0
1.619681315E0,-4.408922195E0,6.262633324E0,2.492363930E0,8.054256578E0
1.621674388E0,-4.399345398E0,6.267421722E0,2.506729126E0,8.057202113E0
1.623667461E0,-4.394556999E0,6.291363716E0,2.497152328E0,8.070263836E0
1.625660534E0,-4.380191803E0,6.305728912E0,2.458845139E0,8.061899079E0
1.627653607E0,-4.370615005E0,6.329670906E0,2.396595955E0,8.056716544E0
1.629646680E0,-4.394556999E0,6.387131691E0,2.348711967E0,8.100866026E0
1.631639701E0,-4.437653065E0,6.468534470E0,2.243366957E0,8.158884618E0
1.633632722E0,-4.509479046E0,6.588244438E0,2.128445387E0,8.262605268E0
1.635625743E0,-4.610035419E0,6.736684799E0,2.018311977E0,8.408860321E0
1.637618711E0,-4.681861401E0,6.865972042E0,1.903390408E0,8.525508390E0
1.639611628E0,-4.744110584E0,6.985682011E0,1.798045516E0,8.633614890E0
1.641604545E0,-4.806359768E0,7.120356083E0,1.721431017E0,8.761500426E0
1.643597461E0,-4.902127743E0,7.254431248E0,1.683123827E0,8.915746461E0
1.645590378E0,-5.031414986E0,7.388506413E0,1.625064373E0,9.085482815E0
1.647583295E0,-5.160701752E0,7.527369976E0,1.591545582E0,9.264294828E0
1.649576211E0,-5.247491360E0,7.637503624E0,1.553238392E0,9.395753119E0
1.651569076E0,-5.338471413E0,7.733271599E0,1.558026791E0,9.525240896E0
1.653561888E0,-5.367201805E0,7.800309181E0,1.529296279E0,9.591163936E0
1.655554701E0,-5.367201805E0,7.876923561E0,1.510142684E0,9.650560136E0
1.657547513E0,-5.362413406E0,7.943961143E0,1.443105102E0,9.692499601E0
1.659540326E0,-5.371990204E0,7.991845131E0,1.371279001E0,9.726678439E0
1.661533138E0,-5.415085793E0,8.054094315E0,1.261145711E0,9.786831861E0
1.663525951E0,-5.530007362E0,8.058882713E0,1.112705231E0,9.836904236E0
1.665518763E0,-5.664082527E0,8.092401505E0,9.451110959E-1,9.922803433E0
1.667511576E0,-5.793369770E0,8.092401505E0,7.966706157E-1,9.984226534E0
1.669504388E0,-5.927444935E0,8.058882713E0,6.386532784E-1,1.002437390E1
1.671497201E0,-6.032789707E0,7.996633530E0,4.896142483E-1,1.002897909E1
1.673490013E0,-6.128557682E0,7.939172745E0,3.794809580E-1,1.003661740E1
1.675482826E0,-6.243479252E0,7.867346764E0,2.549824715E-1,1.004694950E1
1.677475638E0,-6.315904140E0,7.771578789E0,1.640028208E-1,1.001573656E1
1.679468451E0,-6.373364925E0,7.675810814E0,2.035071515E-2,9.976886602E0
1.681461263E0,-6.483498096E0,7.575253963E0,-4.668693244E-2,9.971078169E0
1.683454076E0,-6.631938934E0,7.498639584E0,-6.584054977E-2,1.001082138E1
1.685446888E0,-6.737283707E0,7.383718014E0,-1.137245819E-1,9.996160099E0
1.687439701E0,-6.751648903E0,7.249642849E0,-1.999158412E-1,9.908685619E0
1.689432513E0,-6.655880928E0,7.149086475E0,-2.142810524E-1,9.770164007E0
1.691425326E0,-6.560112476E0,7.034164429E0,-2.094926536E-1,9.620729291E0
1.693418138E0,-6.449979305E0,6.928221226E0,-1.807622313E-1,9.467584559E0
1.695410951E0,-6.325480938E0,6.889914036E0,-1.280897856E-1,9.354091699E0
1.697403763E0,-6.233902454E0,6.803722858E0,-9.457096457E-2,9.228278724E0
1.699396576E0,-6.195595264E0,6.765415668E0,-9.457096457E-2,9.174159009E0
1.701389388E0,-6.157288074E0,6.727108002E0,-4.189852998E-2,9.119645497E0
1.703382201E0,-6.162076473E0,6.703166008E0,2.513911761E-2,9.105177262E0
1.705375013E0,-6.243479252E0,6.693589211E0,4.908113554E-2,9.153555519E0
1.707367826E0,-6.354211330E0,6.693589211E0,1.017535701E-1,9.229869552E0
1.709360690E0,-6.488286495E0,6.746262074E0,1.161187813E-1,9.360737000E0
1.711353607E0,-6.670246124E0,6.774992466E0,1.065419763E-1,9.508104830E0
1.713346576E0,-6.804321289E0,6.837241650E0,1.448491961E-1,9.647157243E0
1.715339597E0,-6.904877663E0,6.861183643E0,1.640028208E-1,9.735505814E0
1.717332670E0,-6.971915245E0,6.885125637E0,1.879448295E-1,9.800402057E0
1.719325743E0,-7.019799232E0,6.913856030E0,2.023100406E-1,9.854943725E0
1.721318815E0,-7.043741226E0,6.913856030E0,2.023100406E-1,9.872012207E0
1.723311888E0,-7.000645638E0,6.913856030E0,2.214636505E-1,9.841721937E0
1.725304961E0,-6.981492043E0,6.937798023E0,2.549824715E-1,9.845775166E0
1.727298034E0,-6.976703644E0,6.904279232E0,2.837128937E-1,9.819570177E0
1.729291107E0,-6.943184853E0,6.899490833E0,3.076549172E-1,9.793132349E0
1.731284076E0,-6.957550049E0,6.880337238E0,3.411737382E-1,9.790962298E0
1.733276993E0,-7.019799232E0,6.861183643E0,3.459621370E-1,9.822072696E0
1.735269857E0,-7.062894821E0,6.865972042E0,3.651157618E-1,9.856945006E0
1.737262722E0,-7.110779285E0,6.808511257E0,3.268085420E-1,9.850168090E0
1.739255534E0,-7.105990410E0,6.774992466E0,3.220201433E-1,9.823406720E0
1.741248347E0,-7.058106422E0,6.707954407E0,2.885012925E-1,9.741496373E0
1.743241159E0,-7.000645638E0,6.597821236E0,2.837128937E-1,9.623968901E0
1.745233972E0,-6.904877663E0,6.492476463E0,2.932897210E-1,9.482383931E0
1.747226784E0,-6.746860504E0,6.372766495E0,2.741360962E-1,9.284795639E0
1.749219597E0,-6.617573261E0,6.229114056E0,2.741360962E-1,9.092265305E0
1.751212409E0,-6.512228489E0,6.152499676E0,2.454056740E-1,8.962287437E0
1.753205222E0,-6.454767704E0,6.090250492E0,2.023100406E-1,8.876717103E0
1.755198034E0,-6.421248913E0,6.013636112E0,1.640028208E-1,8.799042778E0
1.757190847E0,-6.397306919E0,5.994482517E0,1.400607973E-1,8.768065550E0
1.759183659E0,-6.454767704E0,5.989694118E0,1.113303825E-1,8.806409950E0
1.761176472E0,-6.517016888E0,5.994482517E0,1.304839998E-1,8.855639776E0
1.763169284E0,-6.555324078E0,5.999270916E0,1.209071875E-1,8.886964827E0
1.765162097E0,-6.584054470E0,6.018424511E0,1.448491961E-1,8.921445407E0
1.767154909E0,-6.569689274E0,6.047154903E0,1.783680320E-1,8.930885440E0
1.769147774E0,-6.536170483E0,6.061520100E0,2.166752517E-1,8.916865966E0
1.771140690E0,-6.531382084E0,6.061520100E0,3.028665185E-1,8.915868212E0
1.773133607E0,-6.512228489E0,6.047154903E0,3.986345828E-1,8.895848012E0
1.775126524E0,-6.507440090E0,6.042366505E0,5.333084464E-1,8.896144525E0
1.777119440E0,-6.507440090E0,6.008847713E0,6.482301354E-1,8.881060166E0
1.779112357E0,-6.512228489E0,5.970540524E0,7.775170207E-1,8.869104056E0
1.781105274E0,-6.517016888E0,5.941810131E0,8.780734539E-1,8.862710067E0
1.783098190E0,-6.517016888E0,5.927444935E0,9.498994946E-1,8.860497820E0
1.785091107E0,-6.540958881E0,5.946598530E0,1.026513934E0,8.899433017E0
1.787084024E0,-6.536170483E0,5.946598530E0,1.098340034E0,8.904488165E0
1.789076940E0,-6.488286495E0,5.960963726E0,1.174954534E0,8.888839539E0
1.791069857E0,-6.440402508E0,5.951386929E0,1.208473325E0,8.852016641E0
1.793062774E0,-6.378153324E0,5.937021732E0,1.241992116E0,8.801795913E0
1.795055690E0,-6.305728912E0,5.922656536E0,1.237203717E0,8.739036022E0
1.797048607E0,-6.305728912E0,5.946598530E0,1.194108129E0,8.749293995E0
1.799041524E0,-6.305728912E0,5.965752125E0,1.107916832E0,8.750993957E0
1.801034493E0,-6.281786919E0,5.980117321E0,1.007360339E0,8.731404521E0
1.803027461E0,-6.200383663E0,5.984905720E0,8.589198589E-1,8.660346261E0
1.805020430E0,-6.099827290E0,5.975328922E0,6.290764809E-1,8.562019967E0
1.807013399E0,-5.980117321E0,5.994482517E0,4.417302012E-1,8.478841277E0
1.809006368E0,-5.874772549E0,6.004059315E0,1.975216419E-1,8.402422005E0
1.810999336E0,-5.755062103E0,6.023212910E0,-2.753331885E-2,8.330701750E0
1.812992357E0,-5.625775337E0,6.032789707E0,-2.477998734E-1,8.252593809E0
1.814985430E0,-5.568314552E0,6.085462093E0,-4.393360019E-1,8.260265853E0
1.816978503E0,-5.501276970E0,6.123769283E0,-6.218938828E-1,8.255383125E0
1.818971576E0,-5.496488571E0,6.181230068E0,-7.368155718E-1,8.304329531E0
1.820964649E0,-5.515642166E0,6.224325657E0,-8.373720646E-1,8.358572268E0
1.822957722E0,-5.577891350E0,6.305728912E0,-8.900445104E-1,8.465652264E0
1.824950795E0,-5.635352135E0,6.411073685E0,-9.522937536E-1,8.588709034E0
1.826943868E0,-5.731120110E0,6.506841660E0,-1.014542937E0,8.730064345E0
1.828936940E0,-5.798158169E0,6.540360451E0,-9.906009436E-1,8.796376709E0
1.830930013E0,-5.850830555E0,6.583456039E0,-9.762357473E-1,8.861554482E0
1.832923086E0,-5.903502941E0,6.578667641E0,-9.618705511E-1,8.891310919E0
1.834916159E0,-5.937021732E0,6.583456039E0,-9.139865041E-1,8.912098058E0
1.836909232E0,-5.970540524E0,6.583456039E0,-8.804676533E-1,8.931095725E0
1.838902305E0,-6.018424511E0,6.588244438E0,-7.894880176E-1,8.958219114E0
1.840895378E0,-6.095038891E0,6.593032837E0,-7.272387743E-1,9.008132842E0
1.842888451E0,-6.147711277E0,6.597821236E0,-6.889315248E-1,9.044347718E0
1.844881524E0,-6.224325657E0,6.640916824E0,-6.506243348E-1,9.125092776E0
1.846874440E0,-6.426037312E0,6.842030048E0,-9.331400990E-1,9.432819364E0
1.848867357E0,-6.612784863E0,6.971316814E0,-1.062427044E0,9.667312604E0
1.850860274E0,-6.679822922E0,7.034164429E0,-1.105522633E0,9.763282428E0
1.852853190E0,-6.742072105E0,7.144298077E0,-1.225232720E0,9.899380107E0
1.854846107E0,-6.727706909E0,7.259219646E0,-1.416768909E0,9.998277065E0
1.856839024E0,-6.607996464E0,7.340622425E0,-1.440710902E0,9.981282621E0
1.858831940E0,-6.344634533E0,7.412448406E0,-1.388038397E0,9.855223454E0
1.860824857E0,-6.047154903E0,7.508216381E0,-1.306635618E0,9.728755948E0
1.862817774E0,-5.759850502E0,7.666234016E0,-1.206079125E0,9.664452838E0
1.864810690E0,-5.568314552E0,7.805097580E0,-1.062427044E0,9.646472226E0
1.866803607E0,-5.348048210E0,7.972691536E0,-8.661024570E-1,9.639271936E0
1.868796524E0,-5.136759758E0,8.063671112E0,-6.266822815E-1,9.581326803E0
1.870789440E0,-4.926070213E0,8.097189903E0,-3.866635859E-1,9.485787305E0
1.872782357E0,-4.729745388E0,8.049305916E0,-1.424549967E-1,9.337136102E0
1.874775274E0,-4.619612217E0,7.929595947E0,4.429273307E-2,9.177214761E0
1.876768190E0,-4.600458622E0,7.776367188E0,1.927332431E-1,9.037325504E0
1.878761107E0,-4.662707806E0,7.560888767E0,2.454056740E-1,8.886400113E0
1.880754024E0,-4.782417774E0,7.321468830E0,2.406172752E-1,8.748332542E0
1.882746940E0,-4.926070213E0,7.024587631E0,1.592144072E-1,8.581162413E0
1.884739857E0,-5.093664169E0,6.755838871E0,-1.316810958E-2,8.460906980E0
1.886732774E0,-5.300164223E0,6.511630058E0,-2.334346622E-1,8.399259405E0
1.888725690E0,-5.506065369E0,6.320094109E0,-4.824316502E-1,8.396016060E0
1.890718607E0,-5.673659325E0,6.181230068E0,-7.894880176E-1,8.427413994E0
1.892711524E0,-5.798158169E0,6.114192486E0,-1.081580639E0,8.495399024E0
1.894704440E0,-5.860407352E0,6.071096897E0,-1.373673201E0,8.549243822E0
1.896697357E0,-5.932233334E0,6.047154903E0,-1.675342679E0,8.635175033E0
1.898690274E0,-5.989694118E0,6.090250492E0,-1.929726601E0,8.757364412E0
1.900683190E0,-6.056731701E0,6.138134480E0,-2.169146776E0,8.891900332E0
1.902676107E0,-6.133346081E0,6.238690853E0,-2.346317768E0,9.057836650E0
1.904669024E0,-6.238690853E0,6.329670906E0,-2.494758129E0,9.230916285E0
1.906661940E0,-6.368576527E0,6.382343292E0,-2.604891539E0,9.385016399E0
1.908654857E0,-6.521805286E0,6.458957672E0,-2.676717520E0,9.561218285E0
1.910647774E0,-6.684611320E0,6.535572052E0,-2.758120298E0,9.747048688E0
1.912640690E0,-6.895300865E0,6.602609634E0,-2.810792685E0,9.951893464E0
1.914633607E0,-7.062894821E0,6.655282021E0,-2.834734917E0,1.011004372E1
1.916626524E0,-7.235277653E0,6.693589211E0,-2.868852139E0,1.026565594E1
1.918619440E0,-7.374141216E0,6.727108002E0,-2.873640537E0,1.038699912E1
1.920612357E0,-7.537545681E0,6.746262074E0,-2.844311714E0,1.050793776E1
1.922605222E0,-7.666832447E0,6.760627270E0,-2.791639090E0,1.059620921E1
1.924597982E0,-7.791330814E0,6.755838871E0,-2.695871115E0,1.065898287E1
1.926590743E0,-7.896675587E0,6.731896400E0,-2.571372509E0,1.069055055E1
1.928583503E0,-7.987655640E0,6.741473198E0,-2.408566952E0,1.072619682E1
1.930576263E0,-8.035539627E0,6.736684799E0,-2.193088770E0,1.071272409E1
1.932569024E0,-8.116942406E0,6.722319603E0,-1.915361404E0,1.071181330E1
1.934561784E0,-8.136096001E0,6.727108002E0,-1.646612167E0,1.068463251E1
1.936554545E0,-8.155249596E0,6.722319603E0,-1.368884802E0,1.065699406E1
1.938547305E0,-8.164826393E0,6.746262074E0,-1.072003841E0,1.064545134E1
1.940540065E0,-8.255805969E0,6.784569263E0,-7.942764163E-1,1.071539021E1
1.942532826E0,-8.375515938E0,6.880337238E0,-5.638344884E-1,1.085385724E1
1.944525638E0,-8.514379501E0,6.976105213E0,-3.818751574E-1,1.101392441E1
1.946518503E0,-8.658630371E0,7.086836815E0,-3.052607179E-1,1.119322653E1
1.948511420E0,-8.759186745E0,7.216124058E0,-2.861070931E-1,1.135242952E1
1.950504388E0,-8.730456352E0,7.283161640E0,-3.627215624E-1,1.137527488E1
1.952497357E0,-8.620323181E0,7.350199223E0,-5.063736439E-1,1.133983310E1
1.954490326E0,-8.356362343E0,7.398083210E0,-6.410474777E-1,1.117905938E1
1.956483295E0,-8.093000412E0,7.407660007E0,-7.272387743E-1,1.099540625E1
1.958476263E0,-7.872733593E0,7.426813602E0,-9.810241461E-1,1.086737792E1
1.960469232E0,-7.662044048E0,7.436390400E0,-1.134253025E0,1.073747415E1
1.962462201E0,-7.489661694E0,7.441178799E0,-1.368884802E0,1.064612699E1
1.964455170E0,-7.364564419E0,7.436390400E0,-1.546055794E0,1.057955575E1
1.966448138E0,-7.287950039E0,7.450755596E0,-1.752555609E0,1.056879491E1
1.968441107E0,-7.254431248E0,7.426813602E0,-1.953668594E0,1.056414474E1
1.970434076E0,-7.283161640E0,7.422025204E0,-2.135627985E0,1.061563981E1
1.972427045E0,-7.374141216E0,7.417236805E0,-2.365471363E0,1.072328379E1
1.974420013E0,-7.499238491E0,7.402871609E0,-2.580949545E0,1.084907307E1
1.976412982E0,-7.628525257E0,7.412448406E0,-2.820369720E0,1.100423893E1
1.978405951E0,-7.719504833E0,7.402871609E0,-3.108272314E0,1.113798095E1
1.980398920E0,-7.748235226E0,7.412448406E0,-3.390788078E0,1.124619866E1
1.982391888E0,-7.685986042E0,7.378929615E0,-3.673303843E0,1.127014396E1
1.984384857E0,-7.532757282E0,7.359776020E0,-3.941454649E0,1.124472321E1
1.986377826E0,-7.354987621E0,7.335834026E0,-4.191050053E0,1.120157151E1
1.988370795E0,-7.187393665E0,7.264008045E0,-4.435258865E0,1.113983670E1
1.990363763E0,-7.019799232E0,7.216124058E0,-4.569334030E0,1.105571532E1
1.992356732E0,-6.880935669E0,7.144298077E0,-4.655525208E0,1.095728916E1
1.994349701E0,-6.732495308E0,7.048529625E0,-4.693832397E0,1.081851771E1
1.996342670E0,-6.603208065E0,6.966528416E0,-4.722562790E0,1.069754524E1
1.998335638E0,-6.459556103E0,6.856395245E0,-4.698620796E0,1.052677815E1
2.000328607E0,-6.397306919E0,6.736684799E0,-4.703409195E0,1.041299745E1
2.002321576E0,-6.402095318E0,6.593032837E0,-4.722562790E0,1.033235238E1
2.004314545E0,-6.454767704E0,6.425438881E0,-4.717774391E0,1.025707981E1
2.006307565E0,-6.598419666E0,6.248267651E0,-4.722562790E0,1.024122014E1
2.008300638E0,-6.698976517E0,6.032789707E0,-4.626794815E0,1.013301872E1
2.010293711E0,-6.789956093E0,5.797559261E0,-4.593276024E0,1.004058672E1
2.012286784E0,-6.823474884E0,5.553350925E0,-4.574122429E0,9.915750702E0
2.014279857E0,-6.866570473E0,5.337872505E0,-4.521450043E0,9.802356014E0
2.016272930E0,-6.962338448E0,5.266046524E0,-4.478354454E0,9.811272153E0
2.018266003E0,-7.058106422E0,5.232527733E0,-4.487931252E0,9.865989036E0
2.020259076E0,-7.062894821E0,5.222950935E0,-4.368220806E0,9.810456296E0
2.022252149E0,-7.019799232E0,5.227739334E0,-4.315548420E0,9.758626849E0
2.024245222E0,-6.976703644E0,5.227739334E0,-4.210203648E0,9.681397990E0
2.026238295E0,-6.947973251E0,5.246892929E0,-4.080916882E0,9.615513523E0
2.028231368E0,-6.962338448E0,5.289988518E0,-3.907935619E0,9.577582993E0
2.030224440E0,-7.038952827E0,5.352237701E0,-3.850474834E0,9.644659754E0
2.032217357E0,-7.129932880E0,5.419275761E0,-3.740341663E0,9.705392749E0
2.034210274E0,-7.225700855E0,5.457582951E0,-3.682880878E0,9.775457845E0
2.036203190E0,-7.278373241E0,5.510255337E0,-3.500921488E0,9.777222621E0
2.038196107E0,-7.254431248E0,5.524620533E0,-3.567959070E0,9.791758611E0
2.040189024E0,-7.134721279E0,5.500678539E0,-3.544017076E0,9.681000422E0
2.042181940E0,-6.952761650E0,5.467159748E0,-3.735553265E0,9.601306602E0
2.044174857E0,-6.694188118E0,5.471948147E0,-3.749918461E0,9.424237876E0
2.046167774E0,-6.402095318E0,5.471948147E0,-3.797802448E0,9.238633255E0
2.048160690E0,-6.104615688E0,5.491101742E0,-3.812167645E0,9.052687623E0
2.050153607E0,-5.812523365E0,5.524620533E0,-3.898358822E0,8.916505000E0
2.052146524E0,-5.577891350E0,5.591658115E0,-3.836109638E0,8.780390057E0
2.054139388E0,-5.367201805E0,5.663484097E0,-3.821744442E0,8.688362211E0
2.056132253E0,-5.194818974E0,5.744886875E0,-3.788225651E0,8.622095045E0
2.058125118E0,-5.079298973E0,5.878962040E0,-3.706822872E0,8.608252351E0
2.060117982E0,-4.969165802E0,5.980117321E0,-3.620631456E0,8.576909938E0
2.062110847E0,-4.945223808E0,6.090250492E0,-3.505709887E0,8.592810447E0
2.064103711E0,-4.959589005E0,6.209960461E0,-3.357269287E0,8.627420767E0
2.066096576E0,-4.988319397E0,6.296152115E0,-3.223194122E0,8.655278286E0
2.068089440E0,-5.040991783E0,6.387131691E0,-3.060388327E0,8.693274763E0
2.070082305E0,-5.088875771E0,6.430227280E0,-2.940678120E0,8.711605322E0
2.072075170E0,-5.131971359E0,6.473322868E0,-2.854486942E0,8.740087797E0
2.074068034E0,-5.160701752E0,6.468534470E0,-2.806004286E0,8.737759484E0
2.076060899E0,-5.218760967E0,6.444592476E0,-2.738966703E0,8.733279843E0
2.078053815E0,-5.266644955E0,6.406285286E0,-2.734178305E0,8.732340536E0
2.080046732E0,-5.386355400E0,6.348824501E0,-2.791639090E0,8.781437573E0
2.082039649E0,-5.525218964E0,6.281786919E0,-2.897582531E0,8.853523367E0
2.084032618E0,-5.673659325E0,6.214748859E0,-3.041234732E0,8.947771913E0
2.086025586E0,-5.798158169E0,6.133346081E0,-3.280654907E0,9.055344771E0
2.088018555E0,-5.893926144E0,6.032789707E0,-3.539228678E0,9.146532494E0
2.090011524E0,-5.980117321E0,5.908291340E0,-3.797802448E0,9.224587425E0
2.092004493E0,-6.013636112E0,5.807136059E0,-4.095282078E0,9.309027006E0
2.093997461E0,-6.013636112E0,5.701791286E0,-4.334702015E0,9.352212825E0
2.095990430E0,-5.989694118E0,5.596446514E0,-4.569334030E0,9.384852833E0
2.097983399E0,-5.903502941E0,5.510255337E0,-4.717774391E0,9.352628297E0
2.099976368E0,-5.841253757E0,5.452794552E0,-4.856637955E0,9.350943594E0
2.101969336E0,-5.774216175E0,5.448006153E0,-4.952406406E0,9.356744770E0
2.103962305E0,-5.707178116E0,5.467159748E0,-5.048174381E0,9.377941263E0
2.105955274E0,-5.668870926E0,5.529408932E0,-5.163694382E0,9.453792910E0
2.107948243E0,-5.649717331E0,5.615600109E0,-5.278616428E0,9.556048446E0
2.109941211E0,-5.601833344E0,5.663484097E0,-5.441421986E0,9.647002755E0
2.111934180E0,-5.568314552E0,5.735310078E0,-5.623381138E0,9.773552274E0
2.113927149E0,-5.515642166E0,5.792770863E0,-5.810129166E0,9.886157175E0
2.115920118E0,-5.424662590E0,5.835866451E0,-5.987299919E0,9.966547134E0
2.117913086E0,-5.290587425E0,5.845443249E0,-6.126163483E0,9.984457977E0
2.119906055E0,-5.165490150E0,5.878962040E0,-6.207566261E0,9.988911955E0
2.121899024E0,-5.031414986E0,5.913079739E0,-6.279991150E0,9.985886921E0
2.123891993E0,-4.921281815E0,5.927444935E0,-6.265625954E0,9.930341723E0
2.125884961E0,-4.854243755E0,5.994482517E0,-6.232107162E0,9.916484396E0
2.127877930E0,-4.830301762E0,6.047154903E0,-6.169259071E0,9.897456998E0
2.129870899E0,-4.830301762E0,6.090250492E0,-6.087856293E0,9.873447240E0
2.131863868E0,-4.844666958E0,6.142922878E0,-6.044760704E0,9.886628919E0
2.133856836E0,-4.849455357E0,6.181230068E0,-6.016030312E0,9.895324306E0
2.135849805E0,-4.849455357E0,6.219537258E0,-5.982511520E0,9.899005256E0
2.137842774E0,-4.878185749E0,6.257844925E0,-5.968146324E0,9.928549232E0
2.139835743E0,-4.902127743E0,6.286575317E0,-5.972934723E0,9.961316923E0
2.141828711E0,-4.935647011E0,6.339247704E0,-5.987299919E0,1.001970225E1
2.143821680E0,-4.973954201E0,6.372766495E0,-6.001665115E0,1.006838405E1
2.145814649E0,-4.983530998E0,6.415862083E0,-6.030395508E0,1.011753614E1
2.147807670E0,-4.964377403E0,6.425438881E0,-6.011241913E0,1.010278858E1
2.149800690E0,-4.945223808E0,6.439804077E0,-6.011241913E0,1.010254148E1
2.151793711E0,-4.940435410E0,6.482899666E0,-5.977723122E0,1.010787138E1
2.153786732E0,-5.012261391E0,6.535572052E0,-5.972934723E0,1.017410514E1
2.155779753E0,-5.084087372E0,6.631340027E0,-5.987299919E0,1.027960969E1
2.157772774E0,-5.185242176E0,6.684012413E0,-6.020818710E0,1.038330469E1
2.159765795E0,-5.237914562E0,6.731896400E0,-6.054337502E0,1.045988435E1
2.161758815E0,-5.261856556E0,6.774992466E0,-6.083067894E0,1.051624326E1
2.163751836E0,-5.237914562E0,6.779780865E0,-6.087856293E0,1.051014613E1
2.165744857E0,-5.204395771E0,6.731896400E0,-6.087856293E0,1.046260764E1
2.167737878E0,-5.165490150E0,6.698377609E0,-6.035183907E0,1.039105365E1
2.169730899E0,-5.108029366E0,6.664858818E0,-5.972934723E0,1.030476862E1
2.171723920E0,-5.055356979E0,6.626551628E0,-5.896320343E0,1.020952566E1
2.173716940E0,-4.978742599E0,6.597821236E0,-5.824494362E0,1.011157048E1
2.175709961E0,-4.868608952E0,6.578667641E0,-5.767033577E0,1.001203762E1
2.177702982E0,-4.748898983E0,6.525995255E0,-5.699995518E0,9.880820033E0
2.179696003E0,-4.610035419E0,6.530783653E0,-5.652111530E0,9.790297567E0
2.181689024E0,-4.480748653E0,6.506841660E0,-5.613804340E0,9.691795295E0
2.183682045E0,-4.365826607E0,6.502053261E0,-5.575497150E0,9.613704127E0
2.185675065E0,-4.246116638E0,6.506841660E0,-5.537189960E0,9.540910205E0
2.187668086E0,-4.169502258E0,6.525995255E0,-5.503671169E0,9.500724156E0
2.189661107E0,-4.131195068E0,6.554725647E0,-5.508459568E0,9.506541317E0
2.191654128E0,-4.097676277E0,6.597821236E0,-5.498882771E0,9.516296951E0
2.193647097E0,-4.088099480E0,6.655282021E0,-5.479729176E0,9.541109368E0
2.195639961E0,-4.053982258E0,6.755838871E0,-5.541978359E0,9.632738714E0
2.197632722E0,-4.064157486E0,6.842030048E0,-5.652111530E0,9.760999744E0
2.199625482E0,-4.053982258E0,6.928221226E0,-5.690418720E0,9.839506426E0
2.201618243E0,-4.068945885E0,7.009624004E0,-5.671265125E0,9.892138162E0
2.203611003E0,-4.053982258E0,7.091625214E0,-5.647323132E0,9.930668601E0
2.205603763E0,-4.034828186E0,7.158663273E0,-5.652111530E0,9.973598302E0
2.207596524E0,-4.025251389E0,7.216124058E0,-5.632957935E0,1.000026551E1
2.209589284E0,-4.034828186E0,7.254431248E0,-5.613804340E0,1.002104837E1
2.211582045E0,-4.053982258E0,7.268796444E0,-5.599439144E0,1.003114613E1
2.213574805E0,-4.058770657E0,7.268796444E0,-5.561131954E0,1.001175357E1
2.215567565E0,-4.126406670E0,7.240066051E0,-5.532401562E0,1.000266242E1
2.217560378E0,-4.193444252E0,7.220912457E0,-5.446210384E0,9.969340949E0
2.219553190E0,-4.265270233E0,7.168240070E0,-5.283404827E0,9.873730928E0
2.221546003E0,-4.356249809E0,7.115567684E0,-5.115810394E0,9.786712005E0
2.223538868E0,-4.399345398E0,7.091625214E0,-4.933252811E0,9.694450547E0
2.225531732E0,-4.461595058E0,7.058106422E0,-4.717774391E0,9.590625211E0
2.227524597E0,-4.538209438E0,7.062894821E0,-4.540603638E0,9.544470103E0
2.229517513E0,-4.605247021E0,7.048529625E0,-4.368220806E0,9.485326721E0
2.231510482E0,-4.701014996E0,7.091625214E0,-4.224568844E0,9.499351140E0
2.233503451E0,-4.787206173E0,7.139509678E0,-4.100070477E0,9.523682024E0
2.235496420E0,-4.854243755E0,7.158663273E0,-3.946243048E0,9.506996186E0
2.237489388E0,-4.906916618E0,7.196970463E0,-3.807379246E0,9.506332167E0
2.239482357E0,-4.911705017E0,7.230489254E0,-3.663727045E0,9.477748514E0
2.241475326E0,-4.906916618E0,7.225700855E0,-3.520075083E0,9.416979990E0
2.243468295E0,-4.930858612E0,7.235277653E0,-3.362057686E0,9.379021337E0
2.245461263E0,-4.940435410E0,7.230489254E0,-3.227982521E0,9.333153167E0
2.247454232E0,-4.921281815E0,7.225700855E0,-3.084330320E0,9.270537259E0
2.249447201E0,-4.878185749E0,7.216124058E0,-3.002927542E0,9.213398745E0
2.251440170E0,-4.811148167E0,7.192182064E0,-2.959831953E0,9.145230162E0
2.253433138E0,-4.748898983E0,7.158663273E0,-2.959831953E0,9.086204191E0
2.255426107E0,-4.653131008E0,7.115567684E0,-2.969408751E0,9.005571607E0
2.257419076E0,-4.576516628E0,7.091625214E0,-2.988562346E0,8.953611423E0
2.259412045E0,-4.480748653E0,7.082048416E0,-2.983773947E0,8.895809420E0
2.261405013E0,-4.423287868E0,7.105990410E0,-2.964620352E0,8.879726860E0
2.263397982E0,-4.408922195E0,7.115567684E0,-2.935889721E0,8.870701598E0
2.265390951E0,-4.413711071E0,7.115567684E0,-2.964620352E0,8.882630394E0
2.267383920E0,-4.380191803E0,7.101202011E0,-3.060388327E0,8.887020139E0
2.269376888E0,-4.380191803E0,7.034164429E0,-3.204040527E0,8.884335943E0
2.271369857E0,-4.351461411E0,6.947374821E0,-3.381211281E0,8.867571428E0
2.273362826E0,-4.341884613E0,6.851606846E0,-3.558382273E0,8.857683826E0
2.275355534E0,-4.322731018E0,6.751050472E0,-3.682880878E0,8.821921418E0
2.277348243E0,-4.313154221E0,6.640916824E0,-3.836109638E0,8.798909748E0
2.279340951E0,-4.303577423E0,6.530783653E0,-3.960608244E0,8.766888355E0
2.281333659E0,-4.265270233E0,6.406285286E0,-4.061763287E0,8.702352689E0
2.283326368E0,-4.222174644E0,6.286575317E0,-4.147954464E0,8.634426106E0
2.285319076E0,-4.183867455E0,6.195595264E0,-4.238934040E0,8.594108991E0
2.287311784E0,-4.169502258E0,6.114192486E0,-4.368220806E0,8.593570378E0
2.289304545E0,-4.169502258E0,6.099827290E0,-4.420893669E0,8.610281231E0
2.291297357E0,-4.159925461E0,6.090250492E0,-4.487931252E0,8.633519434E0
2.293290222E0,-4.112041473E0,6.109404087E0,-4.511873245E0,8.636590969E0
2.295283138E0,-4.053982258E0,6.152499676E0,-4.487931252E0,8.627256303E0
2.297276107E0,-3.958214045E0,6.171653271E0,-4.396951199E0,8.549265604E0
2.299269128E0,-3.833715439E0,6.214748859E0,-4.267664433E0,8.457744212E0
2.301262149E0,-3.699640274E0,6.262633324E0,-4.085705280E0,8.342715502E0
2.303255170E0,-3.594295263E0,6.300940514E0,-3.893570423E0,8.232903524E0
2.305248190E0,-3.555988073E0,6.353612900E0,-3.644573450E0,8.142257899E0
2.307241211E0,-3.527257681E0,6.382343292E0,-3.462614298E0,8.072518221E0
2.309234232E0,-3.503315687E0,6.406285286E0,-3.232770920E0,7.985268924E0
2.311227253E0,-3.584718466E0,6.396708488E0,-3.108272314E0,7.964260339E0
2.313220274E0,-3.623025656E0,6.382343292E0,-2.935889721E0,7.904433519E0
2.315213295E0,-3.733159065E0,6.367978096E0,-2.844311714E0,7.910608748E0
2.317206315E0,-3.848080635E0,6.387131691E0,-2.801215887E0,7.965549966E0
2.319199336E0,-3.977367640E0,6.377554893E0,-2.854486942E0,8.039947479E0
2.321192357E0,-4.049193859E0,6.396708488E0,-2.945466757E0,8.123399831E0
2.323185378E0,-4.121618271E0,6.372766495E0,-3.022081137E0,8.169018568E0
2.325178399E0,-4.179079056E0,6.387131691E0,-3.084330320E0,8.232450821E0
2.327171420E0,-4.207809448E0,6.391920090E0,-3.137002707E0,8.270615985E0
2.329164440E0,-4.246116638E0,6.401496887E0,-3.180098295E0,8.313945758E0
2.331157461E0,-4.236539841E0,6.439804077E0,-3.251924515E0,8.366263170E0
2.333150482E0,-4.289212227E0,6.521206856E0,-3.342904091E0,8.491082860E0
2.335143503E0,-4.313154221E0,6.593032837E0,-3.414730072E0,8.586720141E0
2.337136576E0,-4.370615005E0,6.664858818E0,-3.591901064E0,8.742103399E0
2.339129701E0,-4.471171856E0,6.789357662E0,-3.831321239E0,8.986978228E0
2.341122826E0,-4.557363033E0,6.904279232E0,-4.191050053E0,9.273808822E0
2.343115951E0,-4.590881824E0,7.029376030E0,-4.492719650E0,9.522229421E0
2.345109076E0,-4.619612217E0,7.163451672E0,-4.780023575E0,9.772639473E0
2.347102201E0,-4.610035419E0,7.326257229E0,-4.981136799E0,9.986901189E0
2.349095326E0,-4.557363033E0,7.431602001E0,-5.149329185E0,1.012491270E1
2.351088451E0,-4.547786236E0,7.522581577E0,-5.369596004E0,1.030068709E1
2.353081576E0,-4.557363033E0,7.570465565E0,-5.532401562E0,1.042540041E1
2.355074701E0,-4.547786236E0,7.642292023E0,-5.604227543E0,1.051162943E1
2.357067826E0,-4.557363033E0,7.671022415E0,-5.623381138E0,1.054687433E1
2.359060951E0,-4.633977413E0,7.757213593E0,-5.647323132E0,1.065553227E1
2.361053920E0,-4.763264179E0,7.824251175E0,-5.637746334E0,1.075601115E1
2.363046836E0,-4.859032154E0,7.848193169E0,-5.623381138E0,1.080864214E1
2.365039753E0,-4.950012207E0,7.905653954E0,-5.532401562E0,1.084478918E1
2.367032670E0,-5.050568581E0,7.905653954E0,-5.446210384E0,1.084752575E1
2.369025586E0,-5.098452568E0,7.881711960E0,-5.321712017E0,1.079056165E1
2.371018503E0,-5.146336555E0,7.867346764E0,-5.202001572E0,1.074433550E1
2.373011420E0,-5.175066948E0,7.800309181E0,-5.076904774E0,1.064899541E1
2.375004336E0,-5.218760967E0,7.800309181E0,-4.914099216E0,1.059380293E1
2.376997253E0,-5.213972569E0,7.752425194E0,-4.808753967E0,1.050760301E1
2.378990170E0,-5.185242176E0,7.766790390E0,-4.674678802E0,1.044329408E1
2.380983086E0,-5.088875771E0,7.747636795E0,-4.578910828E0,1.033871157E1
2.382976003E0,-4.988319397E0,7.829039574E0,-4.540603638E0,1.033413143E1
2.384968920E0,-4.921281815E0,7.891288757E0,-4.569334030E0,1.036196248E1
2.386961836E0,-4.815936565E0,7.934384346E0,-4.631583214E0,1.037300646E1
2.388954805E0,-4.724956989E0,8.006210327E0,-4.660313606E0,1.039918964E1
2.390947774E0,-4.547786236E0,7.991845131E0,-4.775235176E0,1.036121707E1
2.392940743E0,-4.428076267E0,7.987056732E0,-4.875791550E0,1.035250105E1
2.394933711E0,-4.294000626E0,8.030152321E0,-4.966771603E0,1.037258925E1
2.396926680E0,-4.174290657E0,7.987056732E0,-5.072116375E0,1.034138009E1
2.398919649E0,-4.025251389E0,7.977479935E0,-5.019443989E0,1.024878787E1
2.400912670E0,-3.948637247E0,7.953537941E0,-5.076904774E0,1.022865895E1
2.402905743E0,-3.891176224E0,7.943961143E0,-5.043385983E0,1.018251016E1
2.404898868E0,-3.876811028E0,7.991845131E0,-5.005078793E0,1.019559052E1
2.406892045E0,-3.800196648E0,7.996633530E0,-5.024232388E0,1.017990930E1
2.408885222E0,-3.785831451E0,8.025363922E0,-5.014655590E0,1.019243624E1
2.410878399E0,-3.685275078E0,8.039729118E0,-5.024232388E0,1.017159809E1
2.412871576E0,-3.570353270E0,8.025363922E0,-5.158905983E0,1.018666773E1
2.414864753E0,-3.469796896E0,8.039729118E0,-5.225943565E0,1.019741246E1
2.416857930E0,-3.374028683E0,8.092401505E0,-5.264250755E0,1.022660098E1
2.418851107E0,-3.235165119E0,8.097189903E0,-5.340865612E0,1.022524441E1
2.420844180E0,-3.129820108E0,8.183979988E0,-5.345654011E0,1.026398164E1
2.422837149E0,-3.101089716E0,8.308478355E0,-5.340865612E0,1.035241110E1
2.424830118E0,-3.034052134E0,8.428188324E0,-5.316923618E0,1.041678969E1
2.426823086E0,-2.913743496E0,8.476072311E0,-5.355230808E0,1.044089077E1
2.428816055E0,-2.856282711E0,8.523956299E0,-5.379172802E0,1.047624369E1
2.430809024E0,-2.856282711E0,8.619724274E0,-5.316923618E0,1.052272181E1
2.432801993E0,-2.808398485E0,8.677185059E0,-5.350442410E0,1.057392437E1
2.434794961E0,-2.784456491E0,8.715493202E0,-5.393537998E0,1.062088847E1
2.436787930E0,-2.731784105E0,8.734646797E0,-5.412691593E0,1.063268213E1
2.438780899E0,-2.693476915E0,8.772953987E0,-5.427056789E0,1.066172992E1
2.440773868E0,-2.626439333E0,8.801684380E0,-5.422268391E0,1.066624704E1
2.442766836E0,-2.468421936E0,8.801684380E0,-5.450998783E0,1.064312654E1
2.444759805E0,-2.387019157E0,8.792107582E0,-5.470152378E0,1.062645676E1
2.446752774E0,-2.353500366E0,8.863933563E0,-5.422268391E0,1.065407324E1
2.448745743E0,-2.334346771E0,8.839991570E0,-5.494094372E0,1.066675671E1
2.450738711E0,-2.363077164E0,8.849568367E0,-5.470152378E0,1.066871881E1
2.452731680E0,-2.377442360E0,8.796895981E0,-5.431845188E0,1.060860751E1
2.454724649E0,-2.324769735E0,8.739435196E0,-5.403114796E0,1.053451144E1
2.456717618E0,-2.291250944E0,8.648454666E0,-5.412691593E0,1.045671216E1
2.458710586E0,-2.248155355E0,8.590993881E0,-5.316923618E0,1.035031667E1
2.460703555E0,-2.243366957E0,8.552686691E0,-5.292981625E0,1.030518313E1
2.462696524E0,-2.257732153E0,8.495225906E0,-5.192424774E0,1.020918668E1
2.464689493E0,-2.300827742E0,8.389881134E0,-5.182847977E0,1.012649134E1
2.466682461E0,-2.363077164E0,8.332420349E0,-5.043385983E0,1.002243008E1
2.468675430E0,-2.372653961E0,8.198345184E0,-5.009867191E0,9.896520593E0
2.470668399E0,-2.425326347E0,8.068459511E0,-4.981136799E0,9.787439429E0
2.472661368E0,-2.521094322E0,7.982268333E0,-4.847061157E0,9.672979179E0
2.474654336E0,-2.564189911E0,7.872135162E0,-4.775235176E0,9.557638458E0
2.476647305E0,-2.616862535E0,7.781155586E0,-4.693832397E0,9.456554043E0
2.478640274E0,-2.698265314E0,7.742848396E0,-4.507084846E0,9.356610006E0
2.480633243E0,-2.636016130E0,7.560888767E0,-4.507084846E0,9.188549059E0
2.482626211E0,-2.583343744E0,7.402871609E0,-4.502296448E0,9.041396256E0
2.484619180E0,-2.621650934E0,7.331045628E0,-4.478354454E0,8.981811745E0
2.486612149E0,-2.703053713E0,7.283161640E0,-4.483142853E0,8.969365233E0
2.488605118E0,-2.803610086E0,7.244854450E0,-4.559757233E0,9.007748417E0
2.490598086E0,-2.904166698E0,7.173028469E0,-4.775235176E0,9.093370806E0
2.492591055E0,-2.971802950E0,7.101202011E0,-4.947618008E0,9.150825467E0
2.494584024E0,-3.000533342E0,7.043741226E0,-5.202001572E0,9.256257945E0
2.496576993E0,-2.986168146E0,7.067683220E0,-5.355230808E0,9.356700450E0
2.498569961E0,-2.947860956E0,7.125144482E0,-5.465363979E0,9.451337023E0
2.500562930E0,-2.832340717E0,7.115567684E0,-5.628169537E0,9.504196428E0
2.502555899E0,-2.717418909E0,7.187393665E0,-5.609015942E0,9.513361817E0
2.504548868E0,-2.636016130E0,7.292738438E0,-5.556343555E0,9.539683887E0
2.506541836E0,-2.573766708E0,7.340622425E0,-5.580285549E0,9.573327502E0
2.508534805E0,-2.535459518E0,7.350199223E0,-5.551555157E0,9.553729546E0
2.510527774E0,-2.525882721E0,7.292738438E0,-5.580285549E0,9.523849235E0
2.512520690E0,-2.564189911E0,7.220912457E0,-5.594650745E0,9.487716457E0
2.514513607E0,-2.612074137E0,7.110779285E0,-5.589862347E0,9.414492785E0
2.516506420E0,-2.640804529E0,6.966528416E0,-5.565920353E0,9.299776132E0
2.518499232E0,-2.717418909E0,6.818088055E0,-5.556343555E0,9.205631100E0
2.520492045E0,-2.779668093E0,6.684012413E0,-5.498882771E0,9.090670403E0
2.522484857E0,-2.803610086E0,6.549937248E0,-5.489305973E0,8.994130727E0
2.524477670E0,-2.789244890E0,6.415862083E0,-5.374384403E0,8.821971494E0
2.526470482E0,-2.822763920E0,6.305728912E0,-5.393537998E0,8.764728484E0
2.528463295E0,-2.822763920E0,6.214748859E0,-5.312135220E0,8.649270497E0
2.530456107E0,-2.861071110E0,6.147711277E0,-5.216366768E0,8.555148397E0
2.532448920E0,-2.928108692E0,6.109404087E0,-5.144540787E0,8.506758414E0
2.534441732E0,-3.010110140E0,6.109404087E0,-5.005078793E0,8.452005388E0
2.536434545E0,-3.120243311E0,6.157288074E0,-4.885368347E0,8.456650557E0
2.538427357E0,-3.278260708E0,6.233902454E0,-4.775235176E0,8.509489060E0
2.540420170E0,-3.421912670E0,6.324882507E0,-4.722562790E0,8.603268237E0
2.542412982E0,-3.584718466E0,6.406285286E0,-4.861426353E0,8.804780737E0
2.544405795E0,-3.699640274E0,6.506841660E0,-4.966771603E0,8.983047740E0
2.546398607E0,-3.757101059E0,6.607398033E0,-5.072116375E0,9.137826966E0
2.548391472E0,-3.819350243E0,6.727108002E0,-5.197213173E0,9.319465817E0
2.550384388E0,-3.953425646E0,6.856395245E0,-5.450998783E0,9.610052956E0
2.552377357E0,-4.058770657E0,6.961740017E0,-5.637746334E0,9.834817082E0
2.554370326E0,-4.188655853E0,7.038952827E0,-6.006453514E0,1.015722298E1
2.556363295E0,-4.332307816E0,7.120356083E0,-6.375759125E0,1.049374414E1
2.558356315E0,-4.452018261E0,7.235277653E0,-6.691793919E0,1.081433378E1
2.560349336E0,-4.519055843E0,7.316680431E0,-7.184999466E0,1.120624360E1
2.562342357E0,-4.542997837E0,7.369352818E0,-7.650073051E0,1.155291340E1
2.564335378E0,-4.538209438E0,7.479485989E0,-8.124124527E0,1.193898886E1
2.566328399E0,-4.499902248E0,7.570465565E0,-8.493430138E0,1.223517162E1
2.568321420E0,-4.408922195E0,7.637503624E0,-8.785523415E0,1.244811143E1
2.570314440E0,-4.250905037E0,7.718906403E0,-8.910021782E0,1.253156805E1
2.572307461E0,-4.092887878E0,7.824251175E0,-8.972270966E0,1.258857752E1
2.574300378E0,-3.963002443E0,7.920019150E0,-8.986636162E0,1.261712016E1
2.576293295E0,-3.867234230E0,8.015787125E0,-8.886079788E0,1.257659564E1
2.578286211E0,-3.781043053E0,8.092401505E0,-8.795100212E0,1.253543124E1
2.580279128E0,-3.742735863E0,8.150461197E0,-8.675390244E0,1.247800005E1
2.582272045E0,-3.666121244E0,8.164826393E0,-8.579621315E0,1.239817474E1
2.584264961E0,-3.656544447E0,8.203133583E0,-8.449736595E0,1.233125162E1
2.586257878E0,-3.642179251E0,8.183979988E0,-8.459313393E0,1.232083525E1
2.588250795E0,-3.627814054E0,8.169614792E0,-8.344391823E0,1.222834885E1
2.590243711E0,-3.551199675E0,8.121131897E0,-8.358757019E0,1.218329271E1
2.592236628E0,-3.431489468E0,8.087613106E0,-8.368333817E0,1.213316185E1
2.594229545E0,-3.283049107E0,8.058882713E0,-8.325238228E0,1.204298940E1
2.596222461E0,-3.153762102E0,8.044517517E0,-8.353968620E0,1.201870497E1
2.598215430E0,-3.067570925E0,8.068459511E0,-8.258200645E0,1.194604153E1
2.600208451E0,-3.005321741E0,8.073247910E0,-8.186373711E0,1.188385481E1
2.602201472E0,-2.943072557E0,8.078036308E0,-8.210315704E0,1.188804570E1
2.604194493E0,-2.813186884E0,8.087613106E0,-8.224681854E0,1.187303238E1
2.606187565E0,-2.679111719E0,8.092401505E0,-8.215105057E0,1.183860434E1
2.608180690E0,-2.530671120E0,8.155249596E0,-8.195950508E0,1.183579305E1
2.610173815E0,-2.401384354E0,8.164826393E0,-8.186373711E0,1.180879974E1
2.612166940E0,-2.305616140E0,8.193556786E0,-8.081028938E0,1.173683378E1
2.614160065E0,-2.190694571E0,8.222287178E0,-7.961318970E0,1.165280004E1
2.616153190E0,-2.047042370E0,8.241440773E0,-7.769783020E0,1.151005025E1
2.618146315E0,-1.941697598E0,8.279747963E0,-7.563881874E0,1.138142016E1
2.620139440E0,-1.860294700E0,8.351573944E0,-7.386710644E0,1.130367099E1
2.622132565E0,-1.783081770E0,8.389881134E0,-7.189787865E0,1.119207468E1
2.624125586E0,-1.768716455E0,8.409034729E0,-7.089231014E0,1.113990212E1
2.626118503E0,-1.763928056E0,8.423399925E0,-6.959944248E0,1.106823981E1
2.628111420E0,-1.773504853E0,8.418611526E0,-6.873753071E0,1.101212154E1
2.630104336E0,-1.716044068E0,8.380304337E0,-6.845022678E0,1.095575846E1
2.632097253E0,-1.682525277E0,8.337208748E0,-6.926425457E0,1.096883360E1
2.634090170E0,-1.605910778E0,8.327631950E0,-6.864176273E0,1.091078912E1
2.636083086E0,-1.529296279E0,8.356362343E0,-6.835445881E0,1.090370850E1
2.638076003E0,-1.443105102E0,8.351573944E0,-6.840234280E0,1.089128756E1
2.640068920E0,-1.371279001E0,8.389881134E0,-6.792350292E0,1.088147665E1
2.642061836E0,-1.318606615E0,8.409034729E0,-6.749254704E0,1.086291984E1
2.644054753E0,-1.304241419E0,8.447341919E0,-6.667851925E0,1.084061255E1
2.646047670E0,-1.227626920E0,8.447341919E0,-6.639121532E0,1.081399963E1
2.648040586E0,-1.218050122E0,8.442553520E0,-6.605602264E0,1.078862073E1
2.650033503E0,-1.218050122E0,8.471283913E0,-6.548141479E0,1.077610570E1
2.652026420E0,-1.213261724E0,8.485649109E0,-6.524199486E0,1.077234532E1
2.654019336E0,-1.198896527E0,8.456918716E0,-6.600813866E0,1.079479369E1
2.656012253E0,-1.280299306E0,8.456918716E0,-6.596025467E0,1.080121255E1
2.658005170E0,-1.246780515E0,8.394669533E0,-6.572083473E0,1.073392842E1
2.659998086E0,-9.882067442E-1,8.231863976E0,-6.610390663E0,1.060365040E1
2.661991003E0,-1.127070427E0,8.265382767E0,-6.533776283E0,1.059608761E1
2.663983920E0,-1.361702204E0,8.313266754E0,-6.351817131E0,1.055036577E1
2.665976836E0,-1.486200690E0,8.327631950E0,-6.121375084E0,1.044171822E1
2.667969753E0,-1.601122379E0,8.284536362E0,-5.891531944E0,1.029112648E1
2.669962670E0,-1.596333981E0,8.198345184E0,-5.699995518E0,1.011192834E1
2.671955586E0,-1.586757183E0,8.092401505E0,-5.498882771E0,9.911734066E0
2.673948555E0,-1.538873196E0,8.001421928E0,-5.283404827E0,9.711089030E0
2.675941576E0,-1.409586191E0,7.843404770E0,-5.076904774E0,9.448856740E0
2.677934649E0,-1.313818216E0,7.723694801E0,-4.923676014E0,9.253332653E0
2.679927774E0,-1.275510907E0,7.584830761E0,-4.712985992E0,9.020466879E0
2.681920951E0,-1.227626920E0,7.445967197E0,-4.559757233E0,8.817078960E0
2.683914180E0,-1.265934110E0,7.331045628E0,-4.325125217E0,8.605435916E0
2.685907409E0,-1.323395014E0,7.216124058E0,-4.090493679E0,8.399759480E0
2.687900638E0,-1.452681899E0,7.129932880E0,-3.922300816E0,8.266236826E0
2.689893920E0,-1.467047095E0,6.995258808E0,-3.769072056E0,8.080332737E0
2.691887201E0,-1.524507880E0,6.894702435E0,-3.663727045E0,7.955120477E0
2.693880482E0,-1.534084797E0,6.798934460E0,-3.529651880E0,7.812641573E0
2.695873763E0,-1.486200690E0,6.703166008E0,-3.457825899E0,7.687508502E0
2.697867045E0,-1.423951507E0,6.588244438E0,-3.405153275E0,7.551666802E0
2.699860326E0,-1.385644197E0,6.502053261E0,-3.385999680E0,7.460676932E0
2.701853451E0,-1.352125406E0,6.406285286E0,-3.390788078E0,7.373342395E0
2.703846524E0,-1.385644197E0,6.363189697E0,-3.390788078E0,7.342182016E0
2.705839545E0,-1.443105102E0,6.324882507E0,-3.409941673E0,7.329010389E0
2.707832409E0,-1.438316703E0,6.281786919E0,-3.443460703E0,7.306642419E0
2.709825274E0,-1.371279001E0,6.205172062E0,-3.500921488E0,7.255412992E0
2.711818138E0,-1.347337008E0,6.142922878E0,-3.529651880E0,7.211744650E0
2.713811003E0,-1.318606615E0,6.075885296E0,-3.539228678E0,7.154106874E0
2.715803868E0,-1.409586191E0,6.037578106E0,-3.587112665E0,7.162866737E0
2.717796732E0,-1.558026791E0,6.018424511E0,-3.630208254E0,7.199117518E0
2.719789597E0,-1.682525277E0,5.984905720E0,-3.687669277E0,7.228339538E0
2.721782461E0,-1.792658567E0,5.946598530E0,-3.725976467E0,7.242828139E0
2.723775326E0,-1.912967205E0,5.951386929E0,-3.807379246E0,7.319466280E0
2.725768190E0,-1.951274395E0,5.883750439E0,-3.850474834E0,7.297406898E0
2.727761055E0,-1.927332401E0,5.859808445E0,-3.893570423E0,7.294645696E0
2.729753920E0,-1.936909199E0,5.816712856E0,-3.955819845E0,7.296182313E0
2.731746732E0,-1.994369984E0,5.807136059E0,-4.052186489E0,7.356667464E0
2.733739440E0,-1.936909199E0,5.711368084E0,-4.138377666E0,7.314199365E0
2.735732149E0,-1.936909199E0,5.634753704E0,-4.329913616E0,7.365474762E0
2.737724857E0,-1.975216389E0,5.562927723E0,-4.497508049E0,7.421268307E0
2.739717565E0,-2.051830769E0,5.433640957E0,-4.780023575E0,7.522173152E0
2.741710274E0,-2.032677174E0,5.146336555E0,-5.019443989E0,7.470701064E0
2.743702982E0,-1.735197663E0,4.235941410E0,-5.503671169E0,7.158526867E0
2.745695690E0,-1.984793186E0,3.579331636E0,-5.814917564E0,7.110856857E0
2.747688451E0,-2.986168146E0,4.302978992E0,-5.062539577E0,7.284376115E0
2.749681263E0,-3.589506865E0,5.380968094E0,-4.736927986E0,8.017347685E0
2.751674128E0,-3.737947464E0,6.013636112E0,-4.349067211E0,8.309660411E0
2.753667045E0,-3.345298290E0,6.300940514E0,-3.457825899E0,7.927763364E0
2.755660013E0,-2.885013103E0,6.406285286E0,-3.342904091E0,7.780668322E0
2.757653034E0,-2.564189911E0,6.348824501E0,-4.435258865E0,8.158073525E0
2.759646107E0,-2.200271368E0,6.195595264E0,-5.197213173E0,8.380788718E0
2.761639180E0,-2.104503393E0,6.166864872E0,-5.877166748E0,8.774978397E0
2.763632253E0,-2.013523579E0,6.090250492E0,-6.648698330E0,9.238539806E0
2.765625326E0,-1.975216389E0,6.018424511E0,-7.338228226E0,9.693941761E0
2.767618399E0,-2.003946781E0,5.980117321E0,-7.903858185E0,1.011180400E1
2.769611472E0,-2.080561161E0,6.032789707E0,-8.310873032E0,1.047825830E1
2.771604545E0,-2.114080191E0,6.138134480E0,-8.627506256E0,1.079721696E1
2.773597513E0,-1.855506301E0,6.085462093E0,-8.819042206E0,1.087433943E1
2.775590482E0,-1.792658567E0,6.061520100E0,-8.890868187E0,1.090885823E1
2.777583399E0,-1.759139657E0,5.975328922E0,-8.895656586E0,1.085964245E1
2.779576315E0,-1.725620866E0,5.855020046E0,-8.847772598E0,1.074905145E1
2.781569232E0,-1.792658567E0,5.778405666E0,-8.747216225E0,1.063566587E1
2.783562149E0,-2.032677174E0,5.956175327E0,-8.531737328E0,1.060180847E1
2.785555065E0,-2.276885748E0,6.291363716E0,-8.071452141E0,1.048397853E1
2.787547982E0,-2.363077164E0,6.569090843E0,-7.884704590E0,1.053117537E1
2.789540899E0,-2.406172752E0,6.703166008E0,-7.860762596E0,1.060724707E1
2.791533815E0,-2.454056740E0,6.684012413E0,-7.932588577E0,1.065947362E1
2.793526732E0,-2.573766708E0,6.693589211E0,-7.937376976E0,1.069721295E1
2.795519649E0,-2.679111719E0,6.640916824E0,-8.085817337E0,1.080091931E1
2.797512565E0,-2.986168146E0,6.712742805E0,-8.258200645E0,1.105332502E1
2.799505482E0,-3.172915697E0,6.751050472E0,-8.363545418E0,1.120682687E1
2.801498399E0,-3.450643301E0,6.875548840E0,-8.459313393E0,1.143416346E1
2.803491315E0,-3.555988073E0,6.933009624E0,-8.483853340E0,1.151900348E1
2.805484284E0,-3.397970676E0,6.794146061E0,-8.469488144E0,1.137711980E1
2.807477305E0,-3.359663486E0,6.736684799E0,-8.483853340E0,1.134222325E1
2.809470326E0,-3.450643301E0,6.875548840E0,-8.421006203E0,1.140585185E1
2.811463347E0,-3.455431700E0,7.019799232E0,-8.272565842E0,1.138652428E1
2.813456368E0,-3.359663486E0,7.096413612E0,-8.157643318E0,1.132225991E1
2.815449388E0,-3.263895512E0,7.216124058E0,-8.013991356E0,1.126718766E1
2.817442409E0,-3.168127298E0,7.331045628E0,-7.865550995E0,1.120928869E1
2.819435430E0,-3.034052134E0,7.469909191E0,-7.602189064E0,1.108143918E1
2.821428451E0,-2.928108692E0,7.642292023E0,-7.357980251E0,1.100537692E1
2.823421472E0,-2.885013103E0,7.872135162E0,-7.108384609E0,1.099194907E1
2.825414493E0,-2.755726099E0,7.996633530E0,-6.864176273E0,1.089298352E1
2.827407513E0,-2.664746523E0,8.092401505E0,-6.667851925E0,1.081887635E1
2.829400534E0,-2.468421936E0,8.111555099E0,-6.428431511E0,1.064026149E1
2.831393555E0,-2.363077164E0,8.155249596E0,-6.303933144E0,1.057505568E1
2.833386576E0,-2.334346771E0,8.260594368E0,-6.217143059E0,1.059903118E1
2.835379597E0,-2.276885748E0,8.337208748E0,-6.145317078E0,1.060463014E1
2.837372618E0,-2.286462545E0,8.409034729E0,-6.030395508E0,1.059742639E1
2.839365638E0,-2.300827742E0,8.437765121E0,-5.925050735E0,1.056389676E1
2.841358659E0,-2.257732153E0,8.432976723E0,-5.776610374E0,1.046812678E1
2.843351680E0,-2.233790159E0,8.389881134E0,-5.585073948E0,1.032341876E1
2.845344701E0,-2.152387381E0,8.361150742E0,-5.331288815E0,1.014713031E1
2.847337722E0,-2.027888775E0,8.337208748E0,-5.149329185E0,1.000684634E1
2.849330743E0,-1.903390408E0,8.361150742E0,-4.952406406E0,9.902427277E0
2.851323763E0,-1.725620866E0,8.409034729E0,-4.660313606E0,9.767709832E0
2.853316784E0,-1.577180386E0,8.437765121E0,-4.492719650E0,9.688545199E0
2.855309805E0,-1.457470298E0,8.418611526E0,-4.315548420E0,9.571896252E0
2.857302826E0,-1.347337008E0,8.251017570E0,-4.301183224E0,9.401850088E0
2.859295847E0,-1.409586191E0,8.063671112E0,-4.928464413E0,9.555076478E0
2.861288868E0,-1.318606615E0,8.183979988E0,-5.479729176E0,9.936985644E0
2.863281888E0,-1.170166135E0,8.432976723E0,-4.267664433E0,9.523515364E0
2.865274909E0,-9.786299467E-1,8.413823128E0,-2.940678120E0,8.966477792E0
2.867267930E0,-1.112705231E0,8.576628685E0,-2.207453966E0,8.925778708E0
2.869260951E0,-1.289876223E0,8.672396660E0,-2.159569979E0,9.029838702E0
2.871253972E0,-1.332971811E0,8.691550255E0,-2.418143749E0,9.119609579E0
2.873246993E0,-1.452681899E0,8.782530785E0,-2.485181332E0,9.242253942E0
2.875240013E0,-1.404797792E0,8.658031464E0,-2.796427488E0,9.206246377E0
2.877233034E0,-1.419163108E0,8.562263489E0,-3.074753523E0,9.207632117E0
2.879226055E0,-1.514931083E0,8.528744698E0,-3.213617325E0,9.239147072E0
2.881218920E0,-1.629852772E0,8.428188324E0,-3.539228678E0,9.285306571E0
2.883211784E0,-1.821987510E0,8.327631950E0,-3.946243048E0,9.393717399E0
2.885204649E0,-2.027888775E0,8.212710381E0,-4.358644009E0,9.516234669E0
2.887197513E0,-2.200271368E0,8.106766701E0,-4.674678802E0,9.613193140E0
2.889190378E0,-2.406172752E0,8.049305916E0,-4.880579948E0,9.716020465E0
2.891183243E0,-2.578555346E0,7.953537941E0,-5.005078793E0,9.744666601E0
2.893176107E0,-2.683900118E0,7.829039574E0,-5.086481571E0,9.714395260E0
2.895168972E0,-2.832340717E0,7.738059998E0,-5.096656799E0,9.688944060E0
2.897161836E0,-2.990956545E0,7.589619160E0,-5.130175591E0,9.636744348E0
2.899154701E0,-3.196857929E0,7.445967197E0,-5.178059578E0,9.616372971E0
2.901147565E0,-3.421912670E0,7.551311970E0,-5.038597584E0,9.701508357E0
2.903140430E0,-3.670909643E0,7.613561630E0,-5.043385983E0,9.842643978E0
2.905133295E0,-3.881599426E0,7.623138428E0,-5.163694382E0,9.992136571E0
2.907126159E0,-4.088099480E0,7.556100368E0,-5.316923618E0,1.010331069E1
2.909119024E0,-4.270058632E0,7.460332394E0,-5.532401562E0,1.022239831E1
2.911111888E0,-4.485537052E0,7.369352818E0,-5.781398773E0,1.038518057E1
2.913104753E0,-4.720168591E0,7.287950039E0,-6.078279495E0,1.059904189E1
2.915097618E0,-4.930858612E0,7.216124058E0,-6.438008308E0,1.085512616E1
2.917090482E0,-5.069722176E0,7.182605267E0,-6.873753071E0,1.115976624E1
2.919083399E0,-5.141548157E0,7.139509678E0,-7.299921036E0,1.143227725E1
2.921076315E0,-5.151124954E0,7.144298077E0,-7.635707855E0,1.165671985E1
2.923069284E0,-5.204395771E0,7.144298077E0,-7.932588577E0,1.187656061E1
2.925062253E0,-5.266644955E0,7.158663273E0,-8.181585312E0,1.207983225E1
2.927055222E0,-5.486911774E0,7.254431248E0,-8.479064941E0,1.243493128E1
2.929048190E0,-5.534795761E0,7.292738438E0,-8.790311813E0,1.269202820E1
2.931041159E0,-5.530007362E0,7.307103634E0,-9.001001358E0,1.284495116E1
2.933034128E0,-5.544372559E0,7.311892033E0,-9.240421295E0,1.302264251E1
2.935027097E0,-5.419874191E0,7.283161640E0,-9.388861656E0,1.306025279E1
2.937020065E0,-5.415085793E0,7.331045628E0,-9.513360023E0,1.317465002E1
2.939013034E0,-5.371990204E0,7.412448406E0,-9.643245697E0,1.329642274E1
2.941006003E0,-5.257068157E0,7.517793179E0,-9.652822495E0,1.331656720E1
2.942998972E0,-5.151124954E0,7.671022415E0,-9.614515305E0,1.333482575E1
2.944991940E0,-5.040991783E0,7.819462776E0,-9.460687637E0,1.326876810E1
2.946984909E0,-5.007472992E0,7.963114738E0,-9.307458878E0,1.323309385E1
2.948977878E0,-4.997896194E0,8.034940720E0,-9.096769333E0,1.312594572E1
2.950970847E0,-5.007472992E0,8.044517517E0,-8.886079788E0,1.299043732E1
2.952963815E0,-4.969165802E0,8.015787125E0,-8.646659851E0,1.279492785E1
2.954956784E0,-4.959589005E0,7.939172745E0,-8.368333817E0,1.255615378E1
2.956949753E0,-4.902127743E0,7.809885979E0,-8.085817337E0,1.226399680E1
2.958942722E0,-4.787206173E0,7.680599213E0,-7.903858185E0,1.201581963E1
2.960935690E0,-4.696226597E0,7.570465565E0,-7.697957039E0,1.177391335E1
2.962928659E0,-4.581305027E0,7.441178799E0,-7.463325024E0,1.149176740E1
2.964921628E0,-4.490325451E0,7.278373241E0,-7.275979042E0,1.122842868E1
2.966914597E0,-4.428076267E0,7.153874874E0,-7.065289021E0,1.098654150E1
2.968907565E0,-4.408922195E0,7.009624004E0,-6.921637058E0,1.079270509E1
2.970900534E0,-4.394556999E0,6.904279232E0,-6.801927090E0,1.064177688E1
2.972893503E0,-4.519055843E0,6.808511257E0,-6.667851925E0,1.054693987E1
2.974886524E0,-4.461595058E0,6.674435616E0,-6.605602264E0,1.039653320E1
2.976879545E0,-4.308365822E0,6.540360451E0,-6.471527100E0,1.015967489E1
2.978872565E0,-4.015674591E0,6.430227280E0,-6.356605530E0,9.893427068E0
2.980865586E0,-3.934272051E0,6.463746071E0,-6.366182327E0,9.888720203E0
2.982858607E0,-3.977367640E0,6.578667641E0,-6.514622688E0,1.007663783E1
2.984851628E0,-3.900753021E0,6.707954407E0,-6.634333134E0,1.020915778E1
2.986844649E0,-3.742735863E0,6.751050472E0,-6.792350292E0,1.028206092E1
2.988837670E0,-3.608660460E0,6.842030048E0,-6.940790653E0,1.039280426E1
2.990830690E0,-3.484162092E0,6.894702435E0,-7.122750282E0,1.050761051E1
2.992823711E0,-3.364451885E0,6.928221226E0,-7.247248650E0,1.057555667E1
2.994816732E0,-3.273472309E0,7.029376030E0,-7.314286232E0,1.065957464E1
2.996809753E0,-3.211223125E0,7.086836815E0,-7.367557049E0,1.071522780E1
2.998802774E0,-3.163338900E0,7.158663273E0,-7.448959827E0,1.080463675E1
3.000795795E0,-3.163338900E0,7.249642849E0,-7.506421089E0,1.090460417E1
3.002788815E0,-3.163338900E0,7.326257229E0,-7.535151482E0,1.097539365E1
3.004781836E0,-3.211223125E0,7.340622425E0,-7.587823868E0,1.103502436E1
3.006774857E0,-3.283049107E0,7.335834026E0,-7.559093475E0,1.103325729E1
3.008767774E0,-3.350086689E0,7.311892033E0,-7.482479095E0,1.098518727E1
3.010760690E0,-3.350086689E0,7.244854450E0,-7.343615055E0,1.084618269E1
3.012753607E0,-3.287837505E0,7.153874874E0,-7.194576263E0,1.066535179E1
3.014746524E0,-3.201646328E0,7.053318024E0,-7.041347027E0,1.046806583E1
3.016739440E0,-3.120243311E0,6.952163219E0,-6.811503887E0,1.022081587E1
3.018732305E0,-2.986168146E0,6.870760441E0,-6.586448669E0,9.975262167E0
3.020725170E0,-2.837129116E0,6.760627270E0,-6.347028732E0,9.697430403E0
3.022718034E0,-2.703053713E0,6.693589211E0,-6.092644691E0,9.446213804E0
3.024710899E0,-2.645592928E0,6.688800812E0,-5.829282761E0,9.258496408E0
3.026703763E0,-2.592920542E0,6.664858818E0,-5.580285549E0,9.071006935E0
3.028696628E0,-2.549824715E0,6.616974831E0,-5.283404827E0,8.843094965E0
3.030689493E0,-2.564189911E0,6.569090843E0,-5.038597584E0,8.666919292E0
3.032682357E0,-2.535459518E0,6.468534470E0,-4.818330765E0,8.454986961E0
3.034675222E0,-2.482787132E0,6.377554893E0,-4.602852821E0,8.247647692E0
3.036668086E0,-2.439691544E0,6.272210121E0,-4.392162800E0,8.036405210E0
3.038660951E0,-2.401384354E0,6.190806866E0,-4.171896458E0,7.842031402E0
3.040653815E0,-2.391807556E0,6.114192486E0,-3.936666250E0,7.655157366E0
3.042646680E0,-2.358288765E0,6.018424511E0,-3.788225651E0,7.492236854E0
3.044639545E0,-2.410961151E0,6.004059315E0,-3.754706860E0,7.480593929E0
3.046632409E0,-2.578555346E0,6.118980885E0,-3.821744442E0,7.661370981E0
3.048625274E0,-2.808398485E0,6.286575317E0,-4.004302502E0,7.965084419E0
3.050618138E0,-3.067570925E0,6.497264862E0,-4.387374401E0,8.418639807E0
3.052611003E0,-3.239953518E0,6.722319603E0,-4.928464413E0,8.942966013E0
3.054603868E0,-3.259107113E0,6.928221226E0,-5.489305973E0,9.420961129E0
3.056596732E0,-3.144185305E0,7.139509678E0,-5.968146324E0,9.822284369E0
3.058589597E0,-2.943072557E0,7.331045628E0,-6.552929878E0,1.026385873E1
3.060582461E0,-2.856282711E0,7.541735172E0,-7.156269073E0,1.078185083E1
3.062575378E0,-2.707842112E0,7.671022415E0,-7.573458672E0,1.111459716E1
3.064568347E0,-2.631227732E0,7.785943985E0,-7.865550995E0,1.137590329E1
3.066561368E0,-2.530671120E0,7.862558365E0,-8.033144951E0,1.152195895E1
3.068554388E0,-2.449268341E0,7.862558365E0,-8.138489723E0,1.157815851E1
3.070547409E0,-2.473210335E0,7.886500359E0,-8.210315704E0,1.165001894E1
3.072540430E0,-2.477998734E0,7.891288757E0,-8.057086945E0,1.154684225E1
3.074533451E0,-2.516305923E0,7.905653954E0,-7.875127792E0,1.143891593E1
3.076526472E0,-2.487575531E0,7.915230751E0,-7.530363083E0,1.120469893E1
3.078519493E0,-2.564189911E0,7.891288757E0,-7.357980251E0,1.108996761E1
3.080512513E0,-2.717418909E0,7.857769966E0,-7.132327080E0,1.095440569E1
3.082505534E0,-2.986168146E0,7.848193169E0,-6.969521046E0,1.091263304E1
3.084498555E0,-3.062782526E0,7.733271599E0,-6.830657482E0,1.076299252E1
3.086491576E0,-2.943072557E0,7.599195957E0,-6.720524311E0,1.056290217E1
3.088484597E0,-2.765302896E0,7.489062786E0,-6.490680695E0,1.028892110E1
3.090477618E0,-2.554613113E0,7.450755596E0,-6.260837555E0,1.006170433E1
3.092470638E0,-2.430114746E0,7.445967197E0,-6.054337502E0,9.899640790E0
3.094463659E0,-2.209848166E0,7.479485989E0,-5.704783916E0,9.662851500E0
3.096456576E0,-2.185906172E0,7.546523571E0,-5.532401562E0,9.609145167E0
3.098449284E0,-2.128445387E0,7.627926826E0,-5.081693172E0,9.409524586E0
3.100441993E0,-1.884236693E0,7.675810814E0,-4.684255600E0,9.187527964E0
3.102434701E0,-1.797446966E0,7.742848396E0,-4.674678802E0,9.221449929E0
3.104427409E0,-1.884236693E0,7.824251175E0,-4.588487625E0,9.264095911E0
3.106420118E0,-2.023100376E0,7.896077156E0,-4.363432407E0,9.245567152E0
3.108412826E0,-2.128445387E0,7.896077156E0,-4.042609692E0,9.122554869E0
3.110405534E0,-2.166752577E0,7.896077156E0,-3.759495258E0,9.009808865E0
3.112398243E0,-2.152387381E0,7.881711960E0,-3.658938646E0,8.952205699E0
3.114391003E0,-2.176329374E0,7.876923561E0,-3.529651880E0,8.901728862E0
3.116383815E0,-2.147598982E0,7.910442352E0,-3.414730072E0,8.879620547E0
3.118376680E0,-2.070984364E0,7.963114738E0,-3.405153275E0,8.904787555E0
3.120369597E0,-2.013523579E0,8.049305916E0,-3.524863482E0,9.015002246E0
3.122362565E0,-1.941697598E0,8.101978302E0,-3.611054659E0,9.080306036E0
3.124355586E0,-1.783081770E0,8.082824707E0,-3.668515444E0,9.053697665E0
3.126348659E0,-1.716044068E0,8.130708694E0,-3.821744442E0,9.146527303E0
3.128341732E0,-1.658583283E0,8.164826393E0,-3.922300816E0,9.208677007E0
3.130334805E0,-1.629852772E0,8.260594368E0,-4.085705280E0,9.358783415E0
3.132327878E0,-1.663371682E0,8.337208748E0,-4.358644009E0,9.553723497E0
3.134320951E0,-1.754351258E0,8.432976723E0,-4.703409195E0,9.814015631E0
3.136314024E0,-1.855506301E0,8.480860710E0,-4.971560001E0,1.000421466E1
3.138307097E0,-1.946485996E0,8.500014305E0,-5.125387192E0,1.011477359E1
3.140300170E0,-2.224213362E0,8.504802704E0,-5.383961201E0,1.030853202E1
3.142293243E0,-2.114080191E0,8.432976723E0,-5.556343555E0,1.031781882E1
3.144286263E0,-1.668160081E0,8.394669533E0,-5.202001572E0,1.001569044E1
3.146279180E0,-1.395220995E0,8.313266754E0,-4.947618008E0,9.774250340E0
3.148271993E0,-1.289876223E0,8.270171165E0,-5.173271179E0,9.839829596E0
3.150264805E0,-1.179742932E0,8.203133583E0,-5.038597584E0,9.699003020E0
3.152257618E0,-1.131858826E0,8.101978302E0,-4.832695961E0,9.501479204E0
3.154250430E0,-9.977835417E-1,8.020575523E0,-4.636371613E0,9.317786510E0
3.156243243E0,-8.924387097E-1,7.920019150E0,-4.368220806E0,9.088701953E0
3.158236055E0,-9.834183455E-1,7.886500359E0,-4.224568844E0,9.000610061E0
3.160228868E0,-1.050456047E0,7.857769966E0,-3.970185041E0,8.866249264E0
3.162221680E0,-1.036090732E0,7.781155586E0,-3.759495258E0,8.703658476E0
3.164214493E0,-1.122282028E0,7.723694801E0,-3.611054659E0,8.599691511E0
3.166207305E0,-1.495777488E0,7.929595947E0,-3.678092480E0,8.868156881E0
3.168200170E0,-6.428431273E-1,7.426813602E0,-3.429095268E0,8.205455620E0
3.170193086E0,-9.217676520E-2,7.196970463E0,-3.242347717E0,7.894156011E0
3.172186003E0,2.813186944E-1,7.096413612E0,-3.505709887E0,7.920115414E0
3.174178920E0,5.452794433E-1,6.947374821E0,-3.385999680E0,7.747795841E0
3.176171836E0,6.602011323E-1,6.889914036E0,-3.271078110E0,7.655503442E0
3.178164753E0,7.032967210E-1,6.875548840E0,-3.223194122E0,7.626059171E0
3.180157722E0,6.985083222E-1,6.909067631E0,-3.227982521E0,7.657871804E0
3.182150690E0,6.554127336E-1,6.928221226E0,-3.213617325E0,7.665321358E0
3.184143659E0,6.123170853E-1,6.952163219E0,-3.251924515E0,7.699514185E0
3.186136628E0,5.644330382E-1,6.995258808E0,-3.500921488E0,7.842747077E0
3.188129597E0,3.818751574E-1,7.077260017E0,-3.783437252E0,8.034166754E0
3.190122565E0,2.621650994E-1,7.144298077E0,-4.066551685E0,8.224753380E0
3.192115534E0,2.477998734E-1,7.177816868E0,-4.238934040E0,8.339725509E0
3.194108503E0,1.520318091E-1,7.259219646E0,-4.746504784E0,8.674600349E0
3.196101472E0,9.935937077E-2,7.326257229E0,-5.043385983E0,8.894923239E0
3.198094440E0,-2.992752194E-2,7.350199223E0,-5.431845188E0,9.139544103E0
3.200087409E0,-1.544260085E-1,7.402871609E0,-5.599439144E0,9.283322367E0
3.202080378E0,-2.166752517E-1,7.417236805E0,-5.757456303E0,9.392052654E0
3.204073347E0,-2.501940727E-1,7.412448406E0,-5.829282761E0,9.433319986E0
3.206066315E0,-4.608838260E-1,7.445967197E0,-6.087856293E0,9.628958181E0
3.208059128E0,-5.949591398E-1,7.426813602E0,-6.016030312E0,9.576228766E0
3.210051940E0,-8.684966564E-1,7.455543995E0,-6.178835869E0,9.722007786E0
3.212044701E0,-1.040879130E0,7.388506413E0,-6.044760704E0,9.602738585E0
3.214037461E0,-1.040879130E0,7.311892033E0,-5.968146324E0,9.495576076E0
3.216030222E0,-9.068039060E-1,7.187393665E0,-5.877166748E0,9.328558839E0
3.218022982E0,-8.972271085E-1,7.163451672E0,-5.762245178E0,9.237073445E0
3.220015743E0,-9.498994946E-1,7.096413612E0,-5.676053524E0,9.136683141E0
3.222008503E0,-1.021725535E0,6.990470409E0,-5.585073948E0,9.005756527E0
3.224001263E0,-8.924387097E-1,6.865972042E0,-5.086481571E0,8.591292901E0
3.225994024E0,-1.213261724E0,6.918644428E0,-5.355230808E0,8.832787881E0
3.227986836E0,-1.610699177E0,6.870760441E0,-5.292981625E0,8.821414589E0
3.229979701E0,-1.696890473E0,6.731896400E0,-4.890156746E0,8.491848999E0
3.231972618E0,-1.744774461E0,6.612186432E0,-4.899733543E0,8.412647391E0
3.233965586E0,-1.558026791E0,6.516418457E0,-4.598064423E0,8.126090907E0
3.235958555E0,-1.687313676E0,6.554725647E0,-5.048174381E0,8.443667469E0
3.237951524E0,-1.874659896E0,6.506841660E0,-5.489305973E0,8.716984466E0
3.239944493E0,-1.687313676E0,6.425438881E0,-5.288193226E0,8.491070595E0
3.241937461E0,-1.682525277E0,6.463746071E0,-5.767033577E0,8.824374247E0
3.243930430E0,-1.634641171E0,6.478111267E0,-6.063914299E0,9.022695494E0
3.245923399E0,-1.581968784E0,6.458957672E0,-6.256049156E0,9.130110103E0
3.247916368E0,-1.543661594E0,6.449380875E0,-6.116586685E0,9.021642725E0
3.249909336E0,-1.562815189E0,6.588244438E0,-6.327875137E0,9.267651258E0
3.251902305E0,-1.625064373E0,6.933009624E0,-5.901108742E0,9.248272328E0
3.253895274E0,-1.529296279E0,6.899490833E0,-5.757456303E0,9.115372946E0
3.255888243E0,-1.658583283E0,6.889914036E0,-6.073491096E0,9.333226025E0
3.257881211E0,-1.601122379E0,6.846818447E0,-5.925050735E0,9.195038985E0
3.259874180E0,-1.577180386E0,6.808511257E0,-6.135740280E0,9.300033994E0
3.261867149E0,-1.342548609E0,6.684012413E0,-5.948992729E0,9.048147501E0
3.263860118E0,-1.409586191E0,6.655282021E0,-6.236895561E0,9.229224141E0
3.265853086E0,-1.490989089E0,6.669647217E0,-6.380547523E0,9.349793001E0
3.267846055E0,-1.481412292E0,6.679224014E0,-6.524199486E0,9.453665677E0
3.269839024E0,-1.270722508E0,6.698377609E0,-6.481103897E0,9.406790420E0
3.271831993E0,-1.007360339E0,6.679224014E0,-6.505045891E0,9.377762544E0
3.273824961E0,-7.104793787E-1,6.693589211E0,-6.490680695E0,9.350820998E0
3.275817930E0,-3.890577853E-1,6.703166008E0,-6.370970726E0,9.255974745E0
3.277810847E0,-2.166752517E-1,6.798934460E0,-6.347028732E0,9.303613904E0
3.279803659E0,-8.259996027E-2,6.818088055E0,-6.116586685E0,9.160009834E0
3.281796472E0,-2.406172752E-1,6.774992466E0,-6.083067894E0,9.108355208E0
3.283789284E0,-6.045359373E-1,6.774992466E0,-6.097433090E0,9.134805794E0
3.285782097E0,-1.088763237E0,6.774992466E0,-5.992088318E0,9.109942410E0
3.287774909E0,-1.634641171E0,6.736684799E0,-5.905897141E0,9.106843299E0
3.289767722E0,-2.114080191E0,6.703166008E0,-5.728725910E0,9.067528337E0
3.291760534E0,-2.549824715E0,6.698377609E0,-5.680841923E0,9.145590939E0
3.293753347E0,-2.794033289E0,6.688800812E0,-5.752667904E0,9.254181019E0
3.295746159E0,-2.962226152E0,6.727108002E0,-5.575497150E0,9.225775540E0
3.297738972E0,-3.359663486E0,6.865972042E0,-5.915473938E0,9.665492369E0
3.299731784E0,-3.876811028E0,7.072471619E0,-6.303933144E0,1.023665432E1
3.301724649E0,-4.073734283E0,7.230489254E0,-6.202777863E0,1.036097192E1
3.303717565E0,-3.991732836E0,7.359776020E0,-6.174047470E0,1.040284078E1
3.305710534E0,-3.881599426E0,7.522581577E0,-6.193201065E0,1.048865040E1
3.307703555E0,-3.872022629E0,7.690176010E0,-6.485892296E0,1.077952528E1
3.309696628E0,-3.551199675E0,7.723694801E0,-5.934627533E0,1.036755923E1
3.311689753E0,-3.795408249E0,7.867346764E0,-6.576871872E0,1.093414434E1
3.313682930E0,-4.265270233E0,8.058882713E0,-6.797138691E0,1.137274000E1
3.315676159E0,-4.562151432E0,8.217498779E0,-6.576871872E0,1.147151932E1
3.317669388E0,-4.662707806E0,8.222287178E0,-6.706159115E0,1.158962556E1
3.319662618E0,-4.408922195E0,8.207921982E0,-5.460575581E0,1.079937331E1
3.321655847E0,-4.495113850E0,8.222287178E0,-5.963357925E0,1.110737110E1
3.323649076E0,-4.854243755E0,8.270171165E0,-6.174047470E0,1.140518635E1
3.325642305E0,-5.237914562E0,8.279747963E0,-6.907271862E0,1.198750933E1
3.327635534E0,-5.324106216E0,8.169614792E0,-6.936002254E0,1.196648821E1
3.329628607E0,-5.333683014E0,8.049305916E0,-7.074865818E0,1.197051488E1
3.331621680E0,-5.348048210E0,7.987056732E0,-7.132327080E0,1.196932682E1
3.333614753E0,-5.348048210E0,7.982268333E0,-7.098807812E0,1.194618348E1
