"Time (s)","Acceleration x (m/s^2)","Acceleration y (m/s^2)","Acceleration z (m/s^2)"
1.389080900E-2,2.466027737E0,8.001421928E0,1.390432596E0
1.585601700E-2,2.533065319E0,8.034940720E0,1.625064373E0
1.782143400E-2,2.264914751E0,7.886500359E0,1.908178806E0
1.978815200E-2,2.240972757E0,7.685387611E0,2.152387381E0
2.175721500E-2,2.576161146E0,7.829039574E0,2.358288765E0
2.372945400E-2,2.763507366E0,8.155249596E0,2.607285738E0
2.570560000E-2,2.897582531E0,8.318055153E0,2.871246338E0
2.768174600E-2,3.103483915E0,8.279747963E0,3.125031710E0
2.966304800E-2,3.596689463E0,7.723694801E0,3.685275078E0
3.164976700E-2,3.721188068E0,7.905653954E0,3.680486679E0
3.364195400E-2,3.409941673E0,8.097189903E0,3.656544447E0
3.563992300E-2,3.108272314E0,8.303689957E0,3.675698042E0
3.760513100E-2,2.777872562E0,8.509591103E0,3.752312660E0
3.957034000E-2,2.470816135E0,8.758588791E0,3.781043053E0
4.153554800E-2,2.279279947E0,8.983643532E0,3.857657433E0
4.351039200E-2,2.135627985E0,9.141660690E0,3.930082083E0
4.549523600E-2,2.049436569E0,9.256582260E0,3.949235678E0
4.748997500E-2,2.049436569E0,9.333795547E0,3.987542868E0
4.949419400E-2,2.092532396E0,9.391256332E0,3.987542868E0
5.150705900E-2,2.159569979E0,9.372102737E0,4.001908302E0
5.352752700E-2,2.279279947E0,9.343372345E0,4.021061897E0
5.555424600E-2,2.432508945E0,9.285911560E0,4.116829872E0
5.758570400E-2,2.624045134E0,9.151237488E0,4.231751442E0
5.962018400E-2,2.744353771E0,9.112930298E0,4.404133797E0
6.165591300E-2,2.897582531E0,9.055469513E0,4.557363033E0
6.367940200E-2,3.007715940E0,8.978855133E0,4.705803394E0
6.567231900E-2,3.055599928E0,8.873510361E0,4.863820553E0
6.766523600E-2,3.055599928E0,8.739435196E0,4.935647011E0
6.965815200E-2,3.022081137E0,8.653243065E0,4.926070213E0
7.165106900E-2,3.026869535E0,8.557475090E0,4.964377403E0
7.364398600E-2,3.002927542E0,8.466495514E0,4.940435410E0
7.563690200E-2,2.983773947E0,8.409034729E0,4.921281815E0
7.762981900E-2,2.964620352E0,8.380304337E0,4.873397350E0
7.962273600E-2,2.978985548E0,8.409034729E0,4.882974148E0
8.161565200E-2,2.935889721E0,8.409034729E0,4.868608952E0
8.360856900E-2,2.950255156E0,8.322843552E0,4.787206173E0
8.560148600E-2,2.916736126E0,8.380304337E0,4.787206173E0
8.759440200E-2,2.897582531E0,8.361150742E0,4.724956989E0
8.958731900E-2,2.830544949E0,8.389881134E0,4.638765812E0
9.158023600E-2,2.758718967E0,8.423399925E0,4.557363033E0
9.357315200E-2,2.686892748E0,8.456918716E0,4.538209438E0
9.556606900E-2,2.667140722E0,8.495225906E0,4.519055843E0
9.755898600E-2,2.619256735E0,8.514379501E0,4.480748653E0
9.955190200E-2,2.557007313E0,8.490437508E0,4.475960255E0
1.015448190E-1,2.542642117E0,8.538321495E0,4.519055843E0
1.035377360E-1,2.513911724E0,8.504802704E0,4.547786236E0
1.055306520E-1,2.489969730E0,8.485649109E0,4.600458622E0
1.075235690E-1,2.499546528E0,8.447341919E0,4.648342609E0
1.095164860E-1,2.461239338E0,8.437765121E0,4.696226597E0
1.115094020E-1,2.408566952E0,8.389881134E0,4.720168591E0
1.135023190E-1,2.398990154E0,8.394669533E0,4.763264179E0
1.154952360E-1,2.370259762E0,8.351573944E0,4.791994572E0
1.174881520E-1,2.298433542E0,8.289324760E0,4.820724964E0
1.194810690E-1,2.217030764E0,8.203133583E0,4.830301762E0
1.214739860E-1,2.159569979E0,8.155249596E0,4.849455357E0
1.234669020E-1,2.130839586E0,8.092401505E0,4.854243755E0
1.254598190E-1,2.082955360E0,8.044517517E0,4.787206173E0
1.274527360E-1,2.006340981E0,7.996633530E0,4.729745388E0
1.294456520E-1,1.968033791E0,7.972691536E0,4.662707806E0
1.314385690E-1,1.881842494E0,7.953537941E0,4.542997837E0
1.334314860E-1,1.905784607E0,7.948749542E0,4.404133797E0
1.354244020E-1,1.905784607E0,7.876923561E0,4.241328239E0
1.374173190E-1,1.968033791E0,7.829039574E0,4.179079056E0
1.394102360E-1,2.087743998E0,7.752425194E0,4.102464676E0
1.414031520E-1,2.226607561E0,7.623138428E0,4.030638695E0
1.433960690E-1,2.355894566E0,7.536946774E0,3.949235678E0
1.453889860E-1,2.480392933E0,7.393294811E0,3.939658880E0
1.473819020E-1,2.547430515E0,7.383718014E0,3.939658880E0
1.493748190E-1,2.580949545E0,7.316680431E0,3.930082083E0
1.513677360E-1,2.580949545E0,7.235277653E0,3.930082083E0
1.533606520E-1,2.585737944E0,7.187393665E0,3.987542868E0
1.553535690E-1,2.518700123E0,7.129932880E0,3.997119665E0
1.573464860E-1,2.437297344E0,7.067683220E0,4.011485100E0
1.593394020E-1,2.360682964E0,7.062894821E0,4.102464676E0
1.613323190E-1,2.341529369E0,7.004835606E0,4.159925461E0
1.633252360E-1,2.317587137E0,6.928221226E0,4.188655853E0
1.653181520E-1,2.293645144E0,6.961740017E0,4.246116638E0
1.673110690E-1,2.279279947E0,7.019799232E0,4.265270233E0
1.693039860E-1,2.322375536E0,6.966528416E0,4.294000626E0
1.712969020E-1,2.327163935E0,7.009624004E0,4.289212227E0
1.732898190E-1,2.365471363E0,7.014412403E0,4.303577423E0
1.752827360E-1,2.341529369E0,7.048529625E0,4.313154221E0
1.772756520E-1,2.317587137E0,7.029376030E0,4.322731018E0
1.792685690E-1,2.312798738E0,7.000047207E0,4.303577423E0
1.812614860E-1,2.236184359E0,7.043741226E0,4.322731018E0
1.832544020E-1,2.207453966E0,7.038952827E0,4.322731018E0
1.852473190E-1,2.097320795E0,7.024587631E0,4.346673012E0
1.872402360E-1,2.054224968E0,6.985682011E0,4.346673012E0
1.892331520E-1,1.996764183E0,6.947374821E0,4.394556999E0
1.912260690E-1,1.920149803E0,6.899490833E0,4.428076267E0
1.932189860E-1,1.872265697E0,6.865972042E0,4.490325451E0
1.952119020E-1,1.857900500E0,6.798934460E0,4.519055843E0
1.972048190E-1,1.872265697E0,6.774992466E0,4.576516628E0
1.991977360E-1,1.857900500E0,6.774992466E0,4.624400616E0
2.011906520E-1,1.848323703E0,6.760627270E0,4.629189014E0
2.031835690E-1,1.867477298E0,6.727108002E0,4.633977413E0
2.051764860E-1,1.891419291E0,6.693589211E0,4.600458622E0
2.071694020E-1,1.891419291E0,6.631340027E0,4.605247021E0
2.091623190E-1,1.929726601E0,6.573879242E0,4.547786236E0
2.111552360E-1,1.963245392E0,6.549937248E0,4.533421040E0
2.131481520E-1,1.944091797E0,6.535572052E0,4.485537052E0
2.151410690E-1,1.972822189E0,6.535572052E0,4.428076267E0
2.171339860E-1,1.953668594E0,6.478111267E0,4.370615005E0
2.191269020E-1,1.953668594E0,6.425438881E0,4.298789024E0
2.211198190E-1,1.987187386E0,6.377554893E0,4.255693436E0
2.231127360E-1,2.015917778E0,6.348824501E0,4.183867455E0
2.251056520E-1,2.015917778E0,6.310517311E0,4.140771866E0
2.270985690E-1,1.991975784E0,6.248267651E0,4.107253075E0
2.290914860E-1,1.958456993E0,6.224325657E0,4.097676277E0
2.310844020E-1,1.920149803E0,6.166864872E0,4.064157486E0
2.330773190E-1,1.905784607E0,6.138134480E0,4.045003891E0
2.350702360E-1,1.857900500E0,6.138134480E0,4.049792290E0
2.370631520E-1,1.867477298E0,6.061520100E0,4.045003891E0
2.390560690E-1,1.886630893E0,6.047154903E0,4.112041473E0
2.410489860E-1,1.963245392E0,5.927444935E0,4.193444252E0
2.430419020E-1,2.015917778E0,5.855020046E0,4.279635429E0
2.450348190E-1,2.097320795E0,5.826289654E0,4.389768600E0
2.470277360E-1,2.178723574E0,5.831078053E0,4.499902248E0
2.490206520E-1,2.173935175E0,5.811924458E0,4.643554211E0
2.510135690E-1,2.202665567E0,5.821501255E0,4.763264179E0
2.530064860E-1,2.178723574E0,5.859808445E0,4.897339344E0
2.549994020E-1,2.111685991E0,5.835866451E0,5.032013416E0
2.569923190E-1,1.991975784E0,5.811924458E0,5.161300182E0
2.589852360E-1,1.886630893E0,5.802347660E0,5.223549366E0
2.609781520E-1,1.848323703E0,5.759252071E0,5.257068157E0
2.629710690E-1,1.790862918E0,5.740098476E0,5.309741020E0
2.649639860E-1,1.733402014E0,5.692214489E0,5.324106216E0
2.669569020E-1,1.704671621E0,5.644330502E0,5.276222229E0
2.689498190E-1,1.719036818E0,5.596446514E0,5.209184170E0
2.709427360E-1,1.699883223E0,5.586869717E0,5.099050999E0
2.729356520E-1,1.747767210E0,5.591658115E0,4.954800606E0
2.749285690E-1,1.766920805E0,5.534197330E0,4.777629375E0
2.769214860E-1,1.786074519E0,5.515043736E0,4.571728230E0
2.789144020E-1,1.810016513E0,5.495890141E0,4.380191803E0
2.809073190E-1,1.805228114E0,5.481524944E0,4.212597847E0
2.829002360E-1,1.814804912E0,5.471948147E0,4.045003891E0
2.848931520E-1,1.795651317E0,5.491101742E0,3.848080635E0
2.868860690E-1,1.786074519E0,5.500678539E0,3.690063477E0
2.888789860E-1,1.766920805E0,5.562927723E0,3.474585295E0
2.908719020E-1,1.762132406E0,5.596446514E0,3.326144695E0
2.928648190E-1,1.728613615E0,5.658695698E0,3.187281132E0
2.948577360E-1,1.671152830E0,5.682637691E0,3.110666513E0
2.968506520E-1,1.642422318E0,5.735310078E0,3.043628931E0
2.988435690E-1,1.656787634E0,5.744886875E0,3.024475336E0
3.008364860E-1,1.661576033E0,5.720944881E0,3.010110140E0
3.028294020E-1,1.666364431E0,5.730521679E0,2.981379747E0
3.048223190E-1,1.618480325E0,5.768828869E0,2.995744944E0
3.068152360E-1,1.666364431E0,5.754463673E0,2.995744944E0
3.088081520E-1,1.671152830E0,5.792770863E0,3.029263735E0
3.108010690E-1,1.661576033E0,5.783194065E0,2.952649355E0
3.127939860E-1,1.733402014E0,5.759252071E0,2.947860956E0
3.147869020E-1,1.781286120E0,5.740098476E0,2.962226152E0
3.167798190E-1,1.819593310E0,5.725733280E0,2.952649355E0
3.187727360E-1,1.814804912E0,5.778405666E0,2.971802950E0
3.207656520E-1,1.848323703E0,5.768828869E0,2.952649355E0
3.227585690E-1,1.838746905E0,5.787982464E0,2.952649355E0
3.247514860E-1,1.833958507E0,5.835866451E0,2.962226152E0
3.267444020E-1,1.877054095E0,5.811924458E0,2.995744944E0
3.287373190E-1,1.881842494E0,5.783194065E0,3.034052134E0
3.307302360E-1,1.891419291E0,5.802347660E0,3.038840532E0
3.327231520E-1,1.991975784E0,5.730521679E0,2.899976730E0
3.347160690E-1,2.173935175E0,5.615600109E0,2.880823135E0
3.367089860E-1,2.116474390E0,5.567716122E0,3.125031710E0
3.387019020E-1,2.135627985E0,5.538985729E0,3.163338900E0
3.406948190E-1,2.116474390E0,5.538985729E0,3.306991100E0
3.426877360E-1,2.068590164E0,5.548562527E0,3.421912670E0
3.446806520E-1,2.035071373E0,5.553350925E0,3.536834478E0
3.466735690E-1,2.025494576E0,5.586869717E0,3.670909643E0
3.486664860E-1,2.020706177E0,5.620388508E0,3.776254654E0
3.506594020E-1,2.039859772E0,5.653907299E0,3.862445831E0
3.526523190E-1,2.130839586E0,5.711368084E0,3.848080635E0
3.546452360E-1,2.231395960E0,5.725733280E0,3.862445831E0
3.566381520E-1,2.312798738E0,5.797559261E0,3.997119665E0
3.586311210E-1,2.293645144E0,5.859808445E0,3.997119665E0
3.606240900E-1,2.322375536E0,5.898714542E0,3.997119665E0
3.626170590E-1,2.418143749E0,5.946598530E0,4.006696701E0
3.646100270E-1,2.499546528E0,5.965752125E0,4.083311081E0
3.666029960E-1,2.542642117E0,5.980117321E0,4.088099480E0
3.685959650E-1,2.585737944E0,5.994482517E0,3.944447279E0
3.705889340E-1,2.652775526E0,5.984905720E0,3.867234230E0
3.725819020E-1,2.701258183E0,6.018424511E0,3.968389273E0
3.745748710E-1,2.729988575E0,6.075885296E0,3.828927040E0
3.765678400E-1,2.830544949E0,6.042366505E0,3.867234230E0
3.785608090E-1,2.897582531E0,6.023212910E0,3.742735863E0
3.805537770E-1,2.998139143E0,6.008847713E0,3.536834478E0
3.825467460E-1,3.069965124E0,6.032789707E0,3.455431700E0
3.845397150E-1,3.041234732E0,6.066308498E0,3.412335873E0
3.865326840E-1,3.156156301E0,6.061520100E0,3.048417330E0
3.885256520E-1,3.170521498E0,6.061520100E0,3.081936121E0
3.905186210E-1,3.146579504E0,6.066308498E0,2.856881142E0
3.925115900E-1,3.227982521E0,6.080673695E0,2.808997154E0
3.945045590E-1,3.146579504E0,6.090250492E0,2.842515945E0
3.964975270E-1,3.141791105E0,6.080673695E0,2.828150749E0
3.984904960E-1,3.089118719E0,6.071096897E0,2.755726099E0
4.004834650E-1,3.122637510E0,6.166864872E0,2.876034737E0
4.024764340E-1,3.084330320E0,6.200383663E0,2.957437754E0
4.044694020E-1,3.069965124E0,6.334459305E0,2.895188332E0
4.064623710E-1,2.974197149E0,6.401496887E0,2.986168146E0
4.084553400E-1,2.950255156E0,6.430227280E0,2.880823135E0
4.104483090E-1,3.026869535E0,6.497264862E0,2.775478363E0
4.124412770E-1,3.012504339E0,6.564302444E0,2.842515945E0
4.144342460E-1,3.165733099E0,6.655282021E0,2.832939148E0
4.164272150E-1,3.309385300E0,6.717531204E0,2.712630510E0
4.184201310E-1,3.342904091E0,6.851606846E0,2.564189911E0
4.204130480E-1,3.338115692E0,7.134721279E0,2.339135170E0
4.224059650E-1,3.515286684E0,7.225700855E0,2.573766708E0
4.243988810E-1,3.836708307E0,6.918644428E0,3.225588322E0
4.263917980E-1,4.109647274E0,6.837241650E0,3.148973703E0
4.283847150E-1,4.353855610E0,6.933009624E0,3.019686937E0
4.303776310E-1,4.823119164E0,6.679224014E0,3.484162092E0
4.323705480E-1,4.981735229E0,6.655282021E0,3.335721493E0
4.343634650E-1,5.245097160E0,6.674435616E0,3.397970676E0
4.363563810E-1,5.269039154E0,6.669647217E0,3.235165119E0
4.383492980E-1,5.245097160E0,6.746262074E0,3.383605480E0
4.403422150E-1,5.336077213E0,6.746262074E0,3.321356297E0
4.423351310E-1,5.407903194E0,6.813299656E0,3.512892485E0
4.443280480E-1,5.422268391E0,6.899490833E0,3.680486679E0
4.463209650E-1,5.369596004E0,6.990470409E0,3.670909643E0
4.483138810E-1,5.379172802E0,7.144298077E0,3.848080635E0
4.503067980E-1,5.316923618E0,7.259219646E0,3.930082083E0
4.522997150E-1,5.225943565E0,7.484274387E0,4.155137062E0
4.542926310E-1,5.149329185E0,7.714118004E0,4.432864666E0
4.562855480E-1,5.106233597E0,7.958326340E0,4.715380192E0
4.582784650E-1,4.929062843E0,8.289324760E0,5.266644955E0
4.602713810E-1,4.924274445E0,8.437765121E0,5.735908508E0
4.622642980E-1,4.799177170E0,8.806472778E0,6.253654957E0
4.642572150E-1,4.842272758E0,9.036315918E0,6.809109688E0
4.662501310E-1,4.808753967E0,9.300276756E0,7.264606476E0
4.682430480E-1,4.808753967E0,9.515754700E0,7.518392086E0
4.702359650E-1,4.732139587E0,9.736021042E0,7.863156796E0
4.722288810E-1,4.760869980E0,9.889249802E0,7.906252384E0
4.742217980E-1,4.794388771E0,1.012867069E1,8.054693222E0
4.762147150E-1,4.780023575E0,1.030584145E1,7.958924770E0
4.782076310E-1,4.789600372E0,1.058895588E1,7.839214802E0
4.802005480E-1,4.827907562E0,1.076133823E1,7.738658428E0
4.821934650E-1,4.875791550E0,1.093372059E1,7.671620846E0
4.841863810E-1,4.991312027E0,1.121623611E1,7.590218067E0
4.861792980E-1,5.158905983E0,1.134073448E1,7.355586052E0
4.881722150E-1,5.259462357E0,1.150832939E1,7.058106422E0
4.901651310E-1,5.197213173E0,1.178186703E1,7.015010834E0
4.921580480E-1,5.316923618E0,1.198776817E1,6.756437302E0
4.941509650E-1,5.340865612E0,1.219845772E1,6.560112476E0
4.961438810E-1,5.312135220E0,1.249055004E1,6.421248913E0
4.981367980E-1,5.139752388E0,1.278802967E1,6.047154903E0
5.001297150E-1,5.101445198E0,1.296998882E1,5.740696907E0
5.021226310E-1,5.020042419E0,1.319025612E1,5.510853767E0
5.041155480E-1,4.933851242E0,1.341531086E1,5.137358189E0
5.061084650E-1,4.765658379E0,1.360205841E1,4.763264179E0
5.081013810E-1,4.569334030E0,1.376546288E1,4.389768600E0
5.100942980E-1,4.373009205E0,1.391390324E1,4.068945885E0
5.120872150E-1,4.076128483E0,1.414853477E1,3.694851875E0
5.140801310E-1,4.061763287E0,1.427782154E1,3.378817081E0
5.160730480E-1,4.143166065E0,1.422514915E1,3.053205729E0
5.180659650E-1,4.119224072E0,1.424909115E1,2.952649355E0
5.200588810E-1,4.100070477E0,1.413895798E1,2.755726099E0
5.220517980E-1,4.095282078E0,1.400009441E1,2.664746523E0
5.240447150E-1,4.028244495E0,1.373134518E1,2.645592928E0
5.260376310E-1,4.248510838E0,1.317110252E1,2.621650934E0
5.280305480E-1,4.368220806E0,1.261026001E1,2.568978310E0
5.300234650E-1,4.444835663E0,1.212663174E1,2.559401512E0
5.320163810E-1,4.689043999E0,1.159990692E1,2.631227732E0
5.340092980E-1,4.938639641E0,1.106300735E1,2.760514498E0
5.360022150E-1,5.115810394E0,1.059374428E1,2.923918724E0
5.379951310E-1,5.221155167E0,1.019091988E1,3.053205729E0
5.399880480E-1,5.374384403E0,9.798270226E0,3.148973703E0
5.419809650E-1,5.441421986E0,9.463082314E0,3.225588322E0
5.439738810E-1,5.580285549E0,9.156025887E0,3.340509892E0
5.459667980E-1,5.685630322E0,8.849568367E0,3.441066504E0
5.479597150E-1,5.747879505E0,8.638877869E0,3.536834478E0
5.499526310E-1,5.786187172E0,8.476072311E0,3.632602453E0
5.519455480E-1,5.843647957E0,8.313266754E0,3.742735863E0
5.539384650E-1,5.757456303E0,8.212710381E0,3.867234230E0
5.559313810E-1,5.690418720E0,8.160037994E0,3.954024076E0
5.579242980E-1,5.532401562E0,8.106766701E0,4.011485100E0
5.599172150E-1,5.455787182E0,8.049305916E0,4.078522682E0
5.619101310E-1,5.321712017E0,8.058882713E0,4.150348663E0
5.639030480E-1,5.197213173E0,8.039729118E0,4.212597847E0
5.658959650E-1,5.115810394E0,8.006210327E0,4.270058632E0
5.678888810E-1,5.048772812E0,7.943961143E0,4.327519417E0
5.698817980E-1,4.885368347E0,7.958326340E0,4.341884613E0
5.718747150E-1,4.851849556E0,7.963114738E0,4.361038208E0
5.738676310E-1,4.957793236E0,7.910442352E0,4.356249809E0
5.758605480E-1,4.693832397E0,7.996633530E0,4.313154221E0
5.778534650E-1,4.665102005E0,8.082824707E0,4.284423828E0
5.798463810E-1,4.612429619E0,8.097189903E0,4.255693436E0
5.818392980E-1,4.191050053E0,8.337208748E0,4.174290657E0
5.838322150E-1,4.689043999E0,8.236652374E0,4.179079056E0
5.858251310E-1,4.717774391E0,8.236652374E0,4.116829872E0
5.878180480E-1,4.847061157E0,8.227075577E0,4.150348663E0
5.898109650E-1,4.727351189E0,8.260594368E0,4.140771866E0
5.918038810E-1,4.626794815E0,8.188768387E0,4.107253075E0
5.937967980E-1,4.924274445E0,8.251017570E0,4.078522682E0
5.957897150E-1,4.832695961E0,8.394669533E0,3.934870481E0
5.977826310E-1,4.712985992E0,8.509591103E0,3.795408249E0
5.997755480E-1,4.760869980E0,8.600570679E0,3.646967649E0
6.017684650E-1,5.106233597E0,8.600570679E0,3.613448858E0
6.037613810E-1,5.297770023E0,8.581417084E0,3.579930067E0
6.057542980E-1,5.278616428E0,8.595782280E0,3.579930067E0
6.077472150E-1,5.508459568E0,8.538321495E0,3.666121244E0
6.097401310E-1,5.403114796E0,8.605359077E0,3.618237257E0
6.117330480E-1,5.288193226E0,8.653243065E0,3.589506865E0
6.137259650E-1,5.379172802E0,8.667608261E0,3.488950491E0
6.157188810E-1,5.326500416E0,8.629301071E0,3.421912670E0
6.177117980E-1,5.321712017E0,8.691550255E0,3.316567898E0
6.197047150E-1,5.527613163E0,8.634089470E0,3.378817081E0
6.216976310E-1,5.925050735E0,8.404246330E0,3.306991100E0
6.236905480E-1,5.747879505E0,8.399457932E0,3.278260708E0
6.256834650E-1,5.690418720E0,8.456918716E0,3.321356297E0
6.276763810E-1,5.776610374E0,8.394669533E0,3.306991100E0
6.296692980E-1,5.704783916E0,8.361150742E0,3.268683910E0
6.316622150E-1,5.781398773E0,8.294113159E0,3.278260708E0
6.336551310E-1,5.738302708E0,8.193556786E0,3.378817081E0
6.356480480E-1,6.117185116E0,7.790732384E0,3.407547474E0
6.376409650E-1,6.189011574E0,7.766790390E0,3.259107113E0
6.396338810E-1,6.112396717E0,7.829039574E0,3.129820108E0
6.416267980E-1,6.145915985E0,7.800309181E0,3.053205729E0
6.436197150E-1,6.155492783E0,7.785943985E0,2.967014551E0
6.456126310E-1,6.145915985E0,7.800309181E0,2.659958124E0
6.476055480E-1,6.126761913E0,7.728483200E0,2.454056740E0
6.496037110E-1,5.996876717E0,7.752425194E0,2.367865562E0
6.515966270E-1,5.920262337E0,7.776367188E0,2.205059767E0
6.535895440E-1,5.929839134E0,7.809885979E0,1.860294700E0
6.555824610E-1,5.757456303E0,7.848193169E0,1.548449993E0
6.575753770E-1,5.762245178E0,7.805097580E0,1.390432596E0
6.595682940E-1,5.652111530E0,7.838616371E0,1.500565886E0
6.615612110E-1,5.695207119E0,7.829039574E0,1.155800819E0
6.635541270E-1,5.762245178E0,7.800309181E0,9.307458997E-1
6.655470440E-1,5.752667904E0,7.795520782E0,6.913257241E-1
6.675399610E-1,5.738302708E0,7.814674377E0,4.896142483E-1
6.695328770E-1,5.618592739E0,7.881711960E0,4.225766063E-1
6.715257940E-1,5.202001572E0,8.106766701E0,8.014590144E-1
6.735187110E-1,5.115810394E0,8.236652374E0,4.944026470E-1
6.755116270E-1,5.245097160E0,8.135497093E0,3.471592441E-2
6.775045440E-1,5.302558422E0,8.020575523E0,-3.292027414E-1
6.794974610E-1,5.292981625E0,8.001421928E0,-5.734112859E-1
6.814903770E-1,5.106233597E0,8.140884399E0,-7.846996188E-1
6.834832940E-1,4.645948410E0,8.490437508E0,-6.793547273E-1
6.854762110E-1,3.611054659E0,9.343372345E0,7.302315533E-2
6.874691800E-1,3.328538895E0,9.640253067E0,-3.818751574E-1
6.894621480E-1,3.462614298E0,9.740809441E0,-4.728548229E-1
6.914551170E-1,3.333327293E0,9.961075783E0,-6.171054840E-1
6.934480860E-1,3.084330320E0,1.023880386E1,-8.661024570E-1
6.954410550E-1,2.720411777E0,1.059853268E1,-1.139041424E0
6.974340230E-1,2.384624958E0,1.096723938E1,-1.297058821E0
6.994269920E-1,2.039859772E0,1.132158089E1,-1.459864497E0
7.014199610E-1,1.690306425E0,1.164300251E1,-1.689707875E0
7.034129300E-1,1.201290727E0,1.198297977E1,-1.857900500E0
7.054058980E-1,7.942764163E-1,1.235647488E1,-2.001552582E0
7.073988670E-1,3.483563364E-1,1.267310810E1,-2.169146776E0
7.093918360E-1,-7.781155407E-2,1.308012199E1,-2.245761156E0
7.113848050E-1,-5.997475386E-1,1.343925285E1,-2.212242365E0
7.133777730E-1,-8.780734539E-1,1.369303799E1,-2.365471363E0
7.153707420E-1,-1.433528304E0,1.408149719E1,-2.375048161E0
7.173637110E-1,-1.807023764E0,1.437837791E1,-2.279279947E0
7.193566800E-1,-2.310404539E0,1.463695240E1,-2.030282974E0
7.213496480E-1,-2.875436306E0,1.503020000E1,-1.723226666E0
7.233426170E-1,-3.383605480E0,1.536538792E1,-1.569997787E0
7.253355860E-1,-3.905541420E0,1.571494102E1,-1.373673201E0
7.273285550E-1,-4.317942619E0,1.604115105E1,-1.091157436E0
7.293215230E-1,-4.638765812E0,1.626141739E1,-8.469488621E-1
7.313144920E-1,-4.863820553E0,1.647689629E1,-5.446808934E-1
7.333074610E-1,-4.988319397E0,1.661097145E1,-2.430114746E-1
7.353004300E-1,-4.902127743E0,1.665406609E1,1.017535701E-1
7.372933980E-1,-4.595670223E0,1.651041412E1,5.620388389E-1
7.392863670E-1,-4.078522682E0,1.625184059E1,1.093551636E0
7.412793360E-1,-3.359663486E0,1.581549835E1,1.629852772E0
7.432723050E-1,-2.482787132E0,1.530792713E1,2.080561161E0
7.452652730E-1,-1.586757183E0,1.477581596E1,2.410961151E0
7.472581900E-1,-6.572083831E-1,1.421078396E1,2.664746523E0
7.492511070E-1,2.286462635E-1,1.361642361E1,2.904765129E0
7.512440230E-1,1.014542937E0,1.305618000E1,3.014898539E0
7.532369400E-1,1.709460020E0,1.252406883E1,3.096301317E0
7.552298570E-1,2.317587137E0,1.204522896E1,3.139396906E0
7.572227730E-1,2.859275341E0,1.157596493E1,3.139396906E0
7.592156900E-1,3.352480888E0,1.113483334E1,3.062782526E0
7.612086070E-1,3.769072056E0,1.076612663E1,2.986168146E0
7.632015230E-1,4.186261654E0,1.046445751E1,2.842515945E0
7.651944400E-1,4.559757233E0,1.017655468E1,2.616862535E0
7.671873570E-1,4.808753967E0,9.946710587E0,2.473210335E0
7.691802730E-1,4.914099216E0,9.736021042E0,2.358288765E0
7.711731900E-1,5.039196014E0,9.534908295E0,2.272097349E0
7.731661070E-1,5.029619217E0,9.376891136E0,2.157175779E0
7.751590230E-1,5.029619217E0,9.266757965E0,2.152387381E0
7.771519400E-1,5.058349609E0,9.160814285E0,2.066195965E0
7.791448570E-1,5.101445198E0,9.112930298E0,1.980004787E0
7.811377730E-1,5.134963989E0,9.103353500E0,1.889025092E0
7.831306900E-1,5.115810394E0,9.108141899E0,1.826775908E0
7.851236070E-1,5.087080002E0,9.165602684E0,1.735796213E0
7.871165230E-1,5.010465622E0,9.247005463E0,1.634641171E0
7.891094400E-1,4.909310818E0,9.305065155E0,1.577180386E0
7.911023570E-1,4.832695961E0,9.391256332E0,1.519719481E0
7.930952730E-1,4.722562790E0,9.458293915E0,1.438316703E0
7.950881900E-1,4.598064423E0,9.534908295E0,1.342548609E0
7.970811070E-1,4.487931252E0,9.621099472E0,1.289876223E0
7.990740230E-1,4.425682068E0,9.673771858E0,1.237203717E0
8.010669400E-1,4.305971622E0,9.721655846E0,1.127070427E0
8.030598570E-1,4.191050053E0,9.779116631E0,1.098340034E0
8.050527730E-1,4.095282078E0,9.788693428E0,1.060032845E0
8.070456900E-1,4.013879299E0,9.803058624E0,1.016937137E0
8.090386070E-1,3.980360270E0,9.817423820E0,9.929951429E-1
8.110315230E-1,3.903745890E0,9.779116631E0,1.012148738E0
8.130244400E-1,3.894169092E0,9.759963036E0,1.074398041E0
8.150173570E-1,3.884592295E0,9.707290649E0,1.088763237E0
8.170102730E-1,3.922899485E0,9.649829865E0,1.136647224E0
8.190031900E-1,3.951629877E0,9.558850288E0,1.170166135E0
8.209961070E-1,3.956418276E0,9.458293915E0,1.222838521E0
8.229890230E-1,3.994725466E0,9.367314339E0,1.256357312E0
8.249819400E-1,4.042609692E0,9.261370659E0,1.280299306E0
8.269748570E-1,4.071340084E0,9.146449089E0,1.352125406E0
8.289677730E-1,4.133589268E0,9.017162323E0,1.347337008E0
8.309606900E-1,4.171896458E0,8.897452354E0,1.380855799E0
8.329536070E-1,4.128800869E0,8.816049576E0,1.385644197E0
8.349465230E-1,4.152742863E0,8.686761856E0,1.447893500E0
8.369394400E-1,4.157531261E0,8.576628685E0,1.481412292E0
8.389323570E-1,4.181473255E0,8.442553520E0,1.519719481E0
8.409252730E-1,4.186261654E0,8.361150742E0,1.490989089E0
8.429181900E-1,4.210203648E0,8.212710381E0,1.481412292E0
8.449111070E-1,4.095282078E0,8.125920296E0,1.462258697E0
8.469040230E-1,4.061763287E0,8.025363922E0,1.438316703E0
8.488969400E-1,3.922899485E0,7.948749542E0,1.471835494E0
8.508898570E-1,3.884592295E0,7.833827972E0,1.390432596E0
8.528827730E-1,3.836708307E0,7.728483200E0,1.313818216E0
8.548756900E-1,3.836708307E0,7.618350029E0,1.304241419E0
8.568686070E-1,3.773860455E0,7.513004780E0,1.256357312E0
8.588615230E-1,3.759495258E0,7.412448406E0,1.170166135E0
8.608544400E-1,3.697246075E0,7.326257229E0,1.093551636E0
8.628473570E-1,3.697246075E0,7.240066051E0,1.021725535E0
8.648402730E-1,3.692457676E0,7.144298077E0,9.451110959E-1
8.668331900E-1,3.673303843E0,7.082048416E0,8.301894665E-1
8.688261070E-1,3.658938646E0,7.014412403E0,7.823054194E-1
8.708190230E-1,3.663727045E0,6.985682011E0,6.386532784E-1
8.728119400E-1,3.658938646E0,6.947374821E0,5.955576897E-1
8.748048570E-1,3.601477861E0,6.942586422E0,4.513070285E-1
8.767977730E-1,3.553593874E0,6.933009624E0,3.603273630E-1
8.787906900E-1,3.524863482E0,6.923432827E0,2.741360962E-1
8.807836070E-1,3.505709887E0,6.899490833E0,1.304839998E-1
8.827765230E-1,3.606266260E0,6.913856030E0,5.985504016E-3
8.847694400E-1,3.663727045E0,6.937798023E0,-1.376665980E-1
8.867623570E-1,3.721188068E0,6.976105213E0,-2.525882721E-1
8.887552730E-1,3.807977915E0,7.024587631E0,-3.675099611E-1
8.907481900E-1,3.855861902E0,7.105990410E0,-4.872200489E-1
8.927411070E-1,3.927687883E0,7.158663273E0,-5.686228871E-1
8.947340230E-1,4.013879299E0,7.216124058E0,-6.697779298E-1
8.967269400E-1,4.119224072E0,7.350199223E0,-7.511807680E-1
8.987198570E-1,4.191050053E0,7.445967197E0,-7.846996188E-1
9.007127730E-1,4.243722439E0,7.532158375E0,-8.182184100E-1
9.027056900E-1,4.373009205E0,7.632715225E0,-8.277952671E-1
9.046986070E-1,4.463989258E0,7.718906403E0,-7.990648150E-1
9.066915230E-1,4.463989258E0,7.843404770E0,-7.128735781E-1
9.086844400E-1,4.463989258E0,7.939172745E0,-5.734112859E-1
9.106773570E-1,4.631583214E0,8.030152321E0,-5.303156972E-1
9.126702730E-1,4.775235176E0,8.135497093E0,-3.866635859E-1
9.146631900E-1,4.986523628E0,8.241440773E0,-2.430114746E-1
9.166561070E-1,5.139752388E0,8.337208748E0,-3.711012751E-2
9.186490230E-1,5.240308762E0,8.447341919E0,1.879448295E-1
9.206419400E-1,5.379172802E0,8.567051888E0,4.513070285E-1
9.226348570E-1,5.527613163E0,8.686761856E0,7.152677774E-1
9.246277730E-1,5.637746334E0,8.796895981E0,9.546879530E-1
9.266206900E-1,5.628169537E0,8.907029152E0,1.332971811E0
9.286136070E-1,5.776610374E0,8.988431931E0,1.639429569E0
9.306065230E-1,5.881955147E0,9.069834709E0,1.860294700E0
9.325994400E-1,6.011241913E0,9.160814285E0,2.171540976E0
9.345923570E-1,6.160281181E0,9.223063469E0,2.425326347E0
9.365852730E-1,6.299144745E0,9.271546364E0,2.640804529E0
9.385781900E-1,6.452373505E0,9.324218750E0,2.866457939E0
9.405711070E-1,6.567295074E0,9.362525940E0,3.005321741E0
9.425640230E-1,6.672640324E0,9.415198326E0,3.163338900E0
9.445569400E-1,6.773196697E0,9.439140320E0,3.249530315E0
9.465498570E-1,6.782773495E0,9.458293915E0,3.306991100E0
9.485427730E-1,6.830657482E0,9.463082314E0,3.321356297E0
9.505356900E-1,6.811503887E0,9.453505516E0,3.292625904E0
9.525286070E-1,6.777985096E0,9.434351921E0,3.211223125E0
9.545215230E-1,6.663063526E0,9.419986725E0,3.125031710E0
9.565144400E-1,6.423643112E0,9.400833130E0,3.014898539E0
9.585073570E-1,6.203376770E0,9.386467934E0,2.837727547E0
9.605002730E-1,5.968146324E0,9.357737541E0,2.621650934E0
9.624931900E-1,5.685630322E0,9.324218750E0,2.415749550E0
9.644861070E-1,5.283404827E0,9.251793861E0,2.243366957E0
9.664790230E-1,5.067926407E0,9.208698273E0,2.152387381E0
9.684719400E-1,4.914099216E0,9.184756279E0,1.989581585E0
9.704648570E-1,4.760869980E0,9.170391083E0,1.754949808E0
9.724577730E-1,4.598064423E0,9.146449089E0,1.534084797E0
9.744506900E-1,4.478354454E0,9.136872292E0,1.376067400E0
9.764436070E-1,4.411316395E0,9.112930298E0,1.184531331E0
9.784365230E-1,4.363432407E0,9.088988304E0,9.738415480E-1
9.804294400E-1,4.320336819E0,9.088988304E0,7.918822169E-1
9.824223570E-1,4.286818027E0,9.074623108E0,6.290764809E-1
9.844152730E-1,4.253299236E0,9.031527519E0,4.991910458E-1
9.864081900E-1,4.248510838E0,9.026739120E0,3.794809580E-1
9.884011070E-1,4.258087635E0,9.026739120E0,2.741360962E-1
9.903940230E-1,4.262876034E0,9.017162323E0,2.023100406E-1
9.923869400E-1,4.253299236E0,9.036315918E0,1.687912196E-1
9.943798570E-1,4.210203648E0,9.045892715E0,1.687912196E-1
9.963727730E-1,4.171896458E0,9.055469513E0,1.735796183E-1
9.983656900E-1,4.157531261E0,9.108141899E0,2.501940727E-1
1.000358607E0,4.104858875E0,9.151237488E0,3.268085420E-1
1.002351523E0,4.071340084E0,9.199121475E0,4.177882075E-1
1.004344440E0,3.999513865E0,9.256582260E0,5.333084464E-1
1.006337357E0,3.961206675E0,9.338583946E0,6.673837304E-1
1.008330273E0,3.903745890E0,9.367314339E0,8.445546627E-1
1.010323190E0,3.803189516E0,9.434351921E0,1.055244446E0
1.012316159E0,3.735553265E0,9.472659111E0,1.218050122E0
1.014309127E0,3.644573450E0,9.544485092E0,1.371279001E0
1.016302096E0,3.601477861E0,9.616311073E0,1.529296279E0
1.018295065E0,3.524863482E0,9.683348656E0,1.654393315E0
1.020288034E0,3.467402697E0,9.726444244E0,1.769315004E0
1.022281002E0,3.400364876E0,9.774328232E0,1.855506301E0
1.024273971E0,3.385999680E0,9.788693428E0,1.917755604E0
1.026266940E0,3.342904091E0,9.798270226E0,1.951274395E0
1.028259909E0,3.290231705E0,9.779116631E0,1.984793186E0
1.030252877E0,3.256712914E0,9.764751434E0,2.003946781E0
1.032245846E0,3.237559319E0,9.731232643E0,2.023100376E0
1.034238815E0,3.247136116E0,9.659406662E0,2.027888775E0
1.036231784E0,3.251924515E0,9.592369080E0,2.013523579E0
1.038224752E0,3.232770920E0,9.539696693E0,2.003946781E0
1.040217721E0,3.261501312E0,9.453505516E0,1.980004787E0
1.042210690E0,3.251924515E0,9.396044731E0,1.960851192E0
1.044203659E0,3.295020103E0,9.285911560E0,1.946485996E0
1.046196627E0,3.347692490E0,9.165602684E0,1.936909199E0
1.048189596E0,3.405153275E0,9.069834709E0,1.946485996E0
1.050182565E0,3.481767893E0,8.950124741E0,1.936909199E0
1.052175534E0,3.548805475E0,8.863933563E0,1.903390408E0
1.054168502E0,3.611054659E0,8.753800392E0,1.869871497E0
1.056161471E0,3.634996653E0,8.686761856E0,1.769315004E0
1.058154440E0,3.649361849E0,8.600570679E0,1.615487576E0
1.060147409E0,3.673303843E0,8.485649109E0,1.462258697E0
1.062140377E0,3.678092480E0,8.432976723E0,1.256357312E0
1.064133346E0,3.654150248E0,8.375515938E0,1.036090732E0
1.066126315E0,3.634996653E0,8.318055153E0,8.397662640E-1
1.068119284E0,3.601477861E0,8.251017570E0,6.386532784E-1
1.070112252E0,3.553593874E0,8.188768387E0,4.560954273E-1
1.072105169E0,3.563170671E0,8.130708694E0,3.028665185E-1
1.074098086E0,3.472191095E0,8.092401505E0,2.118868530E-1
1.076091002E0,3.496133089E0,8.068459511E0,1.304839998E-1
1.078083919E0,3.476979494E0,8.034940720E0,5.865794048E-2
1.080076836E0,3.453037500E0,8.001421928E0,4.429273307E-2
1.082069752E0,3.467402697E0,7.972691536E0,5.386953801E-2
1.084062669E0,3.453037500E0,8.010998726E0,5.386953801E-2
1.086055586E0,3.448249102E0,8.006210327E0,9.696517140E-2
1.088048502E0,3.491344690E0,7.967903137E0,1.113303825E-1
1.090041419E0,3.601477861E0,7.915230751E0,1.544260085E-1
1.092034336E0,3.644573450E0,7.876923561E0,1.831564307E-1
1.094027252E0,3.682880878E0,7.862558365E0,2.837128937E-1
1.096020169E0,3.687669277E0,7.848193169E0,4.225766063E-1
1.098013086E0,3.663727045E0,7.852981567E0,5.764040351E-1
1.100006002E0,3.630208254E0,7.833827972E0,7.344213724E-1
1.101998919E0,3.587112665E0,7.805097580E0,8.541314602E-1
1.103991836E0,3.481767893E0,7.829039574E0,1.012148738E0
1.105984752E0,3.433883905E0,7.800309181E0,1.160589218E0
1.107977669E0,3.376422882E0,7.790732384E0,1.318606615E0
1.109970586E0,3.357269287E0,7.790732384E0,1.495777488E0
1.111963502E0,3.323750496E0,7.738059998E0,1.678335428E0
1.113956419E0,3.275866508E0,7.709329605E0,1.845929503E0
1.115949336E0,3.242347717E0,7.694964409E0,2.051830769E0
1.117942252E0,3.247136116E0,7.671022415E0,2.219424963E0
1.119935169E0,3.232770920E0,7.656657219E0,2.401384354E0
1.121928086E0,3.247136116E0,7.661445618E0,2.573766708E0
1.123921002E0,3.275866508E0,7.656657219E0,2.755726099E0
1.125913919E0,3.299808502E0,7.694964409E0,2.919130325E0
1.127906836E0,3.333327293E0,7.709329605E0,3.062782526E0
1.129899752E0,3.390788078E0,7.752425194E0,3.177704096E0
1.131892669E0,3.433883905E0,7.805097580E0,3.235165119E0
1.133885586E0,3.539228678E0,7.867346764E0,3.297414303E0
1.135878502E0,3.615843058E0,7.934384346E0,3.306991100E0
1.137871419E0,3.687669277E0,7.977479935E0,3.292625904E0
1.139864336E0,3.817554712E0,8.054094315E0,3.220799923E0
1.141857252E0,3.927687883E0,8.101978302E0,3.096301317E0
1.143850169E0,4.009090900E0,8.164826393E0,2.971802950E0
1.145843086E0,4.128800869E0,8.222287178E0,2.799420357E0
1.147836002E0,4.191050053E0,8.289324760E0,2.578555346E0
1.149828919E0,4.262876034E0,8.341997147E0,2.363077164E0
1.151821836E0,4.353855610E0,8.404246330E0,2.118868589E0
1.153814752E0,4.435258865E0,8.466495514E0,1.903390408E0
1.155807669E0,4.487931252E0,8.514379501E0,1.668758631E0
1.157800586E0,4.511873245E0,8.567051888E0,1.447893500E0
1.159793502E0,4.574122429E0,8.634089470E0,1.275510907E0
1.161786419E0,4.593276024E0,8.672396660E0,1.117493629E0
1.163779336E0,4.583699226E0,8.720281601E0,9.355342984E-1
1.165772252E0,4.593276024E0,8.753800392E0,8.206126094E-1
1.167765169E0,4.598064423E0,8.777742386E0,7.248445749E-1
1.169758086E0,4.598064423E0,8.801684380E0,7.056909800E-1
1.171751002E0,4.559757233E0,8.801684380E0,6.961141229E-1
1.173743919E0,4.545392036E0,8.811261177E0,6.913257241E-1
1.175736836E0,4.511873245E0,8.839991570E0,7.631517649E-1
1.177729752E0,4.497508049E0,8.801684380E0,8.301894665E-1
1.179722669E0,4.487931252E0,8.782530785E0,9.020155072E-1
1.181715586E0,4.483142853E0,8.725070000E0,9.929951429E-1
1.183708502E0,4.454412460E0,8.715493202E0,1.107916832E0
1.185701419E0,4.435258865E0,8.658031464E0,1.218050122E0
1.187694336E0,4.401739597E0,8.605359077E0,1.337760210E0
1.189687252E0,4.396951199E0,8.533533096E0,1.452681899E0
1.191680169E0,4.396951199E0,8.461707115E0,1.586757183E0
1.193673086E0,4.377797604E0,8.385092735E0,1.687912226E0
1.195666002E0,4.358644009E0,8.308478355E0,1.778891921E0
1.197658919E0,4.339490414E0,8.217498779E0,1.869871497E0
1.199651836E0,4.325125217E0,8.106766701E0,1.932120800E0
1.201644752E0,4.305971622E0,8.006210327E0,1.975216389E0
1.203637669E0,4.262876034E0,7.900865555E0,2.023100376E0
1.205630586E0,4.267664433E0,7.809885979E0,2.037465572E0
1.207623502E0,4.248510838E0,7.709329605E0,2.023100376E0
1.209616419E0,4.243722439E0,7.599195957E0,1.984793186E0
1.211609336E0,4.219780445E0,7.498639584E0,1.898601890E0
1.213602252E0,4.200626850E0,7.393294811E0,1.826775908E0
1.215595169E0,4.186261654E0,7.302315235E0,1.692700624E0
1.217588086E0,4.181473255E0,7.211335659E0,1.548449993E0
1.219581002E0,4.162319660E0,7.120356083E0,1.376067400E0
1.221573919E0,4.128800869E0,6.995258808E0,1.198896527E0
1.223566836E0,4.095282078E0,6.918644428E0,1.055244446E0
1.225559752E0,4.066551685E0,6.813299656E0,8.541314602E-1
1.227552669E0,4.033032894E0,6.717531204E0,6.865373254E-1
1.229545586E0,3.999513865E0,6.607398033E0,5.039794445E-1
1.231538502E0,3.918111086E0,6.497264862E0,3.507505357E-1
1.233531419E0,3.865438700E0,6.415862083E0,2.166752517E-1
1.235524336E0,3.803189516E0,6.344036102E0,7.781155407E-2
1.237517252E0,3.716399670E0,6.257844925E0,5.985504016E-3
1.239510169E0,3.634996653E0,6.229114056E0,-9.457096457E-2
1.241503086E0,3.472191095E0,6.186018467E0,-1.376665980E-1
1.243496002E0,3.357269287E0,6.166864872E0,-1.903390288E-1
1.245488919E0,3.256712914E0,6.109404087E0,-2.094926536E-1
1.247481836E0,3.156156301E0,6.032789707E0,-1.999158412E-1
1.249474752E0,3.065176725E0,5.956175327E0,-1.807622313E-1
1.251467669E0,2.974197149E0,5.869385242E0,-1.472434103E-1
1.253460586E0,2.907159328E0,5.787982464E0,-8.978256583E-2
1.255453502E0,2.835333347E0,5.682637691E0,-2.274491638E-2
1.257446419E0,2.758718967E0,5.620388508E0,3.471592441E-2
1.259439336E0,2.696469545E0,5.553350925E0,1.496376097E-1
1.261432252E0,2.647987127E0,5.457582951E0,2.549824715E-1
1.263425169E0,2.609679937E0,5.371391296E0,3.890577853E-1
1.265418086E0,2.595314741E0,5.294776917E0,5.572504401E-1
1.267411002E0,2.585737944E0,5.222950935E0,7.296329737E-1
1.269403919E0,2.600103140E0,5.136759758E0,9.115923047E-1
1.271396836E0,2.604891539E0,5.088875771E0,1.151012421E0
1.273389752E0,2.633621931E0,5.060145378E0,1.395220995E0
1.275382669E0,2.662352324E0,5.036203384E0,1.644816518E0
1.277375586E0,2.696469545E0,5.060145378E0,1.865083098E0
1.279368502E0,2.729988575E0,5.117606163E0,2.123656988E0
1.281361419E0,2.801814556E0,5.189432144E0,2.377442360E0
1.283354336E0,2.907159328E0,5.285200119E0,2.602497339E0
1.285347252E0,2.959831953E0,5.376179695E0,2.880823135E0
1.287340169E0,3.065176725E0,5.500678539E0,3.144185305E0
1.289333086E0,3.160944700E0,5.634753704E0,3.417124271E0
1.291326002E0,3.304596901E0,5.826289654E0,3.733159065E0
1.293318919E0,3.453037500E0,6.018424511E0,4.054580688E0
1.295311836E0,3.596689463E0,6.205172062E0,4.370615005E0
1.297304752E0,3.793014050E0,6.420650482E0,4.667496204E0
1.299297669E0,3.975571871E0,6.631340027E0,4.930858612E0
1.301290586E0,4.143166065E0,6.880337238E0,5.108627796E0
1.303283502E0,4.334702015E0,7.149086475E0,5.194818974E0
1.305276419E0,4.507084846E0,7.402871609E0,5.146934986E0
1.307269336E0,4.645948410E0,7.627926826E0,5.002684593E0
1.309262252E0,4.780023575E0,7.862558365E0,4.830301762E0
1.311255169E0,4.842272758E0,8.039729118E0,4.533421040E0
1.313248086E0,4.880579948E0,8.241440773E0,4.217386246E0
1.315241002E0,4.948216438E0,8.394669533E0,3.867234230E0
1.317233919E0,4.938639641E0,8.547898293E0,3.517680883E0
1.319226836E0,4.904522419E0,8.643666267E0,3.101089716E0
1.321219752E0,4.880579948E0,8.782530785E0,2.722207308E0
1.323212669E0,4.851849556E0,8.878298759E0,2.305616140E0
1.325205586E0,4.799177170E0,8.969278336E0,1.932120800E0
1.327198502E0,4.746504784E0,9.031527519E0,1.639429569E0
1.329191419E0,4.679467201E0,9.084199905E0,1.352125406E0
1.331184336E0,4.631583214E0,9.132083893E0,1.055244446E0
1.333177252E0,4.602852821E0,9.156025887E0,8.397662640E-1
1.335170169E0,4.545392036E0,9.179967880E0,6.290764809E-1
1.337163138E0,4.521450043E0,9.199121475E0,4.752490520E-1
1.339156107E0,4.507084846E0,9.189544678E0,3.411737382E-1
1.341149075E0,4.492719650E0,9.170391083E0,2.023100406E-1
1.343142044E0,4.449624062E0,9.112930298E0,8.738835901E-2
1.345135013E0,4.420893669E0,9.084199905E0,1.197100850E-3
1.347127982E0,4.396951199E0,9.021950722E0,-7.062894851E-2
1.349120950E0,4.377797604E0,8.940547943E0,-1.233013868E-1
1.351113919E0,4.305971622E0,8.844779968E0,-1.568202078E-1
1.353106888E0,4.277241230E0,8.739435196E0,-1.089361757E-1
1.355099857E0,4.224568844E0,8.605359077E0,-8.499415964E-2
1.357092825E0,4.143166065E0,8.480860710E0,-5.626374111E-2
1.359085794E0,4.066551685E0,8.346785545E0,4.429273307E-2
1.361078763E0,3.985148668E0,8.231863976E0,1.592144072E-1
1.363071732E0,3.908534288E0,8.106766701E0,2.885012925E-1
1.365064700E0,3.851073503E0,7.987056732E0,4.034229815E-1
1.367057669E0,3.759495258E0,7.843404770E0,5.572504401E-1
1.369050638E0,3.702034473E0,7.738059998E0,7.056909800E-1
1.371043607E0,3.611054659E0,7.613561630E0,8.828618526E-1
1.373036575E0,3.548805475E0,7.498639584E0,1.050456047E0
1.375029544E0,3.476979494E0,7.398083210E0,1.270722508E0
1.377022513E0,3.429095268E0,7.297526836E0,1.462258697E0
1.379015482E0,3.400364876E0,7.235277653E0,1.687912226E0
1.381008450E0,3.338115692E0,7.144298077E0,1.970427990E0
1.383001419E0,3.328538895E0,7.110779285E0,2.257732153E0
1.384994388E0,3.347692490E0,7.105990410E0,2.549824715E0
1.386987357E0,3.385999680E0,7.115567684E0,2.890399933E0
1.388980325E0,3.438672304E0,7.158663273E0,3.230376720E0
1.390973294E0,3.553593874E0,7.230489254E0,3.579930067E0
1.392966263E0,3.649361849E0,7.331045628E0,3.920505285E0
1.394959232E0,3.817554712E0,7.436390400E0,4.231751442E0
1.396952148E0,3.980360270E0,7.565677166E0,4.495113850E0
1.398945065E0,4.119224072E0,7.699752808E0,4.696226597E0
1.400937982E0,4.262876034E0,7.891288757E0,4.815936565E0
1.402930898E0,4.377797604E0,8.068459511E0,4.887762547E0
1.404923815E0,4.492719650E0,8.251017570E0,4.930858612E0
1.406916732E0,4.550180435E0,8.418611526E0,4.945223808E0
1.408909648E0,4.602852821E0,8.581417084E0,4.897339344E0
1.410902565E0,4.641160011E0,8.725070000E0,4.782417774E0
1.412895482E0,4.641160011E0,8.835203171E0,4.643554211E0
1.414888398E0,4.626794815E0,8.935759544E0,4.499902248E0
1.416881315E0,4.631583214E0,9.036315918E0,4.337096214E0
1.418874232E0,4.559757233E0,9.117718697E0,4.131195068E0
1.420867148E0,4.483142853E0,9.179967880E0,3.944447279E0
1.422860065E0,4.411316395E0,9.251793861E0,3.771466255E0
1.424852982E0,4.286818027E0,9.314641953E0,3.560776472E0
1.426845898E0,4.167108059E0,9.362525940E0,3.340509892E0
1.428838815E0,4.066551685E0,9.415198326E0,3.120243311E0
1.430831732E0,3.918111086E0,9.463082314E0,2.909553528E0
1.432824648E0,3.797802448E0,9.467870712E0,2.679111719E0
1.434817565E0,3.678092480E0,9.477447510E0,2.506729126E0
1.436810482E0,3.567959070E0,9.467870712E0,2.358288765E0
1.438803398E0,3.453037500E0,9.410409927E0,2.219424963E0
1.440796315E0,3.362057686E0,9.343372345E0,2.104503393E0
1.442789232E0,3.237559319E0,9.276334763E0,1.980004787E0
1.444782148E0,3.132214308E0,9.199121475E0,1.879448295E0
1.446775065E0,3.026869535E0,9.093776703E0,1.769315004E0
1.448767982E0,2.911947727E0,8.998008728E0,1.697489023E0
1.450760898E0,2.820968151E0,8.868721962E0,1.644816518E0
1.452753815E0,2.729988575E0,8.753800392E0,1.620275974E0
1.454746732E0,2.652775526E0,8.619724274E0,1.629852772E0
1.456739648E0,2.595314741E0,8.504802704E0,1.654393315E0
1.458732565E0,2.566584110E0,8.375515938E0,1.721431017E0
1.460725482E0,2.542642117E0,8.251017570E0,1.802833915E0
1.462718398E0,2.542642117E0,8.125920296E0,1.917755604E0
1.464711315E0,2.600103140E0,7.991845131E0,2.070984364E0
1.466704232E0,2.671929121E0,7.891288757E0,2.233790159E0
1.468697148E0,2.734776974E0,7.800309181E0,2.434903145E0
1.470690065E0,2.864063740E0,7.718906403E0,2.631227732E0
1.472682982E0,2.959831953E0,7.651868820E0,2.847304344E0
1.474675898E0,3.069965124E0,7.608773232E0,3.086724520E0
1.476668815E0,3.223194122E0,7.565677166E0,3.326144695E0
1.478661732E0,3.390788078E0,7.546523571E0,3.560776472E0
1.480654648E0,3.534440279E0,7.522581577E0,3.771466255E0
1.482647565E0,3.721188068E0,7.560888767E0,3.968389273E0
1.484640482E0,3.927687883E0,7.580042362E0,4.155137062E0
1.486633398E0,4.124012470E0,7.623138428E0,4.322731018E0
1.488626315E0,4.320336819E0,7.690176010E0,4.447229862E0
1.490619232E0,4.516661644E0,7.738059998E0,4.562151432E0
1.492612148E0,4.751293182E0,7.805097580E0,4.657919407E0
1.494605065E0,4.948216438E0,7.867346764E0,4.744110584E0
1.496597982E0,5.173271179E0,7.953537941E0,4.777629375E0
1.498590898E0,5.403114796E0,8.020575523E0,4.777629375E0
1.500583815E0,5.565920353E0,8.116343498E0,4.734533787E0
1.502576732E0,5.676053524E0,8.207921982E0,4.629189014E0
1.504569648E0,5.781398773E0,8.270171165E0,4.423287868E0
1.506562565E0,5.901108742E0,8.341997147E0,4.203021049E0
1.508555482E0,5.934627533E0,8.385092735E0,3.901351690E0
1.510548398E0,6.006453514E0,8.432976723E0,3.608660460E0
1.512541315E0,6.050147533E0,8.500014305E0,3.297414303E0
1.514534232E0,6.054935932E0,8.538321495E0,2.952649355E0
1.516527148E0,6.020818710E0,8.605359077E0,2.616862535E0
1.518520065E0,5.953781128E0,8.643666267E0,2.305616140E0
1.520512982E0,5.819705963E0,8.691550255E0,1.960851192E0
1.522505898E0,5.776610374E0,8.744223595E0,1.654393315E0
1.524498815E0,5.728725910E0,8.787319183E0,1.385644197E0
1.526491732E0,5.652111530E0,8.830414772E0,1.155800819E0
1.528484648E0,5.623381138E0,8.844779968E0,9.115923047E-1
1.530477565E0,5.594650745E0,8.873510361E0,7.727286220E-1
1.532470482E0,5.580285549E0,8.902240753E0,5.955576897E-1
1.534463398E0,5.599439144E0,8.887875557E0,4.704606235E-1
1.536456315E0,5.613804340E0,8.839991570E0,3.651157618E-1
1.538449232E0,5.661688328E0,8.792107582E0,3.315969408E-1
1.540442148E0,5.690418720E0,8.763377190E0,2.885012925E-1
1.542435065E0,5.824494362E0,8.720281601E0,3.459621370E-1
1.544427982E0,5.977723122E0,8.643666267E0,4.034229815E-1
1.546420898E0,6.102819920E0,8.595782280E0,5.333084464E-1
1.548413815E0,6.260837555E0,8.495225906E0,7.248445749E-1
1.550406732E0,6.337451935E0,8.428188324E0,9.307458997E-1
1.552399648E0,6.485892296E0,8.346785545E0,1.280299306E0
1.554392565E0,6.734889507E0,8.284536362E0,1.644816518E0
1.556385482E0,6.983886242E0,8.217498779E0,1.999158382E0
1.558378398E0,7.199963093E0,8.160037994E0,2.367865562E0
1.560371315E0,7.439383030E0,8.092401505E0,2.775478363E0
1.562364232E0,7.731475830E0,8.073247910E0,3.201646328E0
1.564357148E0,8.013991356E0,8.049305916E0,3.690063477E0
1.566350065E0,8.262989044E0,8.054094315E0,4.155137062E0
1.568342982E0,8.469488144E0,8.073247910E0,4.633977413E0
1.570335898E0,8.593987465E0,8.150461197E0,5.094262600E0
1.572328815E0,8.613141060E0,8.274959564E0,5.506065369E0
1.574321732E0,8.593987465E0,8.432976723E0,5.812523365E0
1.576314648E0,8.536525726E0,8.614935875E0,6.051943302E0
1.578307565E0,8.392873764E0,8.801684380E0,6.200982571E0
1.580300482E0,8.195950508E0,9.017162323E0,6.234501362E0
1.582293398E0,7.932588577E0,9.232640266E0,6.167463779E0
1.584286315E0,7.635707855E0,9.429563522E0,6.013636112E0
1.586279232E0,7.324461460E0,9.601945877E0,5.798158169E0
1.588272148E0,7.026981831E0,9.803058624E0,5.525218964E0
1.590265065E0,6.725312710E0,9.956287384E0,5.204395771E0
1.592257982E0,6.447585106E0,1.009515190E1,4.830301762E0
1.594250898E0,6.208165169E0,1.022443867E1,4.471171856E0
1.596243815E0,5.972934723E0,1.031541824E1,4.068945885E0
1.598236732E0,5.781398773E0,1.039263058E1,3.651756048E0
1.600229648E0,5.628169537E0,1.046924591E1,3.254318714E0
1.602222565E0,5.479729176E0,1.051234150E1,2.866457939E0
1.604215482E0,5.340865612E0,1.056501389E1,2.521094322E0
1.606208398E0,5.197213173E0,1.058895588E1,2.229001760E0
1.608201315E0,5.082291603E0,1.059853268E1,1.946485996E0
1.610194232E0,4.986523628E0,1.063683987E1,1.673547029E0
1.612187148E0,4.813542366E0,1.061768627E1,1.423951507E0
1.614180065E0,4.765658379E0,1.064641666E1,1.208473325E0
1.616172982E0,4.679467201E0,1.064162827E1,1.021725535E0
1.618165898E0,4.583699226E0,1.065120506E1,8.589198589E-1
1.620158815E0,4.483142853E0,1.065120506E1,7.344213724E-1
1.622151732E0,4.373009205E0,1.066078186E1,6.386532784E-1
1.624144648E0,4.262876034E0,1.066078186E1,5.668272376E-1
1.626137565E0,4.128800869E0,1.067514706E1,5.333084464E-1
1.628130482E0,4.018667698E0,1.069908905E1,5.428852439E-1
1.630123398E0,3.879803896E0,1.072303104E1,5.428852439E-1
1.632116315E0,3.778648853E0,1.074218464E1,5.668272376E-1
1.634109232E0,3.702034473E0,1.075176144E1,6.099228859E-1
1.636102148E0,3.634996653E0,1.078049183E1,6.625953317E-1
1.638095065E0,3.534440279E0,1.083316422E1,7.487865686E-1
1.640087982E0,3.419518471E0,1.086668301E1,8.493430614E-1
1.642080898E0,3.347692490E0,1.091456699E1,9.307458997E-1
1.644073815E0,3.376422882E0,1.098160458E1,1.093551636E0
1.646066732E0,3.390788078E0,1.108216095E1,1.251568913E0
1.648059648E0,3.424306870E0,1.116835213E1,1.438316703E0
1.650052565E0,3.429095268E0,1.122102451E1,1.596333981E0
1.652045482E0,3.419518471E0,1.124975491E1,1.778891921E0
1.654038398E0,3.539228678E0,1.138383007E1,1.951274395E0
1.656031315E0,3.634996653E0,1.148917580E1,2.157175779E0
1.658024232E0,3.749918461E0,1.158075333E1,2.377442360E0
1.660017148E0,3.846285105E0,1.166215611E1,2.597708941E0
1.662010065E0,3.951629877E0,1.175313568E1,2.832939148E0
1.664002982E0,4.047398090E0,1.182496262E1,3.057994127E0
1.665995898E0,4.124012470E0,1.191115379E1,3.278260708E0
1.667988867E0,4.253299236E0,1.201171017E1,3.503315687E0
1.669981836E0,4.329913616E0,1.210268974E1,3.752312660E0
1.671974805E0,4.430470467E0,1.216972733E1,3.949235678E0
1.673967773E0,4.463989258E0,1.223676491E1,4.164713860E0
1.675960742E0,4.507084846E0,1.232295609E1,4.361038208E0
1.677953711E0,4.521450043E0,1.236126328E1,4.523844242E0
1.679946680E0,4.430470467E0,1.237562847E1,4.610035419E0
1.681939648E0,4.420893669E0,1.243787766E1,4.720168591E0
1.683932617E0,4.411316395E0,1.250012684E1,4.820724964E0
1.685925586E0,4.363432407E0,1.252885723E1,4.902127743E0
1.687918555E0,4.320336819E0,1.255758762E1,4.969165802E0
1.689911523E0,4.267664433E0,1.256237602E1,5.022436619E0
1.691904492E0,4.195838451E0,1.255279922E1,5.060743809E0
1.693897461E0,4.090493679E0,1.252406883E1,5.099050999E0
1.695890430E0,3.932476282E0,1.247139645E1,5.089474201E0
1.697883398E0,3.822343111E0,1.241872406E1,5.036801815E0
1.699876367E0,3.735553265E0,1.235647488E1,5.036801815E0
1.701869336E0,3.606266260E0,1.225591850E1,4.978742599E0
1.703862305E0,3.500921488E0,1.217451572E1,4.926070213E0
1.705855273E0,3.385999680E0,1.206438255E1,4.844666958E0
1.707848242E0,3.285443306E0,1.193509579E1,4.796782970E0
1.709841211E0,3.213617325E0,1.179623222E1,4.701014996E0
1.711834180E0,3.122637510E0,1.165257931E1,4.624400616E0
1.713827148E0,3.050811529E0,1.148438740E1,4.495113850E0
1.715820117E0,2.988562346E0,1.128806210E1,4.356249809E0
1.717813086E0,2.931101322E0,1.113004494E1,4.231751442E0
1.719806055E0,2.883217335E0,1.101033497E1,4.097676277E0
1.721799023E0,2.844910145E0,1.088104820E1,3.939658880E0
1.723791992E0,2.811391354E0,1.074218464E1,3.795408249E0
1.725784961E0,2.782660961E0,1.060810947E1,3.651756048E0
1.727777877E0,2.749142170E0,1.048839951E1,3.488950491E0
1.729770794E0,2.710834980E0,1.035372543E1,3.330933094E0
1.731763711E0,2.676717520E0,1.021486187E1,3.187281132E0
1.733756627E0,2.624045134E0,1.009036350E1,3.024475336E0
1.735749544E0,2.604891539E0,9.927556992E0,2.899976730E0
1.737742461E0,2.614468336E0,9.798270226E0,2.799420357E0
1.739735377E0,2.600103140E0,9.664195061E0,2.679111719E0
1.741728294E0,2.595314741E0,9.539696693E0,2.602497339E0
1.743721211E0,2.595314741E0,9.443928719E0,2.525882721E0
1.745714127E0,2.566584110E0,9.324218750E0,2.430114746E0
1.747707044E0,2.600103140E0,9.189544678E0,2.377442360E0
1.749699961E0,2.600103140E0,9.108141899E0,2.329558372E0
1.751692877E0,2.624045134E0,8.988431931E0,2.286462545E0
1.753685794E0,2.633621931E0,8.878298759E0,2.262520552E0
1.755678711E0,2.671929121E0,8.801684380E0,2.248155355E0
1.757671627E0,2.676717520E0,8.710704803E0,2.248155355E0
1.759664544E0,2.701258183E0,8.581417084E0,2.252943754E0
1.761657461E0,2.739565372E0,8.490437508E0,2.281674147E0
1.763650377E0,2.797026157E0,8.380304337E0,2.319981337E0
1.765643294E0,2.840121746E0,8.294113159E0,2.377442360E0
1.767636211E0,2.911947727E0,8.198345184E0,2.430114746E0
1.769629127E0,2.988562346E0,8.106766701E0,2.545036316E0
1.771622044E0,3.060388327E0,8.034940720E0,2.626439333E0
1.773614961E0,3.141791105E0,7.958326340E0,2.750937700E0
1.775607877E0,3.242347717E0,7.900865555E0,2.890399933E0
1.777600794E0,3.362057686E0,7.857769966E0,3.053205729E0
1.779593711E0,3.472191095E0,7.800309181E0,3.172915697E0
1.781586627E0,3.572747469E0,7.728483200E0,3.326144695E0
1.783579544E0,3.697246075E0,7.661445618E0,3.488950491E0
1.785572461E0,3.827131510E0,7.613561630E0,3.627814054E0
1.787565377E0,3.985148668E0,7.580042362E0,3.781043053E0
1.789558294E0,4.109647274E0,7.536946774E0,3.925293684E0
1.791551211E0,4.277241230E0,7.508216381E0,4.040215492E0
1.793544127E0,4.406527996E0,7.469909191E0,4.169502258E0
1.795537044E0,4.550180435E0,7.450755596E0,4.279635429E0
1.797529961E0,4.717774391E0,7.469909191E0,4.389768600E0
1.799522877E0,4.856637955E0,7.465120792E0,4.490325451E0
1.801515794E0,5.000888824E0,7.484274387E0,4.533421040E0
1.803508711E0,5.130175591E0,7.508216381E0,4.586093426E0
1.805501627E0,5.245097160E0,7.608773232E0,4.681861401E0
1.807494544E0,5.331288815E0,7.680599213E0,4.720168591E0
1.809487461E0,5.393537998E0,7.771578789E0,4.777629375E0
1.811480377E0,5.441421986E0,7.876923561E0,4.806359768E0
1.813473294E0,5.441421986E0,8.006210327E0,4.835090160E0
1.815466211E0,5.422268391E0,8.130708694E0,4.844666958E0
1.817459127E0,5.369596004E0,8.265382767E0,4.854243755E0
1.819452044E0,5.326500416E0,8.375515938E0,4.887762547E0
1.821444961E0,5.269039154E0,8.509591103E0,4.926070213E0
1.823437877E0,5.202001572E0,8.619724274E0,4.921281815E0
1.825430794E0,5.125387192E0,8.758588791E0,4.926070213E0
1.827423711E0,5.058349609E0,8.887875557E0,4.916493416E0
1.829416627E0,4.972158432E0,9.007585526E0,4.906916618E0
1.831409544E0,4.899733543E0,9.103353500E0,4.854243755E0
1.833402461E0,4.847061157E0,9.179967880E0,4.820724964E0
1.835395377E0,4.794388771E0,9.271546364E0,4.768052578E0
1.837388294E0,4.736927986E0,9.314641953E0,4.696226597E0
1.839381211E0,4.703409195E0,9.352949142E0,4.600458622E0
1.841374127E0,4.689043999E0,9.357737541E0,4.514267445E0
1.843367044E0,4.684255600E0,9.434351921E0,4.447229862E0
1.845359961E0,4.679467201E0,9.439140320E0,4.313154221E0
1.847352877E0,4.665102005E0,9.453505516E0,4.250905037E0
1.849345794E0,4.636371613E0,9.453505516E0,4.183867455E0
1.851338711E0,4.626794815E0,9.439140320E0,4.078522682E0
1.853331627E0,4.607641220E0,9.410409927E0,4.001908302E0
1.855324544E0,4.598064423E0,9.405621529E0,3.949235678E0
1.857317461E0,4.569334030E0,9.367314339E0,3.848080635E0
1.859310377E0,4.531026840E0,9.305065155E0,3.800196648E0
1.861303294E0,4.511873245E0,9.237428665E0,3.737947464E0
1.863296211E0,4.502296448E0,9.165602684E0,3.704428673E0
1.865289127E0,4.459200859E0,9.088988304E0,3.670909643E0
1.867282044E0,4.440047264E0,9.007585526E0,3.613448858E0
1.869274961E0,4.377797604E0,8.921394348E0,3.584718466E0
1.871267877E0,4.334702015E0,8.820837975E0,3.584718466E0
1.873260794E0,4.291606426E0,8.739435196E0,3.594295263E0
1.875253711E0,4.219780445E0,8.638877869E0,3.613448858E0
1.877246627E0,4.171896458E0,8.547898293E0,3.608660460E0
1.879239544E0,4.124012470E0,8.452130318E0,3.646967649E0
1.881232461E0,4.095282078E0,8.351573944E0,3.680486679E0
1.883225377E0,4.066551685E0,8.265382767E0,3.733159065E0
1.885218294E0,4.037821293E0,8.188768387E0,3.800196648E0
1.887211211E0,3.989937067E0,8.101978302E0,3.833715439E0
1.889204127E0,3.965995073E0,8.015787125E0,3.915716887E0
1.891197044E0,3.927687883E0,7.934384346E0,3.987542868E0
1.893189961E0,3.894169092E0,7.857769966E0,4.049792290E0
1.895182877E0,3.836708307E0,7.776367188E0,4.140771866E0
1.897175794E0,3.788225651E0,7.694964409E0,4.212597847E0
1.899168711E0,3.749918461E0,7.603984833E0,4.303577423E0
1.901161627E0,3.735553265E0,7.527369976E0,4.380191803E0
1.903154544E0,3.687669277E0,7.431602001E0,4.471171856E0
1.905147461E0,3.634996653E0,7.340622425E0,4.557363033E0
1.907140377E0,3.587112665E0,7.244854450E0,4.638765812E0
1.909133294E0,3.548805475E0,7.177816868E0,4.705803394E0
1.911126211E0,3.481767893E0,7.091625214E0,4.753687382E0
1.913119127E0,3.405153275E0,7.009624004E0,4.839878559E0
1.915112044E0,3.338115692E0,6.928221226E0,4.897339344E0
1.917104961E0,3.247136116E0,6.837241650E0,4.911705017E0
1.919097877E0,3.156156301E0,6.746262074E0,4.935647011E0
1.921090794E0,3.079541922E0,6.669647217E0,4.935647011E0
1.923083711E0,2.988562346E0,6.597821236E0,4.897339344E0
1.925076627E0,2.926312923E0,6.525995255E0,4.859032154E0
1.927069544E0,2.835333347E0,6.458957672E0,4.820724964E0
1.929062461E0,2.749142170E0,6.401496887E0,4.763264179E0
1.931055377E0,2.643198729E0,6.329670906E0,4.696226597E0
1.933048294E0,2.576161146E0,6.291363716E0,4.605247021E0
1.935041211E0,2.499546528E0,6.257844925E0,4.504690647E0
1.937034127E0,2.446874142E0,6.195595264E0,4.408922195E0
1.939027044E0,2.370259762E0,6.152499676E0,4.294000626E0
1.941019961E0,2.293645144E0,6.114192486E0,4.183867455E0
1.943012877E0,2.245761156E0,6.080673695E0,4.045003891E0
1.945005794E0,2.193088770E0,6.051943302E0,3.906140089E0
1.946998711E0,2.116474390E0,5.984905720E0,3.766677856E0
1.948991627E0,2.049436569E0,5.965752125E0,3.637390852E0
1.950984544E0,1.982398987E0,5.937021732E0,3.508104086E0
1.952977461E0,1.948880196E0,5.908291340E0,3.354875088E0
1.954970377E0,1.905784607E0,5.883750439E0,3.249530315E0
1.956963294E0,1.905784607E0,5.869385242E0,3.125031710E0
1.958956211E0,1.857900500E0,5.831078053E0,3.005321741E0
1.960949127E0,1.848323703E0,5.811924458E0,2.890399933E0
1.962942044E0,1.848323703E0,5.792770863E0,2.799420357E0
1.964934961E0,1.776497602E0,5.749675274E0,2.688688517E0
1.966927877E0,1.742978811E0,5.716156483E0,2.612074137E0
1.968920794E0,1.680729628E0,5.697002888E0,2.549824715E0
1.970913711E0,1.656787634E0,5.673060894E0,2.506729126E0
1.972906627E0,1.637633920E0,5.644330502E0,2.434903145E0
1.974899544E0,1.608903527E0,5.610811710E0,2.444479942E0
1.976892461E0,1.570596337E0,5.558139324E0,2.425326347E0
1.978885377E0,1.580173135E0,5.534197330E0,2.415749550E0
1.980878294E0,1.565807939E0,5.491101742E0,2.430114746E0
1.982871211E0,1.531690478E0,5.438429356E0,2.415749550E0
1.984864127E0,1.526902080E0,5.385756493E0,2.415749550E0
1.986857044E0,1.512536883E0,5.347449303E0,2.439691544E0
1.988849961E0,1.546055794E0,5.285200119E0,2.463633537E0
1.990842877E0,1.526902080E0,5.256469727E0,2.477998734E0
1.992835794E0,1.536478996E0,5.227739334E0,2.516305923E0
1.994828711E0,1.570596337E0,5.194220543E0,2.516305923E0
1.996821627E0,1.580173135E0,5.184643745E0,2.554613113E0
1.998814544E0,1.604115129E0,5.165490150E0,2.588132143E0
2.000807513E0,1.632845521E0,5.155913353E0,2.636016130E0
2.002800482E0,1.666364431E0,5.165490150E0,2.645592928E0
2.004793450E0,1.695094824E0,5.160701752E0,2.688688517E0
2.006786419E0,1.709460020E0,5.151124954E0,2.736572504E0
2.008779388E0,1.738190413E0,5.165490150E0,2.785055161E0
2.010772357E0,1.752555609E0,5.165490150E0,2.837727547E0
2.012765325E0,1.776497602E0,5.184643745E0,2.880823135E0
2.014758294E0,1.805228114E0,5.184643745E0,2.928707123E0
2.016751263E0,1.829170108E0,5.208585739E0,2.981379747E0
2.018744232E0,1.848323703E0,5.222950935E0,3.024475336E0
2.020737200E0,1.867477298E0,5.242104530E0,3.096301317E0
2.022730169E0,1.900996208E0,5.232527733E0,3.148973703E0
2.024723138E0,1.910573006E0,5.270834923E0,3.206434727E0
2.026716107E0,1.939303398E0,5.299565315E0,3.268683910E0
2.028709075E0,1.982398987E0,5.294776917E0,3.302202702E0
2.030702044E0,1.996764183E0,5.299565315E0,3.388393879E0
2.032695013E0,2.011129379E0,5.289988518E0,3.417124271E0
2.034687982E0,2.015917778E0,5.289988518E0,3.498527288E0
2.036680950E0,2.039859772E0,5.294776917E0,3.575141668E0
2.038673919E0,2.049436569E0,5.289988518E0,3.646967649E0
2.040666888E0,2.073378563E0,5.289988518E0,3.723582268E0
2.042659857E0,2.063801765E0,5.275623322E0,3.824138641E0
2.044652825E0,2.078166962E0,5.256469727E0,3.915716887E0
2.046645794E0,2.087743998E0,5.242104530E0,4.025850296E0
2.048638763E0,2.087743998E0,5.222950935E0,4.140771866E0
2.050631732E0,2.092532396E0,5.232527733E0,4.236539841E0
2.052624700E0,2.059013367E0,5.203797340E0,4.341884613E0
2.054617669E0,2.068590164E0,5.199008942E0,4.432864666E0
2.056610638E0,2.054224968E0,5.175066948E0,4.504690647E0
2.058603607E0,2.049436569E0,5.179855347E0,4.571728230E0
2.060596523E0,2.035071373E0,5.170278549E0,4.624400616E0
2.062589440E0,2.030282974E0,5.165490150E0,4.653131008E0
2.064582357E0,2.035071373E0,5.160701752E0,4.662707806E0
2.066575273E0,2.030282974E0,5.141548157E0,4.662707806E0
2.068568190E0,2.035071373E0,5.160701752E0,4.638765812E0
2.070561107E0,2.068590164E0,5.136759758E0,4.547786236E0
2.072554023E0,2.059013367E0,5.136759758E0,4.475960255E0
2.074546940E0,2.106897593E0,5.141548157E0,4.389768600E0
2.076539857E0,2.111685991E0,5.131971359E0,4.265270233E0
2.078532773E0,2.188300371E0,5.131971359E0,4.169502258E0
2.080525690E0,2.236184359E0,5.151124954E0,4.064157486E0
2.082518607E0,2.346317768E0,5.136759758E0,3.977966070E0
2.084511523E0,2.456450939E0,5.170278549E0,3.881599426E0
2.086504440E0,2.561795712E0,5.184643745E0,3.804985046E0
2.088497357E0,2.643198729E0,5.189432144E0,3.718793869E0
2.090490273E0,2.734776974E0,5.227739334E0,3.661332846E0
2.092483190E0,2.849698544E0,5.232527733E0,3.594295263E0
2.094476107E0,2.974197149E0,5.280411720E0,3.532046080E0
2.096469023E0,3.103483915E0,5.309142113E0,3.479373693E0
2.098461940E0,3.204040527E0,5.385756493E0,3.436278105E0
2.100454857E0,3.371634483E0,5.443217754E0,3.436278105E0
2.102447773E0,3.496133089E0,5.486313343E0,3.436278105E0
2.104440690E0,3.687669277E0,5.534197330E0,3.393182278E0
2.106433607E0,3.851073503E0,5.591658115E0,3.388393879E0
2.108426523E0,3.985148668E0,5.644330502E0,3.378817081E0
2.110419440E0,4.176684856E0,5.711368084E0,3.340509892E0
2.112412357E0,4.325125217E0,5.802347660E0,3.297414303E0
2.114405273E0,4.492719650E0,5.878962040E0,3.230376720E0
2.116398190E0,4.636371613E0,5.999270916E0,3.187281132E0
2.118391107E0,4.756081581E0,6.095038891E0,3.091512918E0
2.120384023E0,4.875791550E0,6.253056526E0,2.981379747E0
2.122376940E0,4.976946831E0,6.401496887E0,2.904765129E0
2.124369857E0,5.058349609E0,6.573879242E0,2.804208755E0
2.126362773E0,5.158905983E0,6.774992466E0,2.707842112E0
2.128355690E0,5.269039154E0,6.961740017E0,2.621650934E0
2.130348607E0,5.336077213E0,7.144298077E0,2.564189911E0
2.132341523E0,5.393537998E0,7.369352818E0,2.492363930E0
2.134334440E0,5.479729176E0,7.584830761E0,2.454056740E0
2.136327357E0,5.532401562E0,7.795520782E0,2.420537949E0
2.138320273E0,5.575497150E0,8.020575523E0,2.406172752E0
2.140313190E0,5.613804340E0,8.227075577E0,2.391807556E0
2.142306107E0,5.637746334E0,8.461707115E0,2.430114746E0
2.144299023E0,5.652111530E0,8.686761856E0,2.449268341E0
2.146291940E0,5.680841923E0,8.854356766E0,2.521094322E0
2.148284857E0,5.661688328E0,9.060257912E0,2.612074137E0
2.150277773E0,5.661688328E0,9.276334763E0,2.679111719E0
2.152270690E0,5.628169537E0,9.477447510E0,2.789843559E0
2.154263607E0,5.594650745E0,9.673771858E0,2.895188332E0
2.156256523E0,5.580285549E0,9.870096207E0,3.038840532E0
2.158249440E0,5.537189960E0,1.005684471E1,3.177704096E0
2.160242357E0,5.489305973E0,1.021007347E1,3.302202702E0
2.162235273E0,5.427056789E0,1.035372543E1,3.469796896E0
2.164228190E0,5.355230808E0,1.046924591E1,3.618237257E0
2.166221107E0,5.278616428E0,1.056501389E1,3.761889458E0
2.168214023E0,5.182847977E0,1.066078186E1,3.872022629E0
2.170206940E0,5.091868401E0,1.071345425E1,3.992331266E0
2.172199857E0,4.996100426E0,1.074218464E1,4.064157486E0
2.174192773E0,4.890156746E0,1.075176144E1,4.140771866E0
2.176185690E0,4.808753967E0,1.072303104E1,4.193444252E0
2.178178607E0,4.693832397E0,1.070387745E1,4.236539841E0
2.180171523E0,4.598064423E0,1.065120506E1,4.303577423E0
2.182164440E0,4.516661644E0,1.061289787E1,4.341884613E0
2.184157357E0,4.411316395E0,1.052670670E1,4.404133797E0
2.186150273E0,4.339490414E0,1.044530392E1,4.471171856E0
2.188143190E0,4.243722439E0,1.035851383E1,4.504690647E0
2.190136107E0,4.138377666E0,1.027711105E1,4.566939831E0
2.192129023E0,3.999513865E0,1.018134308E1,4.605247021E0
2.194121940E0,3.889380693E0,1.009515190E1,4.624400616E0
2.196114857E0,3.769072056E0,1.002332497E1,4.619612217E0
2.198107773E0,3.611054659E0,9.927556992E0,4.590881824E0
2.200100690E0,3.472191095E0,9.831789017E0,4.566939831E0
2.202093607E0,3.318962097E0,9.745597839E0,4.509479046E0
2.204086523E0,3.160944700E0,9.654618263E0,4.432864666E0
2.206079440E0,3.022081137E0,9.578003883E0,4.308365822E0
2.208072357E0,2.883217335E0,9.467870712E0,4.174290657E0
2.210065273E0,2.777872562E0,9.391256332E0,4.045003891E0
2.212058190E0,2.662352324E0,9.309853554E0,3.881599426E0
2.214051107E0,2.571372509E0,9.208698273E0,3.680486679E0
2.216044023E0,2.480392933E0,9.136872292E0,3.493738890E0
2.218036940E0,2.403778553E0,9.069834709E0,3.302202702E0
2.220029857E0,2.341529369E0,9.002797127E0,3.091512918E0
2.222022773E0,2.293645144E0,8.945336342E0,2.899976730E0
2.224015690E0,2.245761156E0,8.883087158E0,2.693476915E0
2.226008607E0,2.236184359E0,8.835203171E0,2.521094322E0
2.228001523E0,2.231395960E0,8.787319183E0,2.343923569E0
2.229994440E0,2.240972757E0,8.725070000E0,2.185906172E0
2.231987357E0,2.231395960E0,8.720281601E0,2.047042370E0
2.233980273E0,2.217030764E0,8.701127052E0,1.936909199E0
2.235973190E0,2.217030764E0,8.696338654E0,1.869871497E0
2.237966107E0,2.226607561E0,8.677185059E0,1.759738207E0
2.239959023E0,2.240972757E0,8.705916405E0,1.697489023E0
2.241951940E0,2.269703150E0,8.753800392E0,1.687912226E0
2.243944857E0,2.293645144E0,8.768165588E0,1.654393315E0
2.245937773E0,2.288856745E0,8.806472778E0,1.625064373E0
2.247930690E0,2.288856745E0,8.839991570E0,1.668758631E0
2.249923607E0,2.346317768E0,8.868721962E0,1.707065821E0
2.251916523E0,2.370259762E0,8.892663956E0,1.764526606E0
2.253909440E0,2.384624958E0,8.935759544E0,1.845929503E0
2.255902357E0,2.418143749E0,8.954913139E0,1.960851192E0
2.257895273E0,2.461239338E0,8.978855133E0,2.109291792E0
2.259888190E0,2.499546528E0,8.993220329E0,2.281674147E0
2.261881107E0,2.537853718E0,9.031527519E0,2.454056740E0
2.263874023E0,2.595314741E0,9.041104317E0,2.669534922E0
2.265866940E0,2.662352324E0,9.050681114E0,2.876034737E0
2.267859857E0,2.753930569E0,9.065046310E0,3.081936121E0
2.269852773E0,2.854486942E0,9.060257912E0,3.287837505E0
2.271845690E0,2.945466757E0,9.055469513E0,3.469796896E0
2.273838607E0,3.046023130E0,9.002797127E0,3.651756048E0
2.275831523E0,3.156156301E0,8.974066734E0,3.781043053E0
2.277824440E0,3.261501312E0,8.911817551E0,3.906140089E0
2.279817357E0,3.347692490E0,8.849568367E0,3.982754469E0
2.281810273E0,3.433883905E0,8.768165588E0,4.049792290E0
2.283803190E0,3.491344690E0,8.667608261E0,4.092887878E0
2.285796107E0,3.567959070E0,8.586205482E0,4.126406670E0
2.287789023E0,3.620631456E0,8.471283913E0,4.135983467E0
2.289781940E0,3.649361849E0,8.375515938E0,4.112041473E0
2.291774857E0,3.663727045E0,8.241440773E0,4.097676277E0
2.293767773E0,3.687669277E0,8.140884399E0,4.073734283E0
2.295760690E0,3.740341663E0,8.010998726E0,3.997119665E0
2.297753607E0,3.754706860E0,7.910442352E0,3.920505285E0
2.299746523E0,3.769072056E0,7.805097580E0,3.833715439E0
2.301739440E0,3.788225651E0,7.723694801E0,3.737947464E0
2.303732357E0,3.827131510E0,7.618350029E0,3.623025656E0
2.305725273E0,3.879803896E0,7.556100368E0,3.508104086E0
2.307718190E0,3.889380693E0,7.513004780E0,3.393182278E0
2.309711107E0,3.927687883E0,7.445967197E0,3.292625904E0
2.311704023E0,3.975571871E0,7.407660007E0,3.187281132E0
2.313696940E0,4.013879299E0,7.378929615E0,3.077147722E0
2.315689857E0,4.037821293E0,7.369352818E0,3.010110140E0
2.317682773E0,4.056974888E0,7.359776020E0,2.890399933E0
2.319675690E0,4.109647274E0,7.364564419E0,2.804208755E0
2.321668607E0,4.143166065E0,7.393294811E0,2.717418909E0
2.323661523E0,4.176684856E0,7.431602001E0,2.607285738E0
2.325654440E0,4.200626850E0,7.460332394E0,2.501940727E0
2.327647357E0,4.243722439E0,7.527369976E0,2.406172752E0
2.329640273E0,4.286818027E0,7.580042362E0,2.300827742E0
2.331633190E0,4.329913616E0,7.651868820E0,2.190694571E0
2.333626107E0,4.382586002E0,7.752425194E0,2.099714994E0
2.335619075E0,4.416105270E0,7.824251175E0,1.989581585E0
2.337612044E0,4.440047264E0,7.948749542E0,1.908178806E0
2.339605013E0,4.483142853E0,8.054094315E0,1.807622313E0
2.341597982E0,4.521450043E0,8.174403191E0,1.697489023E0
2.343590950E0,4.554968834E0,8.318055153E0,1.615487576E0
2.345583919E0,4.593276024E0,8.461707115E0,1.514931083E0
2.347576888E0,4.617218018E0,8.638877869E0,1.443105102E0
2.349569857E0,4.645948410E0,8.806472778E0,1.347337008E0
2.351562825E0,4.669890404E0,8.998008728E0,1.251568913E0
2.353555794E0,4.684255600E0,9.151237488E0,1.170166135E0
2.355548763E0,4.684255600E0,9.343372345E0,1.079186440E0
2.357541732E0,4.550180435E0,9.491812706E0,9.929951429E-1
2.359534700E0,4.339490414E0,9.592369080E0,1.002571940E0
2.361527669E0,4.430470467E0,9.831789017E0,9.259575009E-1
2.363520638E0,4.502296448E0,1.012388229E1,7.200561762E-1
2.365513607E0,4.535815239E0,1.034893703E1,5.428852439E-1
2.367506575E0,4.511873245E0,1.051234150E1,4.034229815E-1
2.369499544E0,4.545392036E0,1.069430065E1,2.837128937E-1
2.371492513E0,4.554968834E0,1.087147141E1,1.065419763E-1
2.373485482E0,4.598064423E0,1.101991177E1,-3.711012751E-2
2.375478450E0,4.607641220E0,1.114919853E1,-1.807622313E-1
2.377471419E0,4.622006416E0,1.126412010E1,-3.148375154E-1
2.379464388E0,4.650736809E0,1.137425327E1,-4.153940082E-1
2.381457357E0,4.660313606E0,1.143171501E1,-5.207388401E-1
2.383450325E0,4.669890404E0,1.152808094E1,-6.075286865E-1
2.385443294E0,4.669890404E0,1.159033012E1,-6.697779298E-1
2.387436263E0,4.665102005E0,1.167652130E1,-6.841431260E-1
2.389429232E0,4.717774391E0,1.172440529E1,-7.272387743E-1
2.391422200E0,4.689043999E0,1.179623222E1,-6.793547273E-1
2.393415169E0,4.693832397E0,1.184890461E1,-6.266822815E-1
2.395408086E0,4.626794815E0,1.191594219E1,-4.920084476E-1
2.397401002E0,4.569334030E0,1.197340298E1,-3.244143426E-1
2.399393919E0,4.516661644E0,1.204522896E1,-1.041477770E-1
2.401386836E0,4.454412460E0,1.207874775E1,9.696517140E-2
2.403379752E0,4.329913616E0,1.212184334E1,4.417302012E-1
2.405372669E0,4.243722439E0,1.213620853E1,7.823054194E-1
2.407365586E0,4.042609692E0,1.217930412E1,1.294664621E0
2.409358502E0,3.817554712E0,1.218888092E1,1.802833915E0
2.411351419E0,3.544017076E0,1.216493893E1,2.353500366E0
2.413344336E0,3.352480888E0,1.214099693E1,2.923918724E0
2.415337252E0,3.141791105E0,1.211226654E1,3.441066504E0
2.417330169E0,2.902370930E0,1.206438255E1,3.944447279E0
2.419323086E0,2.662352324E0,1.202128696E1,4.418499470E0
2.421316002E0,2.513911724E0,1.190157700E1,4.787206173E0
2.423308919E0,2.403778553E0,1.177229023E1,5.079897404E0
2.425301836E0,2.355894566E0,1.160948372E1,5.247491360E0
2.427294752E0,2.303221941E0,1.145086861E1,5.237914562E0
2.429287669E0,2.269703150E0,1.123538971E1,5.137358189E0
2.431280586E0,2.298433542E0,1.102470016E1,4.950012207E0
2.433273502E0,2.403778553E0,1.078049183E1,4.662707806E0
2.435266419E0,2.604891539E0,1.053628349E1,4.356249809E0
2.437259336E0,2.820968151E0,1.032499504E1,4.011485100E0
2.439252252E0,3.041234732E0,1.017655468E1,3.623025656E0
2.441245169E0,3.247136116E0,1.006163311E1,3.254318714E0
2.443238086E0,3.237559319E0,9.908403397E0,2.909553528E0
2.445231002E0,3.156156301E0,9.850942612E0,2.712630510E0
2.447223919E0,3.285443306E0,9.937133789E0,2.425326347E0
2.449216836E0,3.433883905E0,1.006642151E1,2.104503393E0
2.451209752E0,3.563170671E0,1.023401546E1,1.793257117E0
2.453202669E0,3.615843058E0,1.039263058E1,1.495777488E0
2.455195586E0,3.649361849E0,1.053628349E1,1.198896527E0
2.457188502E0,3.745130062E0,1.073739624E1,9.068039060E-1
2.459181419E0,3.913322687E0,1.089541340E1,5.859808922E-1
2.461174336E0,4.018667698E0,1.106300735E1,2.932897210E-1
2.463167252E0,4.076128483E0,1.122581291E1,-8.379706182E-3
2.465160169E0,4.167108059E0,1.139340687E1,-2.621650994E-1
2.467153086E0,4.109647274E0,1.158554173E1,-4.920084476E-1
2.469146002E0,4.114435673E0,1.174355888E1,-7.320271730E-1
2.471138919E0,4.004302502E0,1.189678860E1,-9.331400990E-1
2.473131836E0,3.970783472E0,1.203086376E1,-1.052850246E0
2.475124752E0,3.913322687E0,1.217930412E1,-1.186925530E0
2.477117669E0,3.855861902E0,1.231337929E1,-1.292270422E0
2.479110586E0,3.749918461E0,1.246660805E1,-1.297058821E0
2.481103502E0,3.654150248E0,1.261026001E1,-1.273116708E0
2.483096419E0,3.563170671E0,1.271620369E1,-1.210867524E0
2.485089336E0,3.534440279E0,1.284070206E1,-1.076792240E0
2.487082252E0,3.524863482E0,1.296520042E1,-9.283517003E-1
2.489075169E0,3.558382273E0,1.308491039E1,-7.799112201E-1
2.491068086E0,3.596689463E0,1.319504452E1,-5.829881430E-1
2.493061002E0,3.634996653E0,1.327165890E1,-3.627215624E-1
2.495053919E0,3.740341663E0,1.328602409E1,-9.935937077E-2
2.497046836E0,3.898957491E0,1.327644730E1,1.352723986E-1
2.499039752E0,4.085705280E0,1.319504452E1,3.699041605E-1
2.501032669E0,4.267664433E0,1.309927559E1,6.003460884E-1
2.503025586E0,4.521450043E0,1.303223801E1,8.397662640E-1
2.505018502E0,4.746504784E0,1.286943245E1,1.083974838E0
2.507011419E0,4.967370033E0,1.273056889E1,1.251568913E0
2.509004336E0,5.168482780E0,1.254322243E1,1.428739905E0
2.510997252E0,5.336077213E0,1.234210968E1,1.572391987E0
2.512990169E0,5.494094372E0,1.212663174E1,1.697489023E0
2.514983086E0,5.589862347E0,1.188242340E1,1.798045516E0
2.516976002E0,5.666476727E0,1.165257931E1,1.845929503E0
2.518968919E0,5.699995518E0,1.137425327E1,1.874659896E0
2.520961836E0,5.695207119E0,1.112046814E1,1.898601890E0
2.522954752E0,5.656899929E0,1.085231781E1,1.903390408E0
2.524947669E0,5.551555157E0,1.057937908E1,1.893813491E0
2.526940586E0,5.450998783E0,1.030105305E1,1.879448295E0
2.528933502E0,5.307346821E0,1.003290176E1,1.874659896E0
2.530926419E0,5.187636375E0,9.745597839E0,1.821987510E0
2.532919336E0,5.053561211E0,9.472659111E0,1.793257117E0
2.534912252E0,4.948216438E0,9.170391083E0,1.745373011E0
2.536905169E0,4.832695961E0,8.902240753E0,1.707065821E0
2.538898086E0,4.736927986E0,8.638877869E0,1.649604917E0
2.540891002E0,4.655525208E0,8.385092735E0,1.629852772E0
2.542883919E0,4.588487625E0,8.140884399E0,1.567603588E0
2.544876836E0,4.516661644E0,7.896077156E0,1.524507880E0
2.546869752E0,4.497508049E0,7.694964409E0,1.495777488E0
2.548862669E0,4.435258865E0,7.489062786E0,1.452681899E0
2.550855586E0,4.440047264E0,7.287950039E0,1.433528304E0
2.552848502E0,4.411316395E0,7.091625214E0,1.419163108E0
2.554841419E0,4.406527996E0,6.928221226E0,1.361702204E0
2.556834336E0,4.416105270E0,6.808511257E0,1.332971811E0
2.558827252E0,4.411316395E0,6.688800812E0,1.309029818E0
2.560820169E0,4.387374401E0,6.597821236E0,1.280299306E0
2.562813086E0,4.392162800E0,6.535572052E0,1.275510907E0
2.564806002E0,4.392162800E0,6.463746071E0,1.232415318E0
2.566798919E0,4.382586002E0,6.463746071E0,1.203684926E0
2.568791836E0,4.344278812E0,6.458957672E0,1.160589218E0
2.570784752E0,4.368220806E0,6.468534470E0,1.122282028E0
2.572777669E0,4.349067211E0,6.525995255E0,1.098340034E0
2.574770586E0,4.396951199E0,6.554725647E0,1.074398041E0
2.576763502E0,4.420893669E0,6.607398033E0,1.036090732E0
2.578756419E0,4.454412460E0,6.707954407E0,1.040879130E0
2.580749336E0,4.459200859E0,6.818088055E0,9.929951429E-1
2.582742252E0,4.468777657E0,6.942586422E0,9.546879530E-1
2.584735169E0,4.497508049E0,7.009624004E0,9.211691022E-1
2.586728086E0,4.521450043E0,7.120356083E0,8.541314602E-1
2.588721002E0,4.545392036E0,7.249642849E0,8.349778652E-1
2.590713919E0,4.569334030E0,7.364564419E0,7.631517649E-1
2.592706836E0,4.602852821E0,7.498639584E0,7.296329737E-1
2.594699752E0,4.578910828E0,7.623138428E0,6.769605279E-1
2.596692669E0,4.578910828E0,7.757213593E0,6.290764809E-1
2.598685586E0,4.574122429E0,7.872135162E0,5.764040351E-1
2.600678502E0,4.578910828E0,7.982268333E0,5.183446407E-1
2.602671419E0,4.607641220E0,8.111555099E0,4.944026470E-1
2.604664336E0,4.655525208E0,8.217498779E0,4.848258495E-1
2.606657252E0,4.703409195E0,8.346785545E0,4.417302012E-1
2.608650169E0,4.775235176E0,8.452130318E0,4.417302012E-1
2.610643086E0,4.875791550E0,8.538321495E0,4.560954273E-1
2.612636002E0,4.991312027E0,8.662819862E0,4.513070285E-1
2.614628919E0,5.082291603E0,8.763377190E0,4.704606235E-1
2.616621836E0,5.211578369E0,8.844779968E0,5.380968451E-1
2.618614752E0,5.326500416E0,8.930971146E0,5.955576897E-1
2.620607669E0,5.450998783E0,9.002797127E0,6.721721292E-1
2.622600586E0,5.580285549E0,9.050681114E0,7.631517649E-1
2.624593502E0,5.695207119E0,9.093776703E0,8.780734539E-1
2.626586419E0,5.800552368E0,9.127295494E0,1.016937137E0
2.628579336E0,5.896320343E0,9.141660690E0,1.194108129E0
2.630572252E0,6.025607109E0,9.156025887E0,1.366490602E0
2.632565169E0,6.088454723E0,9.141660690E0,1.524507880E0
2.634558086E0,6.150704384E0,9.132083893E0,1.726219416E0
2.636551002E0,6.193799973E0,9.108141899E0,1.941697598E0
2.638543919E0,6.193799973E0,9.098565102E0,2.147598982E0
2.640536836E0,6.179434776E0,9.098565102E0,2.343923569E0
2.642529752E0,6.059724331E0,9.088988304E0,2.549824715E0
2.644522669E0,5.886743546E0,9.074623108E0,2.688688517E0
2.646515586E0,5.676053524E0,9.127295494E0,2.804208755E0
2.648508502E0,5.446210384E0,9.112930298E0,2.842515945E0
2.650501419E0,5.197213173E0,9.122507095E0,2.847304344E0
2.652494336E0,5.000888824E0,9.127295494E0,2.808997154E0
2.654487252E0,4.784811974E0,9.127295494E0,2.731784105E0
2.656480169E0,4.607641220E0,9.122507095E0,2.640804529E0
2.658473086E0,4.454412460E0,9.127295494E0,2.535459518E0
2.660466002E0,4.344278812E0,9.117718697E0,2.415749550E0
2.662458919E0,4.248510838E0,9.079411507E0,2.310404539E0
2.664451836E0,4.147954464E0,9.079411507E0,2.200271368E0
2.666444752E0,4.080916882E0,9.079411507E0,2.118868589E0
2.668437669E0,4.018667698E0,9.055469513E0,2.008735180E0
2.670430586E0,3.965995073E0,9.031527519E0,1.941697598E0
2.672423555E0,3.908534288E0,9.026739120E0,1.903390408E0
2.674416523E0,3.846285105E0,9.026739120E0,1.845929503E0
2.676409492E0,3.783437252E0,9.012373924E0,1.817199111E0
2.678402461E0,3.721188068E0,9.012373924E0,1.817199111E0
2.680395430E0,3.639785051E0,9.002797127E0,1.836352706E0
2.682388398E0,3.591901064E0,8.983643532E0,1.802833915E0
2.684381367E0,3.524863482E0,8.983643532E0,1.826775908E0
2.686374336E0,3.429095268E0,8.959701538E0,1.836352706E0
2.688367305E0,3.376422882E0,8.964489937E0,1.831564307E0
2.690360273E0,3.295020103E0,8.950124741E0,1.812410712E0
2.692353242E0,3.218405724E0,8.950124741E0,1.764526606E0
2.694346211E0,3.165733099E0,8.930971146E0,1.721431017E0
2.696339180E0,3.069965124E0,8.907029152E0,1.668758631E0
2.698332148E0,2.859275341E0,8.863933563E0,1.620275974E0
2.700325117E0,2.811391354E0,8.859145164E0,1.644816518E0
2.702318086E0,2.840121746E0,8.887875557E0,1.500565886E0
2.704311055E0,2.873640537E0,8.916605949E0,1.318606615E0
2.706304023E0,2.873640537E0,8.911817551E0,1.131858826E0
2.708296992E0,2.849698544E0,8.916605949E0,9.259575009E-1
2.710289961E0,2.835333347E0,8.907029152E0,7.535749674E-1
2.712282930E0,2.835333347E0,8.921394348E0,5.428852439E-1
2.714275898E0,2.820968151E0,8.907029152E0,3.986345828E-1
2.716268867E0,2.849698544E0,8.921394348E0,2.501940727E-1
2.718261836E0,2.849698544E0,8.907029152E0,1.256955862E-1
2.720254805E0,2.820968151E0,8.911817551E0,4.429273307E-2
2.722247773E0,2.820968151E0,8.907029152E0,2.513911761E-2
2.724240742E0,2.792237759E0,8.911817551E0,2.035071515E-2
2.726233711E0,2.720411777E0,8.916605949E0,6.823474914E-2
2.728226680E0,2.633621931E0,8.935759544E0,1.400607973E-1
2.730219648E0,2.633621931E0,8.916605949E0,2.023100406E-1
2.732212565E0,2.643198729E0,8.921394348E0,3.076549172E-1
2.734205482E0,2.701258183E0,8.897452354E0,4.369418025E-1
2.736198398E0,2.777872562E0,8.878298759E0,5.524620414E-1
2.738191315E0,2.854486942E0,8.859145164E0,6.482301354E-1
2.740184232E0,2.983773947E0,8.820837975E0,7.918822169E-1
2.742177148E0,3.093907118E0,8.782530785E0,8.876502514E-1
2.744170065E0,3.227982521E0,8.729858398E0,9.929951429E-1
2.746162982E0,3.323750496E0,8.701127052E0,1.098340034E0
2.748155898E0,3.443460703E0,8.629301071E0,1.174954534E0
2.750148815E0,3.587112665E0,8.571840286E0,1.256357312E0
2.752141732E0,3.682880878E0,8.500014305E0,1.309029818E0
2.754134648E0,3.764283657E0,8.428188324E0,1.352125406E0
2.756127565E0,3.827131510E0,8.380304337E0,1.390432596E0
2.758120482E0,3.913322687E0,8.294113159E0,1.443105102E0
2.760113398E0,4.004302502E0,8.227075577E0,1.476623893E0
2.762106315E0,4.109647274E0,8.160037994E0,1.490989089E0
2.764099232E0,4.147954464E0,8.101978302E0,1.519719481E0
2.766092148E0,4.224568844E0,8.039729118E0,1.524507880E0
2.768085065E0,4.291606426E0,7.963114738E0,1.538873196E0
2.770077982E0,4.344278812E0,7.915230751E0,1.524507880E0
2.772070898E0,4.425682068E0,7.862558365E0,1.495777488E0
2.774063815E0,4.459200859E0,7.809885979E0,1.462258697E0
2.776056732E0,4.550180435E0,7.766790390E0,1.352125406E0
2.778049648E0,4.564545631E0,7.718906403E0,1.232415318E0
2.780042565E0,4.626794815E0,7.694964409E0,1.093551636E0
2.782035482E0,4.674678802E0,7.666234016E0,9.546879530E-1
2.784028398E0,4.693832397E0,7.623138428E0,8.158242106E-1
2.786021315E0,4.722562790E0,7.613561630E0,7.056909800E-1
2.788014232E0,4.722562790E0,7.594407558E0,5.907692909E-1
2.790007148E0,4.751293182E0,7.575253963E0,4.944026470E-1
2.792000065E0,4.760869980E0,7.575253963E0,4.034229815E-1
2.793992982E0,4.741716385E0,7.580042362E0,3.172317147E-1
2.795985898E0,4.736927986E0,7.589619160E0,2.789244950E-1
2.797975169E0,4.736927986E0,7.613561630E0,2.932897210E-1
2.799964440E0,4.732139587E0,7.637503624E0,2.932897210E-1
2.801954127E0,4.732139587E0,7.647080421E0,3.507505357E-1
2.803944336E0,4.794388771E0,7.647080421E0,4.129997790E-1
2.805935169E0,4.847061157E0,7.623138428E0,4.896142483E-1
2.807926680E0,4.914099216E0,7.603984833E0,5.237316489E-1
2.809918919E0,4.948216438E0,7.608773232E0,5.476736426E-1
2.811911888E0,4.967370033E0,7.599195957E0,5.285200477E-1
2.813905534E0,4.996100426E0,7.594407558E0,5.135562420E-1
2.815899805E0,4.953004837E0,7.565677166E0,4.417302012E-1
2.817894648E0,4.957793236E0,7.565677166E0,3.746925592E-1
2.819889961E0,4.924274445E0,7.551311970E0,3.124433160E-1
2.821885586E0,4.904522419E0,7.546523571E0,2.789244950E-1
2.823881419E0,4.861426353E0,7.503427982E0,2.597708702E-1
2.825877357E0,4.827907562E0,7.474697590E0,2.932897210E-1
2.827872982E0,4.827907562E0,7.436390400E0,3.363853395E-1
2.829865950E0,4.847061157E0,7.388506413E0,4.273650050E-1
2.831858867E0,4.866214752E0,7.359776020E0,5.428852439E-1
2.833851784E0,4.871003151E0,7.292738438E0,6.961141229E-1
2.835844700E0,4.861426353E0,7.283161640E0,8.301894665E-1
2.837837617E0,4.823119164E0,7.292738438E0,9.929951429E-1
2.839830534E0,4.775235176E0,7.302315235E0,1.165377736E0
2.841823450E0,4.712985992E0,7.331045628E0,1.328183413E0
2.843816367E0,4.655525208E0,7.345410824E0,1.519719481E0
2.845809284E0,4.564545631E0,7.412448406E0,1.721431017E0
2.847802200E0,4.473566055E0,7.460332394E0,1.932120800E0
2.849795117E0,4.387374401E0,7.527369976E0,2.099714994E0
2.851788034E0,4.291606426E0,7.580042362E0,2.310404539E0
2.853780950E0,4.200626850E0,7.661445618E0,2.501940727E0
2.855773867E0,4.109647274E0,7.709329605E0,2.650381327E0
2.857766784E0,4.056974888E0,7.805097580E0,2.818573952E0
2.859759700E0,3.980360270E0,7.872135162E0,2.962226152E0
2.861752617E0,3.937264681E0,7.920019150E0,3.110666513E0
2.863745534E0,3.870227098E0,7.963114738E0,3.206434727E0
2.865738450E0,3.841496706E0,7.996633530E0,3.278260708E0
2.867731367E0,3.831919909E0,8.030152321E0,3.326144695E0
2.869724284E0,3.803189516E0,8.034940720E0,3.311779499E0
2.871717200E0,3.797802448E0,8.030152321E0,3.283049107E0
2.873710117E0,3.773860455E0,8.049305916E0,3.168127298E0
2.875703034E0,3.730764866E0,8.020575523E0,3.062782526E0
2.877695950E0,3.697246075E0,8.010998726E0,2.909553528E0
2.879688867E0,3.663727045E0,7.991845131E0,2.717418909E0
2.881681784E0,3.611054659E0,8.006210327E0,2.497152328E0
2.883674700E0,3.567959070E0,7.987056732E0,2.296039343E0
2.885667617E0,3.529651880E0,7.939172745E0,2.056619167E0
2.887660534E0,3.467402697E0,7.915230751E0,1.821987510E0
2.889653450E0,3.419518471E0,7.896077156E0,1.577180386E0
2.891646367E0,3.347692490E0,7.862558365E0,1.313818216E0
2.893639284E0,3.290231705E0,7.800309181E0,1.064821243E0
2.895632200E0,3.251924515E0,7.776367188E0,8.110358119E-1
2.897625117E0,3.189675331E0,7.723694801E0,5.572504401E-1
2.899618034E0,3.160944700E0,7.680599213E0,3.459621370E-1
2.901610950E0,3.122637510E0,7.651868820E0,1.448491961E-1
2.903603867E0,3.103483915E0,7.603984833E0,2.035071515E-2
2.905596784E0,3.084330320E0,7.575253963E0,-1.185129806E-1
2.907589700E0,3.060388327E0,7.536946774E0,-1.951274425E-1
2.909582617E0,3.046023130E0,7.527369976E0,-2.765302956E-1
2.911575534E0,3.046023130E0,7.508216381E0,-2.573766708E-1
2.913568450E0,3.060388327E0,7.493851185E0,-2.717418969E-1
2.915561367E0,3.065176725E0,7.479485989E0,-2.047042400E-1
2.917554284E0,3.079541922E0,7.474697590E0,-1.185129806E-1
2.919547200E0,3.074753523E0,7.460332394E0,-1.316810958E-2
2.921540117E0,3.098695517E0,7.455543995E0,1.209071875E-1
2.923533034E0,3.113060713E0,7.484274387E0,2.645592988E-1
2.925525950E0,3.103483915E0,7.479485989E0,4.129997790E-1
2.927518867E0,3.103483915E0,7.484274387E0,5.764040351E-1
2.929511784E0,3.098695517E0,7.522581577E0,7.439981699E-1
2.931504700E0,3.103483915E0,7.527369976E0,9.163807034E-1
2.933497617E0,3.108272314E0,7.556100368E0,1.117493629E0
2.935490534E0,3.132214308E0,7.584830761E0,1.309029818E0
2.937483450E0,3.122637510E0,7.613561630E0,1.514931083E0
2.939476367E0,3.137002707E0,7.666234016E0,1.707065821E0
2.941469284E0,3.141791105E0,7.704541206E0,1.917755604E0
2.943462200E0,3.160944700E0,7.762001991E0,2.094926596E0
2.945455117E0,3.213617325E0,7.795520782E0,2.272097349E0
2.947448034E0,3.247136116E0,7.838616371E0,2.434903145E0
2.949440950E0,3.304596901E0,7.886500359E0,2.588132143E0
2.951433867E0,3.400364876E0,7.910442352E0,2.750937700E0
2.953426784E0,3.505709887E0,7.934384346E0,2.904765129E0
2.955419700E0,3.630208254E0,7.939172745E0,2.995744944E0
2.957412617E0,3.778648853E0,7.967903137E0,3.120243311E0
2.959405534E0,3.946841478E0,7.987056732E0,3.216011524E0
2.961398450E0,4.066551685E0,7.987056732E0,3.263895512E0
2.963391367E0,4.238934040E0,7.987056732E0,3.278260708E0
2.965384284E0,4.401739597E0,8.001421928E0,3.230376720E0
2.967377200E0,4.502296448E0,7.982268333E0,3.172915697E0
2.969370117E0,4.631583214E0,7.987056732E0,3.096301317E0
2.971363034E0,4.708197594E0,7.982268333E0,3.010110140E0
2.973355950E0,4.756081581E0,7.963114738E0,2.904765129E0
2.975348867E0,4.789600372E0,7.953537941E0,2.770689964E0
2.977341784E0,4.799177170E0,7.929595947E0,2.612074137E0
2.979334700E0,4.803965569E0,7.900865555E0,2.425326347E0
2.981327617E0,4.789600372E0,7.876923561E0,2.209848166E0
2.983320534E0,4.751293182E0,7.848193169E0,2.047042370E0
2.985313450E0,4.712985992E0,7.814674377E0,1.884236693E0
2.987306367E0,4.650736809E0,7.790732384E0,1.740584612E0
2.989299284E0,4.578910828E0,7.742848396E0,1.605910778E0
2.991292200E0,4.531026840E0,7.685387611E0,1.481412292E0
2.993285117E0,4.425682068E0,7.632715225E0,1.380855799E0
2.995278034E0,4.363432407E0,7.584830761E0,1.285087705E0
2.997270950E0,4.296394825E0,7.517793179E0,1.222838521E0
2.999263867E0,4.234145641E0,7.484274387E0,1.127070427E0
3.001256784E0,4.167108059E0,7.393294811E0,1.079186440E0
3.003249700E0,4.104858875E0,7.321468830E0,1.083974838E0
3.005242617E0,4.033032894E0,7.259219646E0,1.069609642E0
3.007235534E0,3.999513865E0,7.182605267E0,1.088763237E0
3.009228450E0,3.961206675E0,7.115567684E0,1.174954534E0
3.011221367E0,3.946841478E0,7.034164429E0,1.275510907E0
3.013214284E0,3.961206675E0,6.952163219E0,1.395220995E0
3.015207200E0,3.985148668E0,6.894702435E0,1.529296279E0
3.017200117E0,4.042609692E0,6.861183643E0,1.716642618E0
3.019193034E0,4.119224072E0,6.842030048E0,1.860294700E0
3.021185950E0,4.234145641E0,6.808511257E0,2.032677174E0
3.023178867E0,4.339490414E0,6.813299656E0,2.190694571E0
3.025171784E0,4.468777657E0,6.808511257E0,2.348711967E0
3.027164700E0,4.598064423E0,6.832453251E0,2.454056740E0
3.029157617E0,4.722562790E0,6.846818447E0,2.564189911E0
3.031150534E0,4.827907562E0,6.894702435E0,2.621650934E0
3.033143450E0,4.914099216E0,6.933009624E0,2.664746523E0
3.035136367E0,5.010465622E0,6.990470409E0,2.631227732E0
3.037129284E0,5.048772812E0,7.019799232E0,2.602497339E0
3.039122200E0,5.067926407E0,7.082048416E0,2.506729126E0
3.041115117E0,5.015254021E0,7.163451672E0,2.334346771E0
3.043108034E0,4.986523628E0,7.244854450E0,2.157175779E0
3.045100950E0,4.914099216E0,7.307103634E0,1.932120800E0
3.047093867E0,4.847061157E0,7.388506413E0,1.678335428E0
3.049086784E0,4.780023575E0,7.460332394E0,1.467047095E0
3.051079700E0,4.698620796E0,7.513004780E0,1.246780515E0
3.053072617E0,4.636371613E0,7.551311970E0,1.012148738E0
3.055065534E0,4.535815239E0,7.627926826E0,8.493430614E-1
3.057058450E0,4.440047264E0,7.723694801E0,6.817489266E-1
3.059051367E0,4.396951199E0,7.766790390E0,5.668272376E-1
3.061044284E0,4.368220806E0,7.814674377E0,4.752490520E-1
3.063037200E0,4.301183224E0,7.867346764E0,4.321534038E-1
3.065030117E0,4.248510838E0,7.924807549E0,4.321534038E-1
3.067023034E0,4.219780445E0,7.924807549E0,4.608838260E-1
3.069015950E0,4.181473255E0,7.972691536E0,5.572504401E-1
3.071008867E0,4.181473255E0,7.972691536E0,6.482301354E-1
3.073001784E0,4.147954464E0,7.982268333E0,7.535749674E-1
3.074994700E0,4.152742863E0,7.982268333E0,8.637082577E-1
3.076987617E0,4.157531261E0,7.987056732E0,1.031302333E0
3.078980534E0,4.176684856E0,7.963114738E0,1.179742932E0
3.080973450E0,4.171896458E0,7.953537941E0,1.356913805E0
3.082966367E0,4.147954464E0,7.982268333E0,1.529296279E0
3.084959284E0,4.133589268E0,7.982268333E0,1.750161409E0
3.086952200E0,4.128800869E0,7.996633530E0,1.965639591E0
3.088945117E0,4.100070477E0,8.044517517E0,2.209848166E0
3.090938034E0,4.013879299E0,8.106766701E0,2.468421936E0
3.092930950E0,3.942053080E0,8.164826393E0,2.674323320E0
3.094923867E0,3.831919909E0,8.193556786E0,2.876034737E0
3.096916784E0,3.764283657E0,8.279747963E0,3.067570925E0
3.098909700E0,3.711611271E0,8.332420349E0,3.235165119E0
3.100902617E0,3.673303843E0,8.380304337E0,3.369240284E0
3.102895534E0,3.601477861E0,8.428188324E0,3.474585295E0
3.104888450E0,3.548805475E0,8.504802704E0,3.517680883E0
3.106881419E0,3.491344690E0,8.547898293E0,3.551199675E0
3.108874388E0,3.481767893E0,8.567051888E0,3.508104086E0
3.110867357E0,3.520075083E0,8.614935875E0,3.465008497E0
3.112860325E0,3.510498285E0,8.662819862E0,3.378817081E0
3.114853294E0,3.544017076E0,8.686761856E0,3.287837505E0
3.116846263E0,3.567959070E0,8.686761856E0,3.158550501E0
3.118839232E0,3.563170671E0,8.672396660E0,2.990956545E0
3.120832200E0,3.611054659E0,8.667608261E0,2.760514498E0
3.122825169E0,3.658938646E0,8.681973457E0,2.564189911E0
3.124818138E0,3.702034473E0,8.696338654E0,2.329558372E0
3.126811107E0,3.749918461E0,8.701127052E0,2.118868589E0
3.128804075E0,3.773860455E0,8.691550255E0,1.898601890E0
3.130797044E0,3.749918461E0,8.672396660E0,1.707065821E0
3.132790013E0,3.773860455E0,8.691550255E0,1.538873196E0
3.134782982E0,3.745130062E0,8.691550255E0,1.419163108E0
3.136775950E0,3.702034473E0,8.696338654E0,1.313818216E0
3.138768919E0,3.639785051E0,8.696338654E0,1.270722508E0
3.140761888E0,3.567959070E0,8.672396660E0,1.222838521E0
3.142754857E0,3.438672304E0,8.653243065E0,1.218050122E0
3.144747825E0,3.366846085E0,8.653243065E0,1.241992116E0
3.146740794E0,3.208828926E0,8.638877869E0,1.294664621E0
3.148733763E0,2.998139143E0,8.638877869E0,1.376067400E0
3.150726732E0,2.883217335E0,8.658031464E0,1.452681899E0
3.152719700E0,2.753930569E0,8.681973457E0,1.601122379E0
3.154712669E0,2.652775526E0,8.701127052E0,1.745373011E0
3.156705638E0,2.566584110E0,8.696338654E0,1.879448295E0
3.158698607E0,2.552218914E0,8.725070000E0,2.013523579E0
3.160691575E0,2.523488522E0,8.725070000E0,2.161964178E0
3.162684544E0,2.470816135E0,8.734646797E0,2.305616140E0
3.164677513E0,2.461239338E0,8.772953987E0,2.454056740E0
3.166670430E0,2.528276920E0,8.787319183E0,2.602497339E0
3.168663346E0,2.595314741E0,8.844779968E0,2.746149302E0
3.170656263E0,2.706046581E0,8.854356766E0,2.871246338E0
3.172649180E0,2.854486942E0,8.883087158E0,2.995744944E0
3.174642096E0,3.017292738E0,8.887875557E0,3.105878115E0
3.176635013E0,3.146579504E0,8.897452354E0,3.172915697E0
3.178627930E0,3.395576477E0,8.945336342E0,3.239953518E0
3.180620846E0,3.634996653E0,8.988431931E0,3.316567898E0
3.182613763E0,3.855861902E0,9.045892715E0,3.374028683E0
3.184606680E0,4.104858875E0,9.088988304E0,3.450643301E0
3.186599596E0,4.339490414E0,9.132083893E0,3.488950491E0
3.188592513E0,4.578910828E0,9.203909874E0,3.512892485E0
3.190585430E0,4.689043999E0,9.266757965E0,3.522469282E0
3.192578346E0,4.929062843E0,9.396044731E0,3.493738890E0
3.194571263E0,5.130175591E0,9.525331497E0,3.498527288E0
3.196564180E0,5.288193226E0,9.649829865E0,3.465008497E0
3.198557096E0,5.431845188E0,9.769539833E0,3.426701069E0
3.200550013E0,5.546766758E0,9.889249802E0,3.369240284E0
3.202542930E0,5.676053524E0,1.002332497E1,3.273472309E0
3.204535846E0,5.752667904E0,1.013345909E1,3.158550501E0
3.206528763E0,5.853224754E0,1.021486187E1,3.043628931E0
3.208521680E0,5.915473938E0,1.031541824E1,2.880823135E0
3.210514596E0,5.963357925E0,1.037766743E1,2.731784105E0
3.212507513E0,6.025607109E0,1.043093872E1,2.525882721E0
3.214500430E0,6.050147533E0,1.047403431E1,2.310404539E0
3.216493346E0,6.184223175E0,1.054586029E1,2.147598982E0
3.218486263E0,6.308721542E0,1.061289787E1,1.965639591E0
3.220479180E0,6.361393929E0,1.065120506E1,1.855506301E0
3.222472096E0,6.452373505E0,1.065599346E1,1.802833915E0
3.224465013E0,6.543353081E0,1.067993546E1,1.735796213E0
3.226457930E0,6.629544735E0,1.067514706E1,1.745373011E0
3.228450846E0,6.648698330E0,1.063683987E1,1.740584612E0
3.230443763E0,6.763619900E0,1.063683987E1,1.831564307E0
3.232436680E0,6.926425457E0,1.062726307E1,1.889025092E0
3.234429596E0,7.017405033E0,1.060332108E1,1.984793186E0
3.236422513E0,7.108384609E0,1.055543709E1,2.037465572E0
3.238415430E0,7.180809498E0,1.052191830E1,2.075772762E0
3.240408346E0,7.223905087E0,1.045966911E1,2.099714994E0
3.242401263E0,7.257423878E0,1.038784218E1,2.070984364E0
3.244394180E0,7.257423878E0,1.032020664E1,2.042253971E0
3.246387096E0,7.233481884E0,1.025316906E1,2.023100376E0
3.248380013E0,7.195174694E0,1.019091988E1,1.989581585E0
3.250372930E0,7.141903877E0,1.009994030E1,1.999158382E0
3.252365846E0,7.070077419E0,1.004247856E1,2.061407566E0
3.254358763E0,7.065289021E0,9.961075783E0,2.157175779E0
3.256351680E0,7.017405033E0,9.879673004E0,2.286462545E0
3.258344596E0,6.955155849E0,9.817423820E0,2.430114746E0
3.260337513E0,6.931213856E0,9.783905029E0,2.588132143E0
3.262330430E0,6.921637058E0,9.745597839E0,2.785055161E0
3.264323346E0,6.916848660E0,9.721655846E0,2.971802950E0
3.266316263E0,6.883329868E0,9.759963036E0,3.148973703E0
3.268309180E0,6.878541470E0,9.783905029E0,3.330933094E0
3.270302096E0,6.864176273E0,9.860519409E0,3.474585295E0
3.272295013E0,6.825869083E0,9.941922188E0,3.632602453E0
3.274287930E0,6.744466305E0,1.001374817E1,3.718793869E0
3.276280846E0,6.687005520E0,1.009515190E1,3.757101059E0
3.278273763E0,6.749254704E0,1.021486187E1,3.843292236E0
3.280266680E0,6.763619900E0,1.032499504E1,3.881599426E0
3.282259596E0,6.797138691E0,1.036809063E1,3.848080635E0
3.284252513E0,6.811503887E0,1.041178417E1,3.804985046E0
3.286245430E0,6.797138691E0,1.042615032E1,3.690063477E0
3.288238346E0,6.667851925E0,1.037287903E1,3.469796896E0
3.290231263E0,6.663063526E0,1.036330223E1,3.263895512E0
3.292224180E0,6.682217121E0,1.032499504E1,3.062782526E0
3.294217096E0,6.634333134E0,1.028189945E1,2.813785553E0
3.296210013E0,6.572083473E0,1.018613148E1,2.568978310E0
3.298202930E0,6.466738701E0,1.007599831E1,2.324769735E0
3.300195846E0,6.337451935E0,9.975440979E0,2.070984364E0
3.302188763E0,6.212953568E0,9.841365814E0,1.865083098E0
3.304181680E0,6.054935932E0,9.707290649E0,1.668758631E0
3.306174596E0,5.886743546E0,9.606734276E0,1.519719481E0
3.308167513E0,5.714360714E0,9.491812706E0,1.400009394E0
3.310160430E0,5.518036366E0,9.381679535E0,1.285087705E0
3.312153346E0,5.307346821E0,9.271546364E0,1.189319730E0
3.314146263E0,5.120598793E0,9.184756279E0,1.088763237E0
3.316139180E0,4.933851242E0,9.093776703E0,1.016937137E0
3.318132096E0,4.760869980E0,9.026739120E0,9.546879530E-1
3.320125013E0,4.578910828E0,8.978855133E0,8.924387097E-1
3.322117930E0,4.416105270E0,8.945336342E0,8.397662640E-1
3.324110846E0,4.262876034E0,8.926182747E0,8.158242106E-1
3.326103763E0,4.124012470E0,8.945336342E0,8.206126094E-1
3.328096680E0,4.018667698E0,8.983643532E0,8.541314602E-1
3.330089596E0,3.884592295E0,9.031527519E0,9.355342984E-1
3.332082513E0,3.803189516E0,9.103353500E0,1.002571940E0
3.334075430E0,3.730764866E0,9.227851868E0,1.107916832E0
3.336068346E0,3.658938646E0,9.357737541E0,1.208473325E0
3.338061263E0,3.572747469E0,9.487024307E0,1.323395014E0
3.340054180E0,3.534440279E0,9.625887871E0,1.447893500E0
3.342047096E0,3.505709887E0,9.779116631E0,1.605910778E0
3.344040013E0,3.481767893E0,9.937133789E0,1.735796213E0
3.346032930E0,3.500921488E0,1.014303589E1,1.865083098E0
3.348025846E0,3.491344690E0,1.031541824E1,2.013523579E0
3.350018763E0,3.515286684E0,1.050755310E1,2.176329374E0
3.352011680E0,3.539228678E0,1.069430065E1,2.358288765E0
3.354004596E0,3.587112665E0,1.086668301E1,2.540247917E0
3.355997513E0,3.630208254E0,1.105343056E1,2.707842112E0
3.357990430E0,3.663727045E0,1.121144772E1,2.895188332E0
3.359983346E0,3.663727045E0,1.136467648E1,3.053205729E0
3.361976263E0,3.721188068E0,1.149396420E1,3.211223125E0
3.363969180E0,3.764283657E0,1.167173290E1,3.417124271E0
3.365962096E0,3.827131510E0,1.181538582E1,3.613448858E0
3.367955013E0,3.879803896E0,1.193988419E1,3.819350243E0
3.369947930E0,3.932476282E0,1.207395935E1,4.045003891E0
3.371940846E0,3.970783472E0,1.217451572E1,4.274847031E0
3.373933763E0,3.994725466E0,1.227507210E1,4.475960255E0
3.375926680E0,4.052186489E0,1.234689808E1,4.672284603E0
3.377919596E0,4.071340084E0,1.240435886E1,4.859032154E0
3.379912513E0,4.076128483E0,1.243308926E1,5.007472992E0
3.381905430E0,4.090493679E0,1.247618484E1,5.118204594E0
3.383898346E0,4.076128483E0,1.247139645E1,5.190030575E0
3.385891263E0,4.033032894E0,1.245703125E1,5.233126163E0
3.387884180E0,3.965995073E0,1.240435886E1,5.194818974E0
3.389877096E0,3.884592295E0,1.233732128E1,5.185242176E0
3.391870013E0,3.812766314E0,1.225113010E1,5.137358189E0
3.393862930E0,3.749918461E0,1.214099693E1,5.070320606E0
3.395855846E0,3.658938646E0,1.202607536E1,4.950012207E0
3.397848763E0,3.558382273E0,1.191115379E1,4.782417774E0
3.399841680E0,3.429095268E0,1.175792408E1,4.610035419E0
3.401834596E0,3.295020103E0,1.159990692E1,4.437653065E0
3.403827513E0,3.160944700E0,1.142692661E1,4.246116638E0
3.405820430E0,3.060388327E0,1.124017811E1,4.078522682E0
3.407813346E0,2.950255156E0,1.106779575E1,3.944447279E0
3.409806263E0,2.792237759E0,1.087147141E1,3.771466255E0
3.411799180E0,2.701258183E0,1.068472385E1,3.656544447E0
3.413792096E0,2.595314741E0,1.050755310E1,3.498527288E0
3.415785013E0,2.528276920E0,1.030584145E1,3.393182278E0
3.417777930E0,2.418143749E0,1.013345909E1,3.273472309E0
3.419770846E0,2.312798738E0,9.941922188E0,3.177704096E0
3.421763763E0,2.240972757E0,9.750386238E0,3.067570925E0
3.423756680E0,2.188300371E0,9.592369080E0,2.933495522E0
3.425749596E0,2.111685991E0,9.381679535E0,2.823362350E0
3.427742513E0,2.025494576E0,9.208698273E0,2.703053713E0
3.429735482E0,1.953668594E0,9.041104317E0,2.588132143E0
3.431728450E0,1.905784607E0,8.859145164E0,2.521094322E0
3.433721419E0,1.905784607E0,8.691550255E0,2.425326347E0
3.435714388E0,1.848323703E0,8.543109894E0,2.377442360E0
3.437707357E0,1.819593310E0,8.370727539E0,2.305616140E0
3.439700325E0,1.810016513E0,8.231863976E0,2.286462545E0
3.441693294E0,1.843535304E0,8.082824707E0,2.272097349E0
3.443686263E0,1.881842494E0,7.958326340E0,2.262520552E0
3.445679232E0,1.924938202E0,7.795520782E0,2.243366957E0
3.447672200E0,1.977610588E0,7.637503624E0,2.272097349E0
3.449665169E0,2.087743998E0,7.536946774E0,2.267308950E0
3.451658138E0,2.169146776E0,7.450755596E0,2.315192938E0
3.453651107E0,2.240972757E0,7.311892033E0,2.329558372E0
3.455644075E0,2.355894566E0,7.206547260E0,2.339135170E0
3.457637044E0,2.451662540E0,7.129932880E0,2.382230759E0
3.459630013E0,2.561795712E0,7.053318024E0,2.434903145E0
3.461622982E0,2.671929121E0,7.009624004E0,2.497152328E0
3.463615950E0,2.792237759E0,6.947374821E0,2.535459518E0
3.465608919E0,2.907159328E0,6.909067631E0,2.592920542E0
3.467601888E0,3.069965124E0,6.928221226E0,2.683900118E0
3.469594857E0,3.208828926E0,6.928221226E0,2.794631958E0
3.471587825E0,3.338115692E0,6.918644428E0,2.904765129E0
3.473580794E0,3.462614298E0,6.956951618E0,3.019686937E0
3.475573763E0,3.615843058E0,6.985682011E0,3.187281132E0
3.477566732E0,3.730764866E0,7.000047207E0,3.359663486E0
3.479559700E0,3.870227098E0,7.053318024E0,3.479373693E0
3.481552669E0,4.009090900E0,7.139509678E0,3.670909643E0
3.483545638E0,4.124012470E0,7.196970463E0,3.838503838E0
3.485538607E0,4.224568844E0,7.235277653E0,4.001908302E0
3.487531575E0,4.349067211E0,7.331045628E0,4.150348663E0
3.489524492E0,4.444835663E0,7.398083210E0,4.322731018E0
3.491517409E0,4.511873245E0,7.431602001E0,4.437653065E0
3.493510325E0,4.574122429E0,7.489062786E0,4.552574635E0
3.495503242E0,4.645948410E0,7.560888767E0,4.691438198E0
3.497496159E0,4.655525208E0,7.594407558E0,4.748898983E0
3.499489075E0,4.703409195E0,7.647080421E0,4.839878559E0
3.501481992E0,4.717774391E0,7.685387611E0,4.916493416E0
3.503474909E0,4.722562790E0,7.723694801E0,4.945223808E0
3.505467825E0,4.712985992E0,7.747636795E0,4.945223808E0
3.507460742E0,4.703409195E0,7.795520782E0,5.022436619E0
3.509453659E0,4.679467201E0,7.824251175E0,5.055955410E0
3.511446575E0,4.622006416E0,7.829039574E0,5.041590214E0
3.513439492E0,4.578910828E0,7.833827972E0,5.007472992E0
3.515432409E0,4.531026840E0,7.805097580E0,4.978742599E0
3.517425325E0,4.463989258E0,7.795520782E0,4.950012207E0
3.519418242E0,4.396951199E0,7.781155586E0,4.878185749E0
3.521411159E0,4.325125217E0,7.757213593E0,4.820724964E0
3.523404075E0,4.248510838E0,7.714118004E0,4.724956989E0
3.525396992E0,4.195838451E0,7.656657219E0,4.610035419E0
3.527389909E0,4.124012470E0,7.618350029E0,4.533421040E0
3.529382825E0,4.061763287E0,7.570465565E0,4.461595058E0
3.531375742E0,4.042609692E0,7.503427982E0,4.365826607E0
3.533368659E0,3.980360270E0,7.450755596E0,4.260481834E0
3.535361575E0,3.942053080E0,7.378929615E0,4.183867455E0
3.537354492E0,3.898957491E0,7.297526836E0,4.092887878E0
3.539347409E0,3.879803896E0,7.235277653E0,3.997119665E0
3.541340325E0,3.860650301E0,7.149086475E0,3.930082083E0
3.543333242E0,3.846285105E0,7.062894821E0,3.852869034E0
3.545326159E0,3.831919909E0,6.976105213E0,3.790619850E0
3.547319075E0,3.803189516E0,6.880337238E0,3.737947464E0
3.549311992E0,3.797802448E0,6.784569263E0,3.709217072E0
3.551304909E0,3.769072056E0,6.693589211E0,3.666121244E0
3.553297825E0,3.788225651E0,6.612186432E0,3.642179251E0
3.555290742E0,3.769072056E0,6.521206856E0,3.608660460E0
3.557283659E0,3.745130062E0,6.425438881E0,3.589506865E0
3.559276575E0,3.702034473E0,6.320094109E0,3.551199675E0
3.561269492E0,3.682880878E0,6.238690853E0,3.532046080E0
3.563262409E0,3.658938646E0,6.152499676E0,3.503315687E0
3.565255325E0,3.620631456E0,6.056731701E0,3.493738890E0
3.567248242E0,3.553593874E0,5.975328922E0,3.479373693E0
3.569241159E0,3.520075083E0,5.893926144E0,3.436278105E0
3.571234075E0,3.453037500E0,5.835866451E0,3.431489468E0
3.573226992E0,3.371634483E0,5.749675274E0,3.383605480E0
3.575219909E0,3.323750496E0,5.697002888E0,3.359663486E0
3.577212825E0,3.247136116E0,5.629965305E0,3.321356297E0
3.579205742E0,3.184886694E0,5.572504520E0,3.302202702E0
3.581198659E0,3.108272314E0,5.529408932E0,3.249530315E0
3.583191575E0,3.041234732E0,5.481524944E0,3.177704096E0
3.585184492E0,2.969408751E0,5.457582951E0,3.153762102E0
3.587177409E0,2.940678120E0,5.457582951E0,3.110666513E0
3.589170325E0,2.854486942E0,5.424064159E0,3.048417330E0
3.591163242E0,2.763507366E0,5.404910564E0,2.995744944E0
3.593156159E0,2.652775526E0,5.409698963E0,2.967014551E0
3.595149075E0,2.561795712E0,5.424064159E0,2.923918724E0
3.597141992E0,2.456450939E0,5.438429356E0,2.885611534E0
3.599134909E0,2.375048161E0,5.481524944E0,2.866457939E0
3.601127825E0,2.284068346E0,5.519832134E0,2.842515945E0
3.603120742E0,2.217030764E0,5.572504520E0,2.832939148E0
3.605113659E0,2.159569979E0,5.639542103E0,2.823362350E0
3.607106575E0,2.078166962E0,5.677849293E0,2.852092743E0
3.609099492E0,2.020706177E0,5.754463673E0,2.852092743E0
3.611092409E0,1.972822189E0,5.826289654E0,2.904765129E0
3.613085325E0,1.944091797E0,5.878962040E0,2.933495522E0
3.615078242E0,1.877054095E0,5.975328922E0,2.990956545E0
3.617071159E0,1.853112102E0,6.051943302E0,3.034052134E0
3.619064075E0,1.872265697E0,6.118980885E0,3.120243311E0
3.621056992E0,1.891419291E0,6.229114056E0,3.172915697E0
3.623049909E0,1.915361404E0,6.286575317E0,3.239953518E0
3.625042825E0,1.934514999E0,6.377554893E0,3.345298290E0
3.627035742E0,1.958456993E0,6.458957672E0,3.426701069E0
3.629028659E0,1.987187386E0,6.525995255E0,3.503315687E0
3.631021575E0,2.006340981E0,6.597821236E0,3.599083662E0
3.633014492E0,2.039859772E0,6.669647217E0,3.666121244E0
3.635007409E0,2.044648170E0,6.741473198E0,3.766677856E0
3.637000325E0,2.059013367E0,6.794146061E0,3.809773445E0
3.638993242E0,2.063801765E0,6.832453251E0,3.876811028E0
3.640986159E0,2.059013367E0,6.899490833E0,3.930082083E0
3.642979075E0,2.039859772E0,6.923432827E0,3.992331266E0
3.644971992E0,2.039859772E0,6.985682011E0,4.021061897E0
3.646964909E0,2.035071373E0,7.019799232E0,4.035427094E0
3.648957825E0,2.001552582E0,7.014412403E0,4.016273499E0
3.650950742E0,1.996764183E0,7.034164429E0,4.016273499E0
3.652943659E0,1.977610588E0,7.058106422E0,3.973177671E0
3.654936575E0,1.958456993E0,7.043741226E0,3.939658880E0
3.656929492E0,1.953668594E0,7.038952827E0,3.881599426E0
3.658922409E0,1.944091797E0,7.024587631E0,3.814561844E0
3.660915325E0,1.934514999E0,7.014412403E0,3.747524261E0
3.662908242E0,1.968033791E0,6.971316814E0,3.680486679E0
3.664901159E0,1.924938202E0,6.947374821E0,3.603872061E0
3.666894075E0,1.944091797E0,6.909067631E0,3.517680883E0
3.668886992E0,1.934514999E0,6.885125637E0,3.441066504E0
3.670879909E0,1.944091797E0,6.870760441E0,3.354875088E0
3.672872825E0,1.924938202E0,6.832453251E0,3.287837505E0
3.674865742E0,1.905784607E0,6.818088055E0,3.196857929E0
3.676858659E0,1.910573006E0,6.798934460E0,3.120243311E0
3.678851575E0,1.900996208E0,6.784569263E0,3.038840532E0
3.680844492E0,1.915361404E0,6.770204067E0,2.947860956E0
3.682837409E0,1.910573006E0,6.789357662E0,2.876034737E0
3.684830325E0,1.910573006E0,6.779780865E0,2.804208755E0
3.686823242E0,1.915361404E0,6.794146061E0,2.717418909E0
3.688816159E0,1.939303398E0,6.813299656E0,2.650381327E0
3.690809075E0,1.963245392E0,6.813299656E0,2.592920542E0
3.692801992E0,1.991975784E0,6.846818447E0,2.530671120E0
3.694794909E0,2.035071373E0,6.880337238E0,2.463633537E0
3.696787825E0,2.073378563E0,6.904279232E0,2.406172752E0
3.698780742E0,2.121262789E0,6.937798023E0,2.367865562E0
3.700773659E0,2.154781580E0,6.956951618E0,2.339135170E0
3.702766575E0,2.193088770E0,7.004835606E0,2.310404539E0
3.704759492E0,2.226607561E0,7.029376030E0,2.305616140E0
3.706752409E0,2.264914751E0,7.053318024E0,2.315192938E0
3.708745325E0,2.322375536E0,7.086836815E0,2.310404539E0
3.710738242E0,2.336740971E0,7.101202011E0,2.305616140E0
3.712731159E0,2.403778553E0,7.125144482E0,2.339135170E0
3.714724075E0,2.432508945E0,7.125144482E0,2.401384354E0
3.716716992E0,2.480392933E0,7.149086475E0,2.473210335E0
3.718709909E0,2.537853718E0,7.153874874E0,2.559401512E0
3.720702825E0,2.571372509E0,7.182605267E0,2.645592928E0
3.722695742E0,2.604891539E0,7.182605267E0,2.760514498E0
3.724688659E0,2.628833532E0,7.201758862E0,2.880823135E0
3.726681575E0,2.710834980E0,7.211335659E0,2.990956545E0
3.728674492E0,2.773084164E0,7.201758862E0,3.086724520E0
3.730667409E0,2.816179752E0,7.230489254E0,3.196857929E0
3.732660325E0,2.878428936E0,7.259219646E0,3.302202702E0
3.734653294E0,2.955043554E0,7.278373241E0,3.436278105E0
3.736646263E0,2.993350744E0,7.326257229E0,3.536834478E0
3.738639232E0,3.050811529E0,7.340622425E0,3.632602453E0
3.740632200E0,3.156156301E0,7.359776020E0,3.766677856E0
3.742625169E0,3.247136116E0,7.393294811E0,3.857657433E0
3.744618138E0,3.338115692E0,7.412448406E0,3.944447279E0
3.746611107E0,3.405153275E0,7.465120792E0,4.016273499E0
3.748604075E0,3.472191095E0,7.508216381E0,4.068945885E0
3.750597044E0,3.572747469E0,7.570465565E0,4.126406670E0
3.752590013E0,3.611054659E0,7.627926826E0,4.174290657E0
3.754582982E0,3.692457676E0,7.704541206E0,4.212597847E0
3.756575950E0,3.745130062E0,7.771578789E0,4.207809448E0
3.758568919E0,3.803189516E0,7.809885979E0,4.222174644E0
3.760561888E0,3.918111086E0,7.905653954E0,4.188655853E0
3.762554857E0,4.009090900E0,7.953537941E0,4.155137062E0
3.764547825E0,4.095282078E0,7.991845131E0,4.131195068E0
3.766540794E0,4.152742863E0,8.034940720E0,4.088099480E0
3.768533763E0,4.248510838E0,8.101978302E0,4.045003891E0
3.770526732E0,4.329913616E0,8.169614792E0,3.954024076E0
3.772519700E0,4.435258865E0,8.251017570E0,3.886387825E0
3.774512669E0,4.521450043E0,8.294113159E0,3.804985046E0
3.776505638E0,4.602852821E0,8.351573944E0,3.718793869E0
3.778498607E0,4.645948410E0,8.404246330E0,3.642179251E0
3.780491575E0,4.650736809E0,8.466495514E0,3.575141668E0
3.782484544E0,4.641160011E0,8.523956299E0,3.493738890E0
3.784477513E0,4.645948410E0,8.562263489E0,3.402759075E0
3.786470482E0,4.622006416E0,8.600570679E0,3.359663486E0
3.788463450E0,4.650736809E0,8.658031464E0,3.263895512E0
3.790456419E0,4.645948410E0,8.658031464E0,3.177704096E0
3.792449388E0,4.602852821E0,8.662819862E0,3.129820108E0
3.794442357E0,4.545392036E0,8.629301071E0,3.062782526E0
3.796435273E0,4.483142853E0,8.586205482E0,2.995744944E0
3.798428190E0,4.420893669E0,8.562263489E0,2.914341927E0
3.800421107E0,4.401739597E0,8.485649109E0,2.890399933E0
3.802414023E0,4.382586002E0,8.437765121E0,2.856881142E0
3.804406940E0,4.344278812E0,8.365939140E0,2.799420357E0
3.806399857E0,4.296394825E0,8.298901558E0,2.770689964E0
3.808392773E0,4.253299236E0,8.236652374E0,2.755726099E0
3.810385690E0,4.186261654E0,8.169614792E0,2.703053713E0
3.812378607E0,4.143166065E0,8.097189903E0,2.698265314E0
3.814371523E0,4.080916882E0,8.063671112E0,2.693476915E0
3.816364440E0,4.028244495E0,7.982268333E0,2.717418909E0
3.818357357E0,3.975571871E0,7.900865555E0,2.726995707E0
3.820350273E0,3.913322687E0,7.848193169E0,2.750937700E0
3.822343190E0,3.855861902E0,7.781155586E0,2.775478363E0
3.824336107E0,3.807977915E0,7.733271599E0,2.837727547E0
3.826329023E0,3.735553265E0,7.694964409E0,2.856881142E0
3.828321940E0,3.697246075E0,7.651868820E0,2.904765129E0
3.830314857E0,3.644573450E0,7.632715225E0,2.928707123E0
3.832307773E0,3.567959070E0,7.623138428E0,2.967014551E0
3.834300690E0,3.510498285E0,7.618350029E0,2.962226152E0
3.836293607E0,3.453037500E0,7.627926826E0,2.986168146E0
3.838286523E0,3.390788078E0,7.603984833E0,2.990956545E0
3.840279440E0,3.338115692E0,7.637503624E0,2.962226152E0
3.842272357E0,3.285443306E0,7.647080421E0,2.971802950E0
3.844265273E0,3.218405724E0,7.675810814E0,2.943072557E0
3.846258190E0,3.156156301E0,7.690176010E0,2.909553528E0
3.848251107E0,3.127425909E0,7.714118004E0,2.885611534E0
3.850244023E0,3.103483915E0,7.785943985E0,2.876034737E0
3.852236940E0,3.079541922E0,7.814674377E0,2.856881142E0
3.854229857E0,3.060388327E0,7.852981567E0,2.832939148E0
3.856222773E0,3.036446333E0,7.915230751E0,2.818573952E0
3.858215690E0,3.041234732E0,7.963114738E0,2.794631958E0
3.860208607E0,3.026869535E0,8.001421928E0,2.770689964E0
3.862201523E0,3.012504339E0,8.068459511E0,2.731784105E0
3.864194440E0,3.002927542E0,8.106766701E0,2.717418909E0
3.866187357E0,3.031657934E0,8.169614792E0,2.683900118E0
3.868180273E0,3.046023130E0,8.217498779E0,2.698265314E0
3.870173190E0,3.065176725E0,8.241440773E0,2.693476915E0
3.872166107E0,3.089118719E0,8.274959564E0,2.683900118E0
3.874159023E0,3.098695517E0,8.294113159E0,2.698265314E0
3.876151940E0,3.117849112E0,8.337208748E0,2.712630510E0
3.878144857E0,3.160944700E0,8.365939140E0,2.746149302E0
3.880137773E0,3.189675331E0,8.375515938E0,2.775478363E0
3.882130690E0,3.247136116E0,8.394669533E0,2.837727547E0
3.884123607E0,3.295020103E0,8.404246330E0,2.890399933E0
3.886116523E0,3.333327293E0,8.409034729E0,2.962226152E0
3.888109440E0,3.385999680E0,8.432976723E0,3.019686937E0
3.890102357E0,3.424306870E0,8.423399925E0,3.096301317E0
3.892095273E0,3.453037500E0,8.432976723E0,3.182492495E0
3.894088190E0,3.419518471E0,8.418611526E0,3.254318714E0
3.896081107E0,3.448249102E0,8.423399925E0,3.326144695E0
3.898074023E0,3.433883905E0,8.442553520E0,3.378817081E0
3.900066940E0,3.400364876E0,8.432976723E0,3.441066504E0
3.902059857E0,3.414730072E0,8.442553520E0,3.493738890E0
3.904052773E0,3.429095268E0,8.452130318E0,3.527257681E0
3.906045690E0,3.400364876E0,8.442553520E0,3.555988073E0
3.908038607E0,3.414730072E0,8.428188324E0,3.589506865E0
3.910031523E0,3.433883905E0,8.418611526E0,3.613448858E0
3.912024440E0,3.438672304E0,8.418611526E0,3.608660460E0
3.914017357E0,3.448249102E0,8.413823128E0,3.623025656E0
3.916010273E0,3.453037500E0,8.394669533E0,3.651756048E0
3.918003190E0,3.476979494E0,8.356362343E0,3.680486679E0
3.919996107E0,3.472191095E0,8.341997147E0,3.709217072E0
3.921989023E0,3.467402697E0,8.318055153E0,3.742735863E0
3.923981940E0,3.496133089E0,8.313266754E0,3.785831451E0
3.925974857E0,3.500921488E0,8.313266754E0,3.843292236E0
3.927967773E0,3.524863482E0,8.318055153E0,3.867234230E0
3.929960690E0,3.553593874E0,8.346785545E0,3.876811028E0
3.931953607E0,3.539228678E0,8.356362343E0,3.881599426E0
3.933946523E0,3.563170671E0,8.389881134E0,3.857657433E0
3.935939440E0,3.572747469E0,8.409034729E0,3.828927040E0
3.937932357E0,3.601477861E0,8.466495514E0,3.757101059E0
3.939925273E0,3.596689463E0,8.514379501E0,3.680486679E0
3.941918190E0,3.625419855E0,8.567051888E0,3.627814054E0
3.943911107E0,3.644573450E0,8.648454666E0,3.565564871E0
3.945904023E0,3.649361849E0,8.720281601E0,3.479373693E0
3.947896940E0,3.673303843E0,8.825626373E0,3.426701069E0
3.949889857E0,3.721188068E0,8.911817551E0,3.350086689E0
3.951882773E0,3.725976467E0,9.012373924E0,3.287837505E0
3.953875690E0,3.740341663E0,9.117718697E0,3.230376720E0
3.955868607E0,3.769072056E0,9.208698273E0,3.187281132E0
3.957861523E0,3.764283657E0,9.305065155E0,3.091512918E0
3.959854440E0,3.788225651E0,9.400833130E0,3.072359324E0
3.961847357E0,3.778648853E0,9.487024307E0,2.990956545E0
3.963840273E0,3.778648853E0,9.582792282E0,2.952649355E0
3.965833190E0,3.759495258E0,9.625887871E0,2.895188332E0
3.967826107E0,3.611054659E0,9.649829865E0,2.880823135E0
3.969819023E0,3.577535868E0,9.683348656E0,2.971802950E0
3.971811940E0,3.783437252E0,9.807847023E0,2.856881142E0
3.973804857E0,3.913322687E0,9.865307808E0,2.679111719E0
3.975797773E0,4.037821293E0,9.908403397E0,2.559401512E0
3.977790690E0,4.128800869E0,9.913191795E0,2.430114746E0
3.979783607E0,4.219780445E0,9.917980194E0,2.324769735E0
3.981776523E0,4.282029629E0,9.913191795E0,2.238578558E0
3.983769440E0,4.358644009E0,9.894038200E0,2.157175779E0
3.985762357E0,4.430470467E0,9.879673004E0,2.085349798E0
3.987755273E0,4.497508049E0,9.884461403E0,2.013523579E0
3.989748190E0,4.531026840E0,9.903614998E0,1.946485996E0
3.991741107E0,4.550180435E0,9.903614998E0,1.898601890E0
3.993734023E0,4.583699226E0,9.917980194E0,1.850717902E0
3.995726940E0,4.574122429E0,9.917980194E0,1.778891921E0
3.997719857E0,4.588487625E0,9.946710587E0,1.740584612E0
3.999712773E0,4.554968834E0,9.970652580E0,1.692700624E0
4.001705690E0,4.535815239E0,9.999382973E0,1.625064373E0
4.003698607E0,4.483142853E0,1.005205631E1,1.562815189E0
4.005691523E0,4.382586002E0,1.009036350E1,1.510142684E0
4.007684440E0,4.310760021E0,1.014303589E1,1.457470298E0
4.009677357E0,4.229357243E0,1.020049667E1,1.428739905E0
4.011670273E0,4.119224072E0,1.023880386E1,1.390432596E0
4.013663190E0,4.042609692E0,1.028189945E1,1.342548609E0
4.015656107E0,3.951629877E0,1.034893703E1,1.332971811E0
4.017649023E0,3.875015497E0,1.036330223E1,1.328183413E0
4.019641940E0,3.788225651E0,1.043093872E1,1.309029818E0
4.021634857E0,3.725976467E0,1.046924591E1,1.294664621E0
4.023627825E0,3.673303843E0,1.050755310E1,1.280299306E0
4.025620794E0,3.649361849E0,1.054586029E1,1.275510907E0
4.027613763E0,3.639785051E0,1.057937908E1,1.261145711E0
4.029606732E0,3.654150248E0,1.064641666E1,1.280299306E0
4.031599700E0,3.658938646E0,1.067514706E1,1.265934110E0
4.033592669E0,3.697246075E0,1.070387745E1,1.285087705E0
4.035585638E0,3.721188068E0,1.073260784E1,1.304241419E0
4.037578607E0,3.716399670E0,1.077091503E1,1.347337008E0
4.039571575E0,3.759495258E0,1.081401062E1,1.414374709E0
4.041564544E0,3.745130062E0,1.086668301E1,1.481412292E0
4.043557513E0,3.759495258E0,1.092414379E1,1.548449993E0
4.045550482E0,3.395576477E0,1.085710621E1,1.673547029E0
4.047543450E0,3.117849112E0,1.081879902E1,1.984793186E0
4.049536419E0,3.438672304E0,1.099118137E1,2.080561161E0
4.051529388E0,3.577535868E0,1.112046814E1,1.912967205E0
4.053522357E0,3.649361849E0,1.121623611E1,1.903390408E0
4.055515325E0,3.711611271E0,1.128327370E1,1.869871497E0
4.057508294E0,3.749918461E0,1.133115768E1,1.793257117E0
4.059501263E0,3.855861902E0,1.139340687E1,1.731007814E0
4.061494232E0,3.922899485E0,1.145086861E1,1.673547029E0
4.063487200E0,4.018667698E0,1.150832939E1,1.615487576E0
4.065480169E0,4.080916882E0,1.158554173E1,1.586757183E0
4.067473138E0,4.124012470E0,1.165736771E1,1.601122379E0
4.069466107E0,4.133589268E0,1.172440529E1,1.591545582E0
4.071459075E0,4.133589268E0,1.179623222E1,1.634641171E0
4.073452044E0,4.219780445E0,1.185369301E1,1.673547029E0
4.075445013E0,4.229357243E0,1.191594219E1,1.745373011E0
4.077437982E0,4.200626850E0,1.201649857E1,1.826775908E0
4.079430950E0,4.167108059E0,1.208832455E1,1.946485996E0
4.081423919E0,4.133589268E0,1.219366932E1,2.042253971E0
4.083416888E0,4.080916882E0,1.231816769E1,2.133233786E0
4.085409805E0,4.066551685E0,1.242830086E1,2.195482969E0
4.087402721E0,3.994725466E0,1.252885723E1,2.281674147E0
4.089395638E0,3.956418276E0,1.261504841E1,2.305616140E0
4.091388555E0,3.846285105E0,1.272578049E1,2.305616140E0
4.093381471E0,3.769072056E0,1.281676006E1,2.296039343E0
4.095374388E0,3.711611271E0,1.289337444E1,2.238578558E0
4.097367305E0,3.649361849E0,1.293647003E1,2.190694571E0
4.099360221E0,3.611054659E0,1.294604683E1,2.080561161E0
4.101353138E0,3.548805475E0,1.289816284E1,1.989581585E0
4.103346055E0,3.510498285E0,1.285506725E1,1.855506301E0
4.105338971E0,3.515286684E0,1.278324127E1,1.721431017E0
4.107331888E0,3.529651880E0,1.274493408E1,1.558026791E0
4.109324805E0,3.572747469E0,1.269226170E1,1.361702204E0
4.111317721E0,3.663727045E0,1.263958931E1,1.189319730E0
4.113310638E0,3.754706860E0,1.259589481E1,1.007360339E0
4.115303555E0,3.851073503E0,1.256716442E1,8.301894665E-1
4.117296471E0,3.932476282E0,1.252885723E1,6.290764809E-1
4.119289388E0,3.994725466E0,1.246660805E1,4.465186298E-1
4.121282305E0,4.061763287E0,1.239478207E1,2.837128937E-1
4.123275221E0,4.119224072E0,1.231337929E1,1.113303825E-1
4.125268138E0,4.133589268E0,1.221761131E1,-5.626374111E-2
4.127261055E0,4.128800869E0,1.210268974E1,-1.903390288E-1
4.129253971E0,4.119224072E0,1.198776817E1,-2.908954918E-1
4.131246888E0,4.056974888E0,1.183453941E1,-3.722983599E-1
4.133239805E0,3.975571871E0,1.171482849E1,-3.962403834E-1
4.135232721E0,3.908534288E0,1.157117653E1,-3.770867586E-1
4.137225638E0,3.865438700E0,1.139340687E1,-3.292027414E-1
4.139218555E0,3.778648853E0,1.124975491E1,-2.094926536E-1
4.141211471E0,3.706822872E0,1.106300735E1,-8.978256583E-2
4.143204388E0,3.654150248E0,1.087147141E1,4.429273307E-2
4.145197305E0,3.572747469E0,1.068951225E1,1.927332431E-1
4.147190221E0,3.515286684E0,1.048361111E1,2.837128937E-1
4.149183138E0,3.467402697E0,1.029626465E1,4.225766063E-1
4.151176055E0,3.419518471E0,1.009036350E1,5.285200477E-1
4.153168971E0,3.409941673E0,9.884461403E0,6.482301354E-1
4.155161888E0,3.371634483E0,9.678560257E0,7.200561762E-1
4.157154805E0,3.362057686E0,9.482235909E0,7.679402232E-1
4.159147721E0,3.390788078E0,9.314641953E0,8.158242106E-1
4.161140638E0,3.409941673E0,9.117718697E0,8.445546627E-1
4.163133555E0,3.429095268E0,8.945336342E0,8.445546627E-1
4.165126471E0,3.500921488E0,8.806472778E0,8.493430614E-1
4.167119388E0,3.539228678E0,8.658031464E0,7.918822169E-1
4.169112305E0,3.567959070E0,8.514379501E0,7.727286220E-1
4.171105221E0,3.634996653E0,8.389881134E0,7.009025216E-1
4.173098138E0,3.687669277E0,8.284536362E0,6.290764809E-1
4.175091055E0,3.754706860E0,8.198345184E0,5.428852439E-1
4.177083971E0,3.822343111E0,8.087613106E0,4.513070285E-1
4.179076888E0,3.913322687E0,8.001421928E0,3.459621370E-1
4.181069805E0,3.989937067E0,7.958326340E0,2.501940727E-1
4.183062721E0,4.080916882E0,7.896077156E0,1.640028208E-1
4.185055638E0,4.152742863E0,7.848193169E0,8.738835901E-2
4.187048555E0,4.205415249E0,7.829039574E0,-1.316810958E-2
4.189041471E0,4.282029629E0,7.800309181E0,-7.062894851E-2
4.191034388E0,4.329913616E0,7.771578789E0,-1.089361757E-1
4.193027305E0,4.387374401E0,7.776367188E0,-1.376665980E-1
4.195020221E0,4.401739597E0,7.752425194E0,-1.376665980E-1
4.197013138E0,4.396951199E0,7.757213593E0,-1.424549967E-1
4.199006055E0,4.401739597E0,7.757213593E0,-1.472434103E-1
4.200998971E0,4.425682068E0,7.747636795E0,-1.041477770E-1
4.202991888E0,4.435258865E0,7.742848396E0,-6.105214357E-2
4.204984805E0,4.454412460E0,7.742848396E0,2.513911761E-2
4.206977721E0,4.454412460E0,7.733271599E0,9.217676520E-2
4.208970638E0,4.468777657E0,7.742848396E0,1.879448295E-1
4.210963555E0,4.511873245E0,7.747636795E0,3.315969408E-1
4.212956471E0,4.531026840E0,7.771578789E0,4.991910458E-1
4.214949388E0,4.607641220E0,7.781155586E0,6.386532784E-1
4.216942305E0,4.708197594E0,7.771578789E0,8.158242106E-1
4.218935221E0,4.818330765E0,7.795520782E0,1.031302333E0
4.220928138E0,4.967370033E0,7.814674377E0,1.213261724E0
4.222921055E0,5.106233597E0,7.838616371E0,1.419163108E0
4.224913971E0,5.269039154E0,7.891288757E0,1.673547029E0
4.226906888E0,5.441421986E0,7.939172745E0,1.922544003E0
4.228899805E0,5.628169537E0,8.006210327E0,2.219424963E0
4.230892721E0,5.848436356E0,8.068459511E0,2.535459518E0
4.232885638E0,6.107608318E0,8.135497093E0,2.785055161E0
4.234878555E0,6.294356346E0,8.217498779E0,3.048417330E0
4.236871471E0,6.505045891E0,8.303689957E0,3.278260708E0
4.238864388E0,6.725312710E0,8.389881134E0,3.541622877E0
4.240857305E0,6.926425457E0,8.471283913E0,3.781043053E0
4.242850221E0,7.117961884E0,8.571840286E0,3.997119665E0
