"Time (s)","Acceleration x (m/s^2)","Acceleration y (m/s^2)","Acceleration z (m/s^2)"
1.045581200E-2,4.638765752E-1,1.102529883E0,8.567650795E0
1.244846800E-2,4.399345517E-1,1.088164687E0,8.591592789E0
1.444112400E-2,4.249708056E-1,1.069011092E0,8.596381187E0
1.643378100E-2,4.058171809E-1,1.045069098E0,8.625111580E0
1.842643700E-2,3.818751574E-1,1.025915384E0,8.672995567E0
2.041909300E-2,3.818751574E-1,1.016338587E0,8.706514359E0
2.241174900E-2,3.722983599E-1,9.876081944E-1,8.720879555E0
2.440440600E-2,3.483563364E-1,1.001973391E0,8.749609947E0
2.639706200E-2,3.435679376E-1,1.001973391E0,8.807070732E0
2.838805200E-2,3.435679376E-1,1.001973391E0,8.864531517E0
3.037904100E-2,3.579331636E-1,1.016338587E0,8.945934296E0
3.237659300E-2,3.339911401E-1,1.030703783E0,9.056067467E0
3.434180200E-2,3.100491166E-1,1.059434295E0,9.252392769E0
3.630701000E-2,2.765302956E-1,1.073799491E0,9.295488358E0
3.830701000E-2,2.765302956E-1,1.073799491E0,9.333795547E0
4.030701000E-2,2.525882721E-1,1.102529883E0,9.429563522E0
4.230701000E-2,2.573766708E-1,1.116895080E0,9.491812706E0
4.430701000E-2,2.334346622E-1,1.131260276E0,9.564237595E0
4.630701000E-2,2.142810524E-1,1.145625472E0,9.636063576E0
4.830701000E-2,2.047042400E-1,1.164779186E0,9.717466354E0
5.030701000E-2,2.094926536E-1,1.174355984E0,9.789292336E0
5.230701000E-2,2.047042400E-1,1.193509579E0,9.813234329E0
5.430701000E-2,2.047042400E-1,1.212663174E0,9.870695114E0
5.630701000E-2,2.047042400E-1,1.227028370E0,9.880271912E0
5.830701000E-2,2.094926536E-1,1.274912357E0,9.913790703E0
6.030701000E-2,2.190694511E-1,1.265335560E0,9.928155899E0
6.230701000E-2,2.430114746E-1,1.289277673E0,9.961674690E0
6.430701000E-2,2.669534981E-1,1.294066072E0,1.002392387E1
6.630701000E-2,3.244143426E-1,1.303642869E0,1.002871227E1
6.830701000E-2,3.483563364E-1,1.332373261E0,1.008617306E1
7.030701000E-2,3.962403834E-1,1.351526856E0,1.012448025E1
7.230701000E-2,4.010287821E-1,1.370680451E0,1.014842224E1
7.430701000E-2,4.399345517E-1,1.404797792E0,1.018672943E1
7.630701000E-2,4.638765752E-1,1.419163108E0,1.019630623E1
7.830701000E-2,4.495113790E-1,1.443105102E0,1.019630623E1
8.030701000E-2,4.830302000E-1,1.481412292E0,1.017236423E1
8.230701000E-2,4.638765752E-1,1.500565886E0,1.011490345E1
8.430701000E-2,4.495113790E-1,1.529296279E0,1.005265427E1
8.630701000E-2,4.351461530E-1,1.548449993E0,9.966463089E0
8.830701000E-2,4.106055796E-1,1.538873196E0,9.885060310E0
9.030701000E-2,3.866635859E-1,1.562815189E0,9.798869133E0
9.230701000E-2,3.531447649E-1,1.572391987E0,9.717466354E0
9.430701000E-2,3.339911401E-1,1.577180386E0,9.664793968E0
9.630701000E-2,3.387795389E-1,1.581968784E0,9.602544785E0
9.830701000E-2,3.148375154E-1,1.596333981E0,9.554660797E0
1.003070100E-1,2.956839204E-1,1.596333981E0,9.491812706E0
1.023070100E-1,2.669534981E-1,1.610699177E0,9.453505516E0
1.043070100E-1,2.573766708E-1,1.625064373E0,9.396044731E0
1.063070100E-1,2.669534981E-1,1.596333981E0,9.396044731E0
1.083070100E-1,3.292027414E-1,1.514931083E0,9.376891136E0
1.103070100E-1,4.495113790E-1,1.433528304E0,9.424775124E0
1.123070100E-1,5.500678420E-1,1.423951507E0,9.564237595E0
1.143070100E-1,5.835866928E-1,1.414374709E0,9.616909981E0
1.163070100E-1,5.452794433E-1,1.433528304E0,9.588179588E0
1.183070100E-1,5.548562407E-1,1.457470298E0,9.559449196E0
1.203070100E-1,6.123170853E-1,1.447893500E0,9.535507202E0
1.223070100E-1,6.218938828E-1,1.438316703E0,9.525930405E0
1.243070100E-1,6.554127336E-1,1.443105102E0,9.491812706E0
1.263070100E-1,7.272387743E-1,1.433528304E0,9.443928719E0
1.283070100E-1,6.937199235E-1,1.447893500E0,9.424775124E0
1.303070100E-1,6.793547273E-1,1.443105102E0,9.372102737E0
1.323070100E-1,6.554127336E-1,1.476623893E0,9.333795547E0
1.343070100E-1,5.740098357E-1,1.510142684E0,9.276334763E0
1.363070100E-1,5.165489912E-1,1.500565886E0,9.194931984E0
1.383070100E-1,4.878185987E-1,1.514931083E0,9.170989990E0
1.403070100E-1,4.249708056E-1,1.529296279E0,9.185355186E0
1.423070100E-1,3.675099611E-1,1.538873196E0,9.142259598E0
1.443070100E-1,3.675099611E-1,1.543661594E0,9.103952408E0
1.463070100E-1,3.004723191E-1,1.567603588E0,9.051279068E0
1.483070100E-1,2.047042400E-1,1.601122379E0,9.032125473E0
1.503070100E-1,1.041477770E-1,1.634641171E0,9.003395081E0
1.523070100E-1,6.584054977E-2,1.644217968E0,8.979453087E0
1.543070100E-1,8.379706182E-3,1.663371682E0,8.950722694E0
1.563070100E-1,-8.259996027E-2,1.696890473E0,8.931569099E0
1.583070100E-1,-1.640028208E-1,1.725620866E0,8.907627106E0
1.603070100E-1,-2.693476975E-1,1.744774461E0,8.907627106E0
1.623070100E-1,-2.789244950E-1,1.730409265E0,8.893261909E0
1.643070100E-1,-3.507505357E-1,1.744774461E0,8.902838707E0
1.663070100E-1,-3.507505357E-1,1.759139657E0,8.883685112E0
1.683070100E-1,-3.363853395E-1,1.787870169E0,8.811859131E0
1.703070100E-1,-2.454056740E-1,1.773504853E0,8.802282333E0
1.723070100E-1,-2.023100406E-1,1.759139657E0,8.749609947E0
1.743070100E-1,-2.992752194E-2,1.682525277E0,8.687360764E0
1.763070100E-1,2.142810524E-1,1.610699177E0,8.562862396E0
1.783070100E-1,7.703344226E-1,1.394622445E0,8.467094421E0
1.803070100E-1,9.522937536E-1,1.361103654E0,8.116942406E0
1.823070100E-1,1.110311031E0,1.351526856E0,7.982867241E0
1.843070100E-1,1.249174714E0,1.313219666E0,7.920617580E0
1.863070100E-1,1.354519606E0,1.313219666E0,7.872733593E0
1.883070100E-1,1.440710902E0,1.313219666E0,7.877521992E0
1.903070100E-1,1.531690478E0,1.351526856E0,7.906252384E0
1.923070100E-1,1.565807939E0,1.380257249E0,7.954136372E0
1.943070100E-1,1.531690478E0,1.428739905E0,8.112154007E0
1.963070100E-1,1.507748485E0,1.481412292E0,8.260594368E0
1.983070100E-1,1.474229693E0,1.534084797E0,8.419210434E0
2.003070100E-1,1.435922503E0,1.572391987E0,8.601169586E0
2.023070100E-1,1.421557307E0,1.629852772E0,8.763975143E0
2.043070100E-1,1.388038397E0,1.677736878E0,8.888473511E0
2.063070100E-1,1.368884802E0,1.696890473E0,8.998606682E0
2.083070100E-1,1.431134105E0,1.706467271E0,8.792705536E0
2.103070100E-1,1.872265697E0,1.634641171E0,7.987655640E0
2.123070100E-1,2.504334927E0,1.519719481E0,6.722918510E0
2.143070100E-1,2.102109194E0,1.476623893E0,7.149086475E0
2.163070100E-1,1.953668594E0,1.467047095E0,7.393893242E0
2.183070100E-1,1.805228114E0,1.486200690E0,7.518392086E0
2.203070100E-1,1.671152830E0,1.524507880E0,7.614160061E0
2.223070100E-1,1.526902080E0,1.524507880E0,7.724293232E0
2.243070100E-1,1.407191992E0,1.538873196E0,7.848791599E0
2.263070100E-1,1.220444322E0,1.543661594E0,7.987655640E0
2.283070100E-1,1.129464626E0,1.433528304E0,8.049904823E0
2.303070100E-1,1.028908134E0,1.370680451E0,8.102577209E0
2.323070100E-1,7.751228213E-1,1.490989089E0,8.380903244E0
2.343070100E-1,5.883750916E-1,1.620275974E0,8.639476776E0
2.363070100E-1,4.495113790E-1,1.696890473E0,8.859743118E0
2.383070100E-1,4.351461530E-1,1.701678872E0,8.993818283E0
2.403070100E-1,4.638765752E-1,1.658583283E0,8.888473511E0
2.423070100E-1,3.100491166E-1,1.735197663E0,9.123106003E0
2.443070100E-1,1.999158412E-1,1.821388960E0,9.305065155E0
2.463070100E-1,8.020575345E-2,1.874061346E0,9.424775124E0
2.483070100E-1,-1.556231081E-2,1.898003340E0,9.559449196E0
2.503070100E-1,-1.400607973E-1,1.907580256E0,9.660005569E0
2.523070100E-1,-2.454056740E-1,1.912368655E0,9.755773544E0
2.543070100E-1,-3.842693865E-1,1.917157054E0,9.865906715E0
2.563070100E-1,-5.039794445E-1,1.955464244E0,9.952097893E0
2.583070100E-1,-6.236895323E-1,1.955464244E0,1.002392387E1
2.603070100E-1,-7.439981699E-1,1.993771434E0,1.008617306E1
2.623070100E-1,-8.732850552E-1,1.988983035E0,1.012926865E1
2.643070100E-1,-1.012148738E0,2.008136749E0,1.018672943E1
2.663070100E-1,-1.131858826E0,2.008136749E0,1.022024822E1
2.683070100E-1,-1.232415318E0,2.041655540E0,1.022024822E1
2.703070100E-1,-1.313818216E0,2.046443939E0,1.021545982E1
2.723070100E-1,-1.390432596E0,2.056020737E0,1.022982502E1
2.743070100E-1,-1.423951507E0,2.065597534E0,1.021545982E1
2.763070100E-1,-1.457470298E0,2.056020737E0,1.019151783E1
2.783070100E-1,-1.490989089E0,2.056020737E0,1.011011505E1
2.803070100E-1,-1.476623893E0,2.065597534E0,9.999981880E0
2.823070100E-1,-1.452681899E0,2.060809135E0,9.870695114E0
2.843070100E-1,-1.055244446E0,2.194884300E0,9.525930405E0
2.863070100E-1,-7.679402232E-1,2.305017710E0,9.209297180E0
2.883070100E-1,-7.296329737E-1,2.309806108E0,8.989029884E0
2.903070100E-1,-6.961141229E-1,2.271498919E0,8.850166321E0
2.923070100E-1,-6.859387755E-1,2.194884300E0,8.730456352E0
2.943070100E-1,-7.009025216E-1,2.147000313E0,8.644265175E0
2.963070100E-1,-7.152677774E-1,2.070385933E0,8.572439194E0
2.983070100E-1,-7.152677774E-1,1.993771434E0,8.514978409E0
3.003070100E-1,-7.104793787E-1,1.917157054E0,8.476671219E0
3.023070100E-1,-6.907271743E-1,1.864484549E0,8.447940826E0
3.043070100E-1,-6.619967818E-1,1.797446966E0,8.462306023E0
3.063070100E-1,-6.189011335E-1,1.744774461E0,8.447940826E0
3.083070100E-1,-5.805938840E-1,1.692102075E0,8.491036415E0
3.103070100E-1,-5.039794445E-1,1.682525277E0,8.510190010E0
3.123070100E-1,-4.273650050E-1,1.644217968E0,8.572439194E0
3.143070100E-1,-3.651157618E-1,1.649006367E0,8.629899979E0
3.163070100E-1,-2.789244950E-1,1.625064373E0,8.696937561E0
3.183070100E-1,-1.927332431E-1,1.620275974E0,8.749609947E0
3.203070100E-1,-1.209071875E-1,1.601122379E0,8.840589523E0
3.223070100E-1,-4.908113554E-2,1.615487576E0,8.950722694E0
3.243070100E-1,3.232172132E-2,1.601122379E0,9.080010414E0
3.263070100E-1,1.041477770E-1,1.601122379E0,9.223662376E0
3.283070100E-1,1.711854190E-1,1.586757183E0,9.391256332E0
3.303070100E-1,2.094926536E-1,1.567603588E0,9.554660797E0
3.323070100E-1,2.430114746E-1,1.562815189E0,9.698312759E0
3.343070100E-1,2.717418969E-1,1.524507880E0,9.818022728E0
3.363070100E-1,3.052607179E-1,1.519719481E0,9.928155899E0
3.383070100E-1,2.813186944E-1,1.495777488E0,9.985616684E0
3.403469060E-1,2.525882721E-1,1.495777488E0,1.003828907E1
3.423469060E-1,2.430114746E-1,1.471835494E0,1.007180786E1
3.443846140E-1,2.238578647E-1,1.476623893E0,1.008138466E1
3.463846140E-1,1.903390288E-1,1.467047095E0,1.009096146E1
3.484202910E-1,1.520318091E-1,1.471835494E0,1.006223106E1
3.504202910E-1,1.137245819E-1,1.490989089E0,1.005265427E1
3.524539890E-1,6.584054977E-2,1.500565886E0,1.002871227E1
3.544539890E-1,3.711012751E-2,1.524507880E0,9.985616684E0
3.564857600E-1,2.274491638E-2,1.543661594E0,9.913790703E0
3.584857600E-1,-2.513911761E-2,1.562815189E0,9.837176323E0
3.605157080E-1,-5.865794048E-2,1.601122379E0,9.760561943E0
3.625157080E-1,-6.344634295E-2,1.620275974E0,9.655217171E0
3.645438850E-1,-7.302315533E-2,1.644217968E0,9.554660797E0
3.665438850E-1,-8.259996027E-2,1.672948480E0,9.448717117E0
3.685703950E-1,-9.696517140E-2,1.682525277E0,9.352949142E0
3.705703950E-1,-1.113303825E-1,1.692102075E0,9.276334763E0
3.725952910E-1,-1.161187813E-1,1.716044068E0,9.180566788E0
3.745952910E-1,-1.256955862E-1,1.720832467E0,9.137471199E0
3.766186240E-1,-1.448491961E-1,1.730409265E0,9.084798813E0
3.786186240E-1,-1.400607973E-1,1.735197663E0,9.051279068E0
3.806404470E-1,-1.304839998E-1,1.744774461E0,9.017760277E0
3.826404470E-1,-1.304839998E-1,1.778293371E0,9.036913872E0
3.846608640E-1,-1.161187813E-1,1.778293371E0,9.041702271E0
3.866997700E-1,-6.823474914E-2,1.754351258E0,9.046490669E0
3.886997700E-1,-1.077390742E-2,1.739986062E0,9.089587212E0
3.907169580E-1,1.316810958E-2,1.716044068E0,9.137471199E0
3.927497180E-1,7.541735470E-2,1.663371682E0,9.190143585E0
3.947497180E-1,1.520318091E-1,1.634641171E0,9.290699959E0
3.967640930E-1,2.286462635E-1,1.581968784E0,9.400833130E0
3.987913850E-1,3.244143426E-1,1.553238392E0,9.545084000E0
4.008297180E-1,4.010287821E-1,1.510142684E0,9.698312759E0
4.028297180E-1,4.638765752E-1,1.514931083E0,9.880271912E0
4.048397700E-1,5.165489912E-1,1.510142684E0,1.005265427E1
4.068587810E-1,5.309142470E-1,1.524507880E0,1.022982502E1
4.088853430E-1,5.357026458E-1,1.558026791E0,1.041178417E1
4.109178430E-1,5.692214370E-1,1.562815189E0,1.055543709E1
4.129544580E-1,5.787982345E-1,1.562815189E0,1.062786102E1
4.149932600E-1,5.835866928E-1,1.572391987E0,1.071884060E1
4.170323220E-1,5.883750916E-1,1.553238392E0,1.079066753E1
4.190328430E-1,6.362590790E-1,1.443105102E0,1.084812832E1
4.210259160E-1,7.128735781E-1,1.313219666E0,1.089601231E1
4.230189370E-1,8.086416125E-1,1.140837073E0,1.090080070E1
4.250119580E-1,1.000177741E0,1.025915384E0,1.084333992E1
4.270049790E-1,1.215655923E0,9.157821536E-1,1.077151299E1
4.289979990E-1,1.297058821E0,8.248024583E-1,1.077630138E1
4.309910200E-1,1.225232720E0,8.056488633E-1,1.086728191E1
4.329840410E-1,1.019331336E0,8.295909166E-1,1.109712505E1
4.349770620E-1,7.224503756E-1,9.349357486E-1,1.143710136E1
4.369700830E-1,4.926069975E-1,1.069011092E0,1.184950256E1
4.389631040E-1,4.297592044E-1,1.308431268E0,1.231397820E1
4.409561240E-1,6.410474777E-1,1.687313676E0,1.280718327E1
4.429491450E-1,7.320271730E-1,1.931522250E0,1.317170048E1
4.449421660E-1,6.218938828E-1,1.988983035E0,1.330577564E1
4.469351870E-1,6.697779298E-1,2.012925148E0,1.317170048E1
4.489282080E-1,5.644330382E-1,1.955464244E0,1.300889492E1
4.509212290E-1,4.297592044E-1,1.835754156E0,1.289397335E1
4.529142490E-1,2.861070931E-1,1.692102075E0,1.276887608E1
4.549072700E-1,1.663970202E-1,1.543661594E0,1.263480091E1
4.569002910E-1,3.711012751E-2,1.394622445E0,1.251509094E1
4.588933120E-1,-3.950432688E-2,1.274912357E0,1.237143898E1
4.608863330E-1,-6.344634295E-2,1.174355984E0,1.222778702E1
4.628793540E-1,-2.513911761E-2,1.131260276E0,1.207455730E1
4.648723740E-1,3.711012751E-2,1.092953086E0,1.194048214E1
4.668653950E-1,1.376665980E-1,1.097741485E0,1.179204178E1
4.688584160E-1,2.765302956E-1,1.136048675E0,1.165736771E1
4.708514370E-1,4.106055796E-1,1.159990668E0,1.155202293E1
4.728444580E-1,5.644330382E-1,1.183932781E0,1.147062016E1
4.748374790E-1,6.937199235E-1,1.217451572E0,1.141794777E1
4.768304990E-1,7.703344226E-1,1.231816769E0,1.136527538E1
4.788235200E-1,8.277952671E-1,1.284489155E0,1.131260300E1
4.808165410E-1,8.469488621E-1,1.294066072E0,1.129344940E1
4.828095620E-1,8.421604633E-1,1.318008065E0,1.125993061E1
4.848025830E-1,8.277952671E-1,1.327584863E0,1.123120022E1
4.867956040E-1,7.799112201E-1,1.341950059E0,1.125035381E1
4.887886240E-1,7.463923693E-1,1.365892053E0,1.123120022E1
4.907816450E-1,6.985083222E-1,1.380257249E0,1.121204662E1
4.927746660E-1,6.410474777E-1,1.394622445E0,1.120725822E1
4.947676870E-1,5.979518890E-1,1.399410844E0,1.116416264E1
4.967607080E-1,5.644330382E-1,1.399410844E0,1.109712505E1
4.987537290E-1,5.069721937E-1,1.414374709E0,1.104445267E1
5.007467490E-1,5.069721937E-1,1.414374709E0,1.097262669E1
5.027397700E-1,5.213374496E-1,1.428739905E0,1.083376312E1
5.047327910E-1,5.452794433E-1,1.423951507E0,1.066616821E1
5.067258120E-1,5.692214370E-1,1.428739905E0,1.047403431E1
5.087188330E-1,6.075286865E-1,1.414374709E0,1.023940182E1
5.107118540E-1,6.362590790E-1,1.419163108E0,9.976039886E0
5.127048740E-1,6.554127336E-1,1.423951507E0,9.746196747E0
5.146978950E-1,6.841431260E-1,1.443105102E0,9.482235909E0
5.166909160E-1,7.032967210E-1,1.471835494E0,9.314641953E0
5.186839370E-1,7.320271730E-1,1.495777488E0,9.190143585E0
5.206769580E-1,7.320271730E-1,1.534084797E0,9.103952408E0
5.226699790E-1,7.176619768E-1,1.577180386E0,9.070432663E0
5.246629990E-1,7.032967210E-1,1.620275974E0,9.051279068E0
5.266560200E-1,6.266822815E-1,1.658583283E0,9.032125473E0
5.286490410E-1,3.591302549E-3,1.830965757E0,8.351573944E0
5.306420620E-1,-8.732850552E-1,1.998559833E0,7.149086475E0
5.326350830E-1,-1.970427990E0,2.170942307E0,6.138733387E0
5.346281040E-1,-2.923320293E0,2.348113298E0,5.740696907E0
5.366211240E-1,-3.402759075E0,2.463035107E0,5.467758179E0
5.386141450E-1,-3.019686937E0,2.535459518E0,5.491700172E0
5.406071660E-1,-2.229001760E0,2.554613113E0,5.515642166E0
5.426001870E-1,-1.385644197E0,2.554613113E0,5.913079739E0
5.445932080E-1,-6.859387755E-1,2.520495892E0,6.976703644E0
5.465862290E-1,-3.890577853E-1,2.443881273E0,6.833051682E0
5.485792490E-1,-2.885012925E-1,2.319382906E0,6.118980885E0
5.505722700E-1,-2.693476975E-1,2.214038134E0,5.582679749E0
5.525652910E-1,-3.172317147E-1,2.123058319E0,5.261856556E0
5.545583120E-1,-2.501940727E-1,2.079962730E0,5.084685802E0
5.565513330E-1,-4.908113554E-2,2.070385933E0,4.964377403E0
5.585443540E-1,1.520318091E-1,2.065597534E0,4.950012207E0
5.605373740E-1,4.782418013E-1,2.070385933E0,5.084685802E0
5.625303950E-1,1.048061848E0,2.056020737E0,5.415085793E0
5.645234160E-1,1.690306425E0,2.008136749E0,5.889137745E0
5.665164370E-1,2.470816135E0,1.936310649E0,6.540958881E0
5.685094580E-1,3.275866508E0,1.869272947E0,7.235277653E0
5.705024790E-1,3.841496706E0,1.807023764E0,7.973290443E0
5.724954990E-1,3.841496706E0,1.802235365E0,8.615534782E0
5.744885200E-1,3.510498285E0,1.811812162E0,9.094375610E0
5.764815410E-1,2.921524525E0,1.864484549E0,9.463082314E0
5.784745620E-1,2.279279947E0,1.960252643E0,9.693524361E0
5.804675830E-1,1.671152830E0,2.070385933E0,9.827599525E0
5.824606040E-1,1.143829823E0,2.199672699E0,9.865906715E0
5.844536240E-1,8.517372608E-1,2.237980127E0,9.856329918E0
5.864466450E-1,1.215655923E0,1.945887446E0,9.300276756E0
5.884396660E-1,9.139865041E-1,2.271498919E0,9.530718803E0
5.904326870E-1,8.613140583E-1,2.535459518E0,9.376891136E0
5.924257080E-1,6.410474777E-1,2.880224705E0,9.760561943E0
5.944187290E-1,5.357026458E-1,3.014299870E0,1.006701946E1
5.964117490E-1,4.734533727E-1,2.971204281E0,1.040699577E1
5.984047700E-1,3.579331636E-1,2.880224705E0,1.061289787E1
6.003977910E-1,2.477998734E-1,2.784456491E0,1.089601231E1
6.023908120E-1,2.274491638E-2,2.688688517E0,1.098220348E1
6.043838330E-1,-1.352723986E-1,2.597708941E0,1.103008747E1
6.063768540E-1,-2.645592988E-1,2.510919094E0,1.102529907E1
6.083698740E-1,-3.603273630E-1,2.439092875E0,1.094868469E1
6.103628950E-1,-4.273650050E-1,2.338536501E0,1.079066753E1
6.123559160E-1,-4.513070285E-1,2.233191729E0,1.054107189E1
6.143489370E-1,-3.890577853E-1,2.175730705E0,1.022024822E1
6.163419580E-1,-1.687912196E-1,2.151788712E0,9.818022728E0
6.183349790E-1,2.190694511E-1,2.218826532E0,9.257181168E0
6.203279990E-1,6.506243348E-1,2.271498919E0,8.735244751E0
6.223210200E-1,1.052850246E0,2.276287317E0,8.179191589E0
6.243140410E-1,1.531690478E0,2.376843691E0,7.561487675E0
6.263070620E-1,1.881842494E0,2.194884300E0,7.542334080E0
6.283000830E-1,2.063801765E0,2.046443939E0,7.465719223E0
6.302931040E-1,2.250549555E0,1.965041041E0,7.254431248E0
6.322861240E-1,2.284068346E0,1.888426542E0,7.101202011E0
6.342791450E-1,2.331952572E0,1.883638144E0,6.890512466E0
6.362721660E-1,2.533065319E0,1.917157054E0,6.828263283E0
6.382651870E-1,3.496133089E0,2.319382906E0,6.732495308E0
6.402582080E-1,3.606266260E0,2.367266893E0,6.540958881E0
6.422512290E-1,3.385999680E0,2.266710520E0,6.483498096E0
6.442442490E-1,3.141791105E0,2.166153908E0,6.526593685E0
6.462372700E-1,2.978985548E0,2.127846718E0,6.555324078E0
6.482302910E-1,2.926312923E0,2.051232338E0,6.588842869E0
6.502233120E-1,2.782660961E0,2.017713547E0,6.694188118E0
6.522163330E-1,2.585737944E0,2.017713547E0,6.828263283E0
6.542093540E-1,2.499546528E0,2.075174332E0,6.962338448E0
6.562023740E-1,2.408566952E0,2.190095901E0,7.091625214E0
6.581953950E-1,2.355894566E0,2.453458309E0,7.235277653E0
6.601884160E-1,2.451662540E0,2.861071110E0,7.456142426E0
6.621814370E-1,2.801814556E0,3.939060450E0,7.958924770E0
6.641744580E-1,2.725200176E0,4.446630955E0,8.160037994E0
6.661674790E-1,2.609679937E0,4.532822132E0,7.954136372E0
6.681604990E-1,2.691681147E0,4.657320976E0,7.662044048E0
6.701535200E-1,2.744353771E0,4.714781761E0,7.355586052E0
6.721465410E-1,2.806602955E0,4.700416565E0,7.077260017E0
6.741396140E-1,2.998139143E0,4.566341400E0,6.780379295E0
6.761326870E-1,3.017292738E0,4.451419353E0,6.512228489E0
6.781257600E-1,3.127425909E0,4.235941410E0,6.607996464E0
6.801188330E-1,3.266289711E0,4.020462990E0,6.655880928E0
6.821119060E-1,3.362057686E0,3.804985046E0,6.354211330E0
6.841049790E-1,3.261501312E0,3.728370667E0,6.454767704E0
6.860980520E-1,3.141791105E0,3.612850428E0,6.387730122E0
6.880911240E-1,3.103483915E0,3.454833031E0,6.234501362E0
6.900841970E-1,3.074753523E0,3.282450438E0,6.118980885E0
6.920772700E-1,3.069965124E0,3.167528868E0,6.109404087E0
6.940703430E-1,3.050811529E0,3.057395458E0,6.205770969E0
6.960634160E-1,3.046023130E0,2.952050686E0,6.229712963E0
6.980564890E-1,3.046023130E0,2.952050686E0,6.454767704E0
7.000495620E-1,2.945466757E0,3.268085241E0,6.971915245E0
7.020426350E-1,2.820968151E0,3.459621429E0,7.211335659E0
7.040357080E-1,2.797026157E0,3.363853455E0,6.909666061E0
7.060287810E-1,2.777872562E0,3.325546265E0,6.689399719E0
7.080218540E-1,2.825756550E0,3.287238836E0,6.540958881E0
7.100149270E-1,2.873640537E0,3.258508444E0,6.387730122E0
7.120079990E-1,2.897582531E0,3.181894064E0,6.215347767E0
7.140010720E-1,2.902370930E0,3.177105665E0,6.148310184E0
7.159941450E-1,2.964620352E0,3.110068083E0,5.999270916E0
7.179872180E-1,2.983773947E0,3.086126089E0,5.965752125E0
7.199802910E-1,3.069965124E0,3.023876667E0,5.846042156E0
7.219733640E-1,3.160944700E0,2.952050686E0,5.688024521E0
7.239664370E-1,3.242347717E0,2.947262287E0,5.601833344E0
7.259595100E-1,3.385999680E0,2.870647907E0,5.515642166E0
7.279525830E-1,3.534440279E0,2.808398485E0,5.477334976E0
7.299456560E-1,3.716399670E0,2.703053713E0,5.477334976E0
7.319387290E-1,3.903745890E0,2.612074137E0,5.558737755E0
7.339318020E-1,4.066551685E0,2.554613113E0,5.659294128E0
7.359248220E-1,4.238934040E0,2.496553898E0,5.788581371E0
7.379178430E-1,4.392162800E0,2.424727678E0,5.975328922E0
7.399108640E-1,4.564545631E0,2.400785685E0,6.172252178E0
7.419038850E-1,4.712985992E0,2.362478495E0,6.354211330E0
7.438969060E-1,4.827907562E0,2.328959703E0,6.598419666E0
7.458899270E-1,4.943428040E0,2.309806108E0,6.751648903E0
7.478829470E-1,5.024830818E0,2.300229311E0,6.943184853E0
7.498759680E-1,5.130175591E0,2.271498919E0,7.110779285E0
7.518689890E-1,5.235520363E0,2.247556925E0,7.235277653E0
7.538620100E-1,5.350442410E0,2.218826532E0,7.379528046E0
7.558550310E-1,5.484517574E0,2.166153908E0,7.575852871E0
7.578480520E-1,5.637746334E0,2.151788712E0,7.772177219E0
7.598410720E-1,5.767033577E0,2.094327927E0,7.978078842E0
7.618340930E-1,5.905897141E0,2.041655540E0,8.203133583E0
7.638271140E-1,5.992088318E0,1.974617839E0,8.400056839E0
7.658201350E-1,6.054935932E0,1.926733851E0,8.601169586E0
7.678131560E-1,6.078877926E0,1.864484549E0,8.783128738E0
7.698061770E-1,6.102819920E0,1.840542555E0,8.941145897E0
7.717991970E-1,6.078877926E0,1.763928056E0,9.051279068E0
7.737922180E-1,6.064512730E0,1.730409265E0,9.137471199E0
7.757852390E-1,6.030395508E0,1.706467271E0,9.233239174E0
7.777782600E-1,6.006453514E0,1.658583283E0,9.271546364E0
7.797712810E-1,5.944204330E0,1.639429569E0,9.329007149E0
7.817643020E-1,5.896320343E0,1.586757183E0,9.376891136E0
7.837573220E-1,5.867589951E0,1.558026791E0,9.448717117E0
7.857503430E-1,5.834071159E0,1.505354285E0,9.491812706E0
7.877433640E-1,5.786187172E0,1.495777488E0,9.530718803E0
7.897363850E-1,5.714360714E0,1.471835494E0,9.621698380E0
7.917294060E-1,5.647323132E0,1.447893500E0,9.674370766E0
7.937224270E-1,5.565920353E0,1.423951507E0,9.683947563E0
7.957154470E-1,5.494094372E0,1.419163108E0,9.698312759E0
7.977084680E-1,5.436633587E0,1.380257249E0,9.693524361E0
7.997014890E-1,5.374384403E0,1.399410844E0,9.712677956E0
8.016945100E-1,5.331288815E0,1.394622445E0,9.693524361E0
8.036875310E-1,5.307346821E0,1.394622445E0,9.707889557E0
8.056805520E-1,5.302558422E0,1.404797792E0,9.712677956E0
8.076735720E-1,5.326500416E0,1.428739905E0,9.688735962E0
8.096665930E-1,5.360019207E0,1.443105102E0,9.597756386E0
8.116596140E-1,5.407903194E0,1.457470298E0,9.472659111E0
8.136526350E-1,5.484517574E0,1.467047095E0,9.362525940E0
8.156456560E-1,5.589862347E0,1.486200690E0,9.209297180E0
8.176386770E-1,5.723937511E0,1.486200690E0,9.075222015E0
8.196316970E-1,5.872378349E0,1.500565886E0,8.945934296E0
8.216247180E-1,6.044760704E0,1.481412292E0,8.869319916E0
8.236177390E-1,6.203376770E0,1.471835494E0,8.816647530E0
8.256107600E-1,6.394912720E0,1.438316703E0,8.864531517E0
8.276037810E-1,6.552929878E0,1.404797792E0,8.931569099E0
8.295968020E-1,6.667851925E0,1.346738458E0,9.060855865E0
8.315898220E-1,6.777985096E0,1.289277673E0,9.204508781E0
8.335828430E-1,6.883329868E0,1.236605167E0,9.333795547E0
8.355758640E-1,6.940790653E0,1.155202270E0,9.491812706E0
8.375688850E-1,7.012616634E0,1.078587890E0,9.650428772E0
8.395619060E-1,7.089231014E0,1.011550188E0,9.851541519E0
8.415549270E-1,7.137115479E0,9.349357486E-1,1.002871227E1
8.435479470E-1,7.171232700E0,8.822633028E-1,1.019630623E1
8.455409680E-1,7.199963093E0,8.104372621E-1,1.034953499E1
8.475339890E-1,7.223905087E0,7.625532150E-1,1.047882271E1
8.495270100E-1,7.247847080E0,7.146692276E-1,1.060810947E1
8.515200310E-1,7.233481884E0,6.667851806E-1,1.068532181E1
8.535130520E-1,7.243058681E0,6.284779310E-1,1.077630138E1
8.555060720E-1,7.233481884E0,5.853823423E-1,1.081460953E1
8.574990930E-1,7.286154270E0,5.374982953E-1,1.081939793E1
8.594921140E-1,7.295731068E0,5.183446407E-1,1.085291672E1
8.614851350E-1,7.314884663E0,4.560954273E-1,1.084333992E1
8.634781560E-1,7.357980251E0,4.129997790E-1,1.085770512E1
8.654711770E-1,7.396287441E0,3.603273630E-1,1.087685871E1
8.674641970E-1,7.439383030E0,3.172317147E-1,1.091037750E1
8.694572180E-1,7.511209488E0,2.639607489E-1,1.095826149E1
8.714502390E-1,7.544728279E0,2.160767019E-1,1.105402946E1
8.734432600E-1,7.563881874E0,1.873462796E-1,1.112585545E1
8.754362810E-1,7.592612267E0,1.634042710E-1,1.121204662E1
8.774293020E-1,7.626131058E0,1.586158574E-1,1.126471901E1
8.794223220E-1,7.630919456E0,1.394622475E-1,1.128387260E1
8.814153430E-1,7.626131058E0,1.490390599E-1,1.125514221E1
8.834083640E-1,7.611765862E0,1.586158574E-1,1.118331623E1
8.854013850E-1,7.602189064E0,2.017114908E-1,1.107318306E1
8.873944060E-1,7.587823868E0,2.208651006E-1,1.094868469E1
8.893874270E-1,7.573458672E0,2.687491477E-1,1.081939793E1
8.913804470E-1,7.568670273E0,3.028665185E-1,1.068532181E1
8.933734680E-1,7.530363083E0,3.507505357E-1,1.058895588E1
8.953664890E-1,7.472901821E0,3.746925592E-1,1.048839951E1
8.973595100E-1,7.425017834E0,4.225766063E-1,1.037826538E1
8.993525310E-1,7.357980251E0,4.752490520E-1,1.028728580E1
9.013455520E-1,7.286154270E0,5.087678432E-1,1.020109463E1
9.033385720E-1,7.252635479E0,5.470750928E-1,1.011490345E1
9.053315930E-1,7.209539890E0,5.758054852E-1,1.002871227E1
9.073246140E-1,7.190386295E0,5.901707411E-1,9.928155899E0
9.093176350E-1,7.190386295E0,6.093243361E-1,9.841964722E0
9.113106560E-1,7.190386295E0,6.045359373E-1,9.784503937E0
9.133036770E-1,7.190386295E0,6.284779310E-1,9.736619949E0
9.152966970E-1,7.199963093E0,6.189011335E-1,9.679159164E0
9.172897180E-1,7.204751492E0,5.997475386E-1,9.655217171E0
9.192827390E-1,7.185597897E0,5.901707411E-1,9.621698380E0
9.212757600E-1,7.171232700E0,5.662286878E-1,9.612121582E0
9.232687810E-1,7.161057472E0,5.422866940E-1,9.564237595E0
9.252618020E-1,7.156269073E0,5.135562420E-1,9.559449196E0
9.272548220E-1,7.141903877E0,4.896142483E-1,9.569025993E0
9.292478430E-1,7.127538681E0,4.608838260E-1,9.569025993E0
9.312408640E-1,7.122750282E0,4.273650050E-1,9.588179588E0
9.332338850E-1,7.141903877E0,3.890577853E-1,9.626486778E0
9.352269060E-1,7.132327080E0,3.746925592E-1,9.688735962E0
9.372199270E-1,7.132327080E0,3.507505357E-1,9.774927139E0
9.392129470E-1,7.151480675E0,3.076549172E-1,9.856329918E0
9.412059680E-1,7.127538681E0,2.687491477E-1,9.918579102E0
9.431989890E-1,7.070077419E0,2.495955229E-1,9.952097893E0
9.451920100E-1,7.026981831E0,2.304419130E-1,9.999981880E0
9.471850310E-1,6.969521046E0,1.825578809E-1,1.001434708E1
9.491780520E-1,6.926425457E0,1.729810685E-1,1.002392387E1
9.511710720E-1,6.878541470E0,1.490390599E-1,9.980828285E0
9.531640930E-1,6.849811077E0,1.538274586E-1,9.990405083E0
9.551571140E-1,6.825869083E0,1.490390599E-1,9.928155899E0
9.571501350E-1,6.821080685E0,1.203086376E-1,9.885060310E0
9.591431560E-1,6.806715488E0,1.538274586E-1,9.818022728E0
9.611361770E-1,6.806715488E0,1.586158574E-1,9.707889557E0
9.631291970E-1,6.835445881E0,2.017114908E-1,9.607333183E0
9.651222180E-1,6.840234280E0,2.160767019E-1,9.482235909E0
9.671152910E-1,6.897695065E0,2.591723204E-1,9.343372345E0
9.691083640E-1,6.959944248E0,2.837128937E-1,9.204508781E0
9.711014370E-1,7.007828236E0,3.315969408E-1,9.084798813E0
9.730945100E-1,7.055712223E0,3.555389643E-1,8.989029884E0
9.750875830E-1,7.089231014E0,3.986345828E-1,8.912415504E0
9.770806560E-1,7.113173485E0,4.465186298E-1,8.831012726E0
9.790737290E-1,7.137115479E0,5.039794445E-1,8.754398346E0
9.810668020E-1,7.165845871E0,5.422866940E-1,8.663418770E0
9.830598740E-1,7.180809498E0,5.758054852E-1,8.582015991E0
9.850529470E-1,7.214328289E0,6.236895323E-1,8.462306023E0
9.870460200E-1,7.262212276E0,6.476315856E-1,8.337208748E0
9.890390930E-1,7.300519466E0,6.667851806E-1,8.231863976E0
9.910321660E-1,7.348403454E0,7.146692276E-1,8.136096001E0
9.930252390E-1,7.420229435E0,6.955155730E-1,8.045116425E0
9.950183120E-1,7.463325024E0,7.098808289E-1,7.997232437E0
9.970113850E-1,7.530363083E0,7.194576263E-1,7.930194378E0
9.990044580E-1,7.597400665E0,7.290344238E-1,7.901463985E0
1.000997531E0,7.650073051E0,7.290344238E-1,7.858368397E0
1.002990604E0,7.664438248E0,7.386112213E-1,7.867945194E0
1.004983677E0,7.717110634E0,7.433996201E-1,7.863156796E0
1.006976749E0,7.764994621E0,7.481880188E-1,7.872733593E0
1.008969822E0,7.808090210E0,7.481880188E-1,7.867945194E0
1.010962895E0,7.875127792E0,7.290344238E-1,7.839214802E0
1.012955968E0,7.966107368E0,7.146692276E-1,7.839214802E0
1.014949041E0,8.047510147E0,7.194576263E-1,7.820061207E0
1.016942114E0,8.138489723E0,6.763619781E-1,7.815272808E0
1.018935187E0,8.195950508E0,6.428431273E-1,7.815272808E0
1.020928260E0,8.262989044E0,6.189011335E-1,7.810484409E0
1.022921333E0,8.321047783E0,5.805938840E-1,7.820061207E0
1.024914406E0,8.407238960E0,5.470750928E-1,7.839214802E0
1.026907479E0,8.479064941E0,5.183446407E-1,7.853579998E0
1.028900499E0,8.574832916E0,4.656722248E-1,7.887098789E0
1.030893520E0,8.637083054E0,4.177882075E-1,7.939771175E0
1.032886541E0,8.718485832E0,3.890577853E-1,7.963713169E0
1.034879562E0,8.785523415E0,3.507505357E-1,7.997232437E0
1.036872583E0,8.809465408E0,3.124433160E-1,8.021174431E0
1.038865604E0,8.838195801E0,3.028665185E-1,8.021174431E0
1.040858624E0,8.866926193E0,2.837128937E-1,8.016386032E0
1.042851645E0,8.852560997E0,2.885012925E-1,7.987655640E0
1.044844666E0,8.862137794E0,3.220201433E-1,7.968502045E0
1.046837687E0,8.852560997E0,3.507505357E-1,7.944559574E0
1.048830708E0,8.862137794E0,3.555389643E-1,7.925405979E0
1.050823729E0,8.866926193E0,4.225766063E-1,7.915829182E0
1.052816749E0,8.876502991E0,4.608838260E-1,7.887098789E0
1.054809770E0,8.886079788E0,4.944026470E-1,7.872733593E0
1.056802791E0,8.881291389E0,5.470750928E-1,7.848791599E0
1.058795812E0,8.866926193E0,5.758054852E-1,7.824849606E0
1.060788833E0,8.857349396E0,6.332663298E-1,7.805696011E0
1.062781854E0,8.814253807E0,6.811503768E-1,7.743446827E0
1.064774874E0,8.814253807E0,7.338228226E-1,7.700351238E0
1.066767895E0,8.795100212E0,7.960720658E-1,7.638102055E0
1.068760916E0,8.775946617E0,8.487445116E-1,7.566276073E0
1.070753937E0,8.737639427E0,8.918401599E-1,7.504026890E0
1.072746958E0,8.680178642E0,9.493009448E-1,7.398681641E0
1.074739979E0,8.608352661E0,9.923965931E-1,7.312490463E0
1.076732999E0,8.503006935E0,1.045069098E0,7.187393665E0
1.078726020E0,8.412027359E0,1.097741485E0,7.062894821E0
1.080719041E0,8.262989044E0,1.121683478E0,6.947973251E0
1.082712062E0,8.090605736E0,1.155202270E0,6.837840080E0
1.084705083E0,7.951742172E0,1.179144382E0,6.684611320E0
1.086698104E0,7.812878609E0,1.193509579E0,6.579266071E0
1.088691124E0,7.635707855E0,1.222239971E0,6.488286495E0
1.090684145E0,7.496844292E0,1.241393566E0,6.363788128E0
1.092677166E0,7.338826656E0,1.255758762E0,6.258443356E0
1.094670187E0,7.204751492E0,1.265335560E0,6.167463779E0
1.096663208E0,7.089231014E0,1.279700756E0,6.075885296E0
1.098656229E0,7.007828236E0,1.313219666E0,5.980117321E0
1.100649249E0,6.964732647E0,1.341950059E0,5.889137745E0
1.102642270E0,6.921637058E0,1.375468850E0,5.826888561E0
1.104635291E0,6.945579052E0,1.380257249E0,5.802946568E0
1.106628312E0,6.988674641E0,1.404797792E0,5.764639378E0
1.108621333E0,7.084442616E0,1.375468850E0,5.783792973E0
1.110614354E0,7.195174694E0,1.322796464E0,5.783792973E0
1.112607374E0,7.329249859E0,1.294066072E0,5.798158169E0
1.114600395E0,7.468113422E0,1.246181965E0,5.812523365E0
1.116593416E0,7.645284653E0,1.203086376E0,5.831676960E0
1.118586437E0,7.846397400E0,1.150413871E0,5.822100163E0
1.120579458E0,8.057086945E0,1.107318282E0,5.793369770E0
1.122572479E0,8.267777443E0,1.049857497E0,5.755062103E0
1.124565499E0,8.469488144E0,9.684545994E-1,5.664082527E0
1.126558520E0,8.680178642E0,8.822633028E-1,5.577891350E0
1.128551541E0,8.871714592E0,8.008604646E-1,5.491700172E0
1.130544562E0,9.053673744E0,6.907271743E-1,5.443816185E0
1.132537583E0,9.245209694E0,5.901707411E-1,5.429450989E0
1.134530604E0,9.432556152E0,4.417302012E-1,5.443816185E0
1.136523624E0,9.604938507E0,3.076549172E-1,5.429450989E0
1.138516645E0,9.782109261E0,1.346738487E-1,5.501276970E0
1.140509666E0,9.930550575E0,-2.813187055E-2,5.573102951E0
1.142502687E0,1.009335613E1,-2.005143911E-1,5.649717331E0
1.144495708E0,1.019870090E1,-3.393780887E-1,5.716754913E0
1.146488729E0,1.022264290E1,-4.303577542E-1,5.788581371E0
1.148481749E0,1.023700809E1,-4.495113790E-1,5.831676960E0
1.150474770E0,1.028968048E1,-4.734533727E-1,5.865195751E0
1.152467791E0,1.032319927E1,-4.878185987E-1,5.879560947E0
1.154460812E0,1.037587166E1,-4.686649740E-1,5.889137745E0
1.156453833E0,1.039981365E1,-4.399345517E-1,5.917868137E0
1.158446854E0,1.043812084E1,-4.303577542E-1,5.917868137E0
1.160439874E0,1.048121643E1,-3.728969097E-1,5.908291340E0
1.162432895E0,1.052910042E1,-3.106476665E-1,5.865195751E0
1.164425916E0,1.056800652E1,-2.483984232E-1,5.850830555E0
1.166418937E0,1.061110210E1,-1.957259923E-1,5.798158169E0
1.168411958E0,1.061589050E1,-1.526303589E-1,5.726331711E0
1.170404979E0,1.058716011E1,-8.559270948E-2,5.625775337E0
1.172397999E0,1.053388882E1,-2.334346622E-2,5.544372559E0
1.174391020E0,1.042854404E1,4.848258570E-2,5.429450989E0
1.176384041E0,1.031841087E1,1.203086376E-1,5.304952621E0
1.178377062E0,1.019391251E1,1.634042710E-1,5.209184170E0
1.180370083E0,1.004547215E1,2.064998895E-1,5.070320606E0
1.182363104E0,9.901819229E0,2.591723204E-1,4.969165802E0
1.184356124E0,9.691129684E0,2.932897210E-1,4.844666958E0
1.186349145E0,9.437344551E0,3.315969408E-1,4.777629375E0
1.188342166E0,9.178172112E0,3.555389643E-1,4.691438198E0
1.190335187E0,8.948328972E0,3.794809580E-1,4.610035419E0
1.192328208E0,8.684967041E0,4.034229815E-1,4.533421040E0
1.194321229E0,8.450334549E0,4.225766063E-1,4.466383457E0
1.196314249E0,8.282142639E0,4.321534038E-1,4.394556999E0
1.198307270E0,8.138489723E0,4.369418025E-1,4.308365822E0
1.200300291E0,8.052298546E0,4.369418025E-1,4.236539841E0
1.202293312E0,7.946953773E0,4.560954273E-1,4.140771866E0
1.204286333E0,7.894281387E0,4.608838260E-1,4.040215492E0
1.206279354E0,7.851185799E0,4.704606235E-1,3.939658880E0
1.208272374E0,7.827243805E0,4.752490520E-1,3.800196648E0
1.210265395E0,7.793725014E0,4.944026470E-1,3.666121244E0
1.212258416E0,7.731475830E0,5.279214978E-1,3.527257681E0
1.214251437E0,7.674015045E0,5.614402890E-1,3.374028683E0
1.216244458E0,7.640496254E0,5.853823423E-1,3.259107113E0
1.218237479E0,7.606977463E0,5.949591398E-1,3.144185305E0
1.220230499E0,7.611765862E0,6.045359373E-1,3.072359324E0
1.222223520E0,7.635707855E0,6.428431273E-1,3.005321741E0
1.224216541E0,7.635707855E0,6.380547285E-1,2.943072557E0
1.226209562E0,7.674015045E0,6.380547285E-1,2.885611534E0
1.228202583E0,7.683591843E0,6.476315856E-1,2.876034737E0
1.230195604E0,7.731475830E0,6.428431273E-1,2.871246338E0
1.232188624E0,7.760206223E0,6.380547285E-1,2.856881142E0
1.234181645E0,7.841609001E0,6.524199843E-1,2.852092743E0
1.236174718E0,7.932588577E0,6.476315856E-1,2.837727547E0
1.238167791E0,8.052298546E0,6.284779310E-1,2.789843559E0
1.240160864E0,8.143278122E0,6.141127348E-1,2.755726099E0
1.242153937E0,8.224681854E0,5.901707411E-1,2.688688517E0
1.244147010E0,8.297105789E0,5.949591398E-1,2.636016130E0
1.246140083E0,8.354566574E0,5.949591398E-1,2.597708941E0
1.248133156E0,8.407238960E0,5.853823423E-1,2.573766708E0
1.250126229E0,8.474276543E0,5.566518903E-1,2.511517525E0
1.252119302E0,8.546102524E0,5.422866940E-1,2.477998734E0
1.254112374E0,8.584410667E0,5.470750928E-1,2.444479942E0
1.256105447E0,8.637083054E0,5.327098966E-1,2.449268341E0
1.258098520E0,8.689755440E0,5.183446407E-1,2.434903145E0
1.260091593E0,8.728062630E0,4.848258495E-1,2.410961151E0
1.262084666E0,8.761581421E0,4.608838260E-1,2.396595955E0
1.264077739E0,8.775946617E0,4.417302012E-1,2.377442360E0
1.266070812E0,8.814253807E0,4.177882075E-1,2.358288765E0
1.268063885E0,8.838195801E0,3.938461840E-1,2.315192938E0
1.270056958E0,8.847772598E0,3.746925592E-1,2.300827742E0
1.272050031E0,8.852560997E0,3.411737382E-1,2.262520552E0
1.274043104E0,8.871714592E0,3.411737382E-1,2.233790159E0
1.276036177E0,8.842984200E0,3.268085420E-1,2.233790159E0
1.278029249E0,8.809465408E0,3.076549172E-1,2.214636564E0
1.280022322E0,8.752004623E0,2.885012925E-1,2.185906172E0
1.282015395E0,8.713697433E0,2.783259451E-1,2.181117773E0
1.284008468E0,8.622717857E0,2.639607489E-1,2.205059767E0
1.286001541E0,8.507795334E0,2.400187254E-1,2.214636564E0
1.287994614E0,8.378508568E0,2.160767019E-1,2.262520552E0
1.289987687E0,8.229470253E0,2.017114908E-1,2.305616140E0
1.291980760E0,8.085817337E0,1.586158574E-1,2.391807556E0
1.293973833E0,7.942165375E0,1.250970364E-1,2.454056740E0
1.295966906E0,7.827243805E0,7.242459804E-2,2.506729126E0
1.297959979E0,7.693168640E0,2.932897024E-2,2.592920542E0
1.299952999E0,7.568670273E0,-3.770867735E-2,2.669534922E0
1.301946020E0,7.506421089E0,-9.038111567E-2,2.712630510E0
1.303939041E0,7.401075840E0,-1.574187577E-1,2.750937700E0
1.305932062E0,7.353191853E0,-2.436100245E-1,2.736572504E0
1.307925083E0,7.314884663E0,-3.202244639E-1,2.717418909E0
1.309918104E0,7.252635479E0,-3.776853085E-1,2.703053713E0
1.311911124E0,7.233481884E0,-4.399345517E-1,2.621650934E0
1.313904145E0,7.257423878E0,-4.973953962E-1,2.559401512E0
1.315897166E0,7.305307865E0,-5.692214370E-1,2.444479942E0
1.317890187E0,7.338826656E0,-6.171054840E-1,2.343923569E0
1.319883208E0,7.367557049E0,-6.649895310E-1,2.272097349E0
1.321876229E0,7.405864239E0,-7.176619768E-1,2.185906172E0
1.323869249E0,7.420229435E0,-7.511807680E-1,2.099714994E0
1.325862270E0,7.463325024E0,-7.703344226E-1,2.042253971E0
1.327855291E0,7.496844292E0,-7.799112201E-1,1.984793186E0
1.329848312E0,7.535151482E0,-8.086416125E-1,1.922544003E0
1.331841333E0,7.621342659E0,-7.751228213E-1,1.817199111E0
1.333834354E0,7.693168640E0,-7.655459642E-1,1.707065821E0
1.335827374E0,7.769783020E0,-7.416039705E-1,1.591545582E0
1.337820395E0,7.836820602E0,-7.176619768E-1,1.495777488E0
1.339813416E0,7.903858185E0,-6.793547273E-1,1.419163108E0
1.341806437E0,7.975684643E0,-6.506243348E-1,1.376067400E0
1.343799458E0,8.071452141E0,-6.266822815E-1,1.356913805E0
1.345792479E0,8.181585312E0,-6.410474777E-1,1.380855799E0
1.347785499E0,8.325836182E0,-6.649895310E-1,1.447893500E0
1.349778520E0,8.435969353E0,-7.080851793E-1,1.558026791E0
1.351771541E0,8.546102524E0,-7.463923693E-1,1.697489023E0
1.353764562E0,8.670601845E0,-7.894880176E-1,1.817199111E0
1.355757583E0,8.809465408E0,-8.230068088E-1,1.936909199E0
1.357750604E0,8.929175377E0,-8.475474119E-1,2.027888775E0
1.359743624E0,9.039308548E0,-9.002198577E-1,2.104503393E0
1.361736645E0,9.163806915E0,-9.050082564E-1,2.138022184E0
1.363729666E0,9.269151688E0,-9.433154464E-1,2.157175779E0
1.365722687E0,9.360131264E0,-9.528923035E-1,2.142810583E0
1.367715708E0,9.432556152E0,-9.481038451E-1,2.166752577E0
1.369708729E0,9.466074944E0,-9.624691010E-1,2.195482969E0
1.371701749E0,9.542689323E0,-9.720458984E-1,2.214636564E0
1.373694770E0,9.643245697E0,-9.672574997E-1,2.190694571E0
1.375687791E0,9.729436874E0,-9.959878922E-1,2.200271368E0
1.377680812E0,9.777320862E0,-9.768342972E-1,2.200271368E0
1.379673833E0,9.849146843E0,-9.816226959E-1,2.257732153E0
1.381666854E0,9.892242432E0,-9.576807022E-1,2.353500366E0
1.383659874E0,9.954492569E0,-9.672574997E-1,2.430114746E0
1.385652895E0,9.983222961E0,-9.816226959E-1,2.492363930E0
1.387645916E0,9.997588158E0,-9.816226959E-1,2.554613113E0
1.389638937E0,9.992799759E0,-9.768342972E-1,2.592920542E0
1.391631958E0,1.002153015E1,-9.720458984E-1,2.607285738E0
1.393624979E0,1.000237656E1,-9.624691010E-1,2.616862535E0
1.395617999E0,9.992799759E0,-9.241618514E-1,2.655169725E0
1.397611020E0,9.964069366E0,-9.050082564E-1,2.688688517E0
1.399604041E0,9.935338974E0,-8.619126081E-1,2.707842112E0
1.401597062E0,9.973646164E0,-8.421604633E-1,2.712630510E0
1.403590083E0,9.997588158E0,-8.421604633E-1,2.741360903E0
1.405583104E0,1.001674175E1,-7.846996188E-1,2.765302896E0
1.407576124E0,1.003589535E1,-7.320271730E-1,2.765302896E0
1.409569145E0,1.004068375E1,-6.841431260E-1,2.698265314E0
1.411562166E0,1.001674175E1,-5.931634903E-1,2.583343744E0
1.413555187E0,9.978434563E0,-5.117605925E-1,2.468421936E0
1.415548208E0,9.954492569E0,-4.686649740E-1,2.387019157E0
1.417541229E0,9.944915771E0,-4.638765752E-1,2.276885748E0
1.419534249E0,9.892242432E0,-4.830302000E-1,2.181117773E0
1.421527270E0,9.767744064E0,-4.878185987E-1,2.147598982E0
1.423520291E0,9.695918083E0,-4.447229803E-1,2.056619167E0
1.425513312E0,9.609726906E0,-3.633201122E-1,1.927332401E0
1.427506333E0,9.552266121E0,-3.010708690E-1,1.836352706E0
1.429499354E0,9.504382133E0,-2.627636492E-1,1.783680320E0
1.431492374E0,9.427767754E0,-2.675520480E-1,1.683123827E0
1.433485395E0,9.278728485E0,-1.334767491E-1,1.629852772E0
1.435478416E0,9.273940086E0,-1.526303589E-1,1.371279001E0
1.437471437E0,9.307458878E0,-1.430535465E-1,1.237203717E0
1.439464458E0,9.159018517E0,-1.574187577E-1,1.155800819E0
1.441457479E0,9.063250542E0,-1.430535465E-1,1.088763237E0
1.443450499E0,8.943540573E0,-1.909375787E-1,1.079186440E0
1.445443520E0,8.799888611E0,-2.388216257E-1,1.112705231E0
1.447436541E0,8.589199066E0,-3.537433147E-1,1.155800819E0
1.449429562E0,8.397662163E0,-4.973953962E-1,1.241992116E0
1.451422583E0,8.277354240E0,-6.218938828E-1,1.323395014E0
1.453415604E0,8.195950508E0,-7.128735781E-1,1.390432596E0
1.455408624E0,8.152854919E0,-7.846996188E-1,1.524507880E0
1.457401645E0,8.162431717E0,-8.086416125E-1,1.634641171E0
1.459394666E0,8.195950508E0,-8.421604633E-1,1.750161409E0
1.461387687E0,8.224681854E0,-8.667010069E-1,1.879448295E0
1.463380708E0,8.262989044E0,-8.906430602E-1,2.056619167E0
1.465373729E0,8.316259384E0,-9.481038451E-1,2.262520552E0
1.467366749E0,8.368931770E0,-9.481038451E-1,2.506729126E0
1.469359770E0,8.455122948E0,-7.655459642E-1,2.765302896E0
1.471352791E0,8.742427826E0,-6.697779298E-1,2.842515945E0
1.473345812E0,9.230844498E0,-3.441664875E-1,3.350086689E0
1.475338833E0,9.326612473E0,1.490390599E-1,4.270058632E0
1.477331854E0,9.643245697E0,-5.740098357E-1,3.804985046E0
1.479324874E0,9.259574890E0,-7.416039705E-1,3.311779499E0
1.481317895E0,8.675390244E0,-6.506243348E-1,3.029263735E0
1.483310916E0,8.464699745E0,-5.117605925E-1,2.990956545E0
1.485303937E0,8.388085365E0,-3.058592677E-1,3.057994127E0
1.487296958E0,8.311470985E0,-1.526303589E-1,2.962226152E0
1.489289979E0,8.234258652E0,6.284779310E-2,2.780266762E0
1.491282999E0,8.090605736E0,3.172317147E-1,2.430114746E0
1.493276020E0,8.023568153E0,5.901707411E-1,1.960851192E0
1.495269093E0,7.985261440E0,9.062053561E-1,1.558026791E0
1.497262166E0,8.028356552E0,1.188721180E0,1.079186440E0
1.499255239E0,8.114547729E0,1.414374709E0,6.769605279E-1
1.501248312E0,8.191162109E0,1.644217968E0,3.124433160E-1
1.503241385E0,8.335412979E0,1.807023764E0,3.950432688E-2
1.505234458E0,8.526948929E0,1.955464244E0,-1.137245819E-1
1.507227531E0,8.747216225E0,2.070385933E0,-1.663970202E-1
1.509220604E0,8.919598579E0,2.123058319E0,-1.903390288E-1
1.511213677E0,9.082404137E0,2.137423515E0,-1.663970202E-1
1.513206749E0,9.187748909E0,2.113481522E0,-8.499415964E-2
1.515199822E0,9.278728485E0,2.036867142E0,7.302315533E-2
1.517192895E0,9.326612473E0,1.912368655E0,2.932897210E-1
1.519185968E0,9.398438454E0,1.807023764E0,5.620388389E-1
1.521179041E0,9.494805336E0,1.668160081E0,8.445546627E-1
1.523172114E0,9.590573311E0,1.514931083E0,1.141435623E0
1.525165187E0,9.719860077E0,1.365892053E0,1.467047095E0
1.527158260E0,9.930550575E0,1.231816769E0,1.788468719E0
1.529151333E0,1.015081692E1,1.069011092E0,2.090138197E0
1.531144406E0,1.037587166E1,9.205705523E-1,2.363077164E0
1.533137479E0,1.056800652E1,7.050924301E-1,2.592920542E0
1.535130552E0,1.074038887E1,5.470750928E-1,2.780266762E0
1.537123624E0,1.095586681E1,2.980781198E-1,2.943072557E0
1.539116697E0,1.107078838E1,6.763619930E-2,3.038840532E0
1.541109770E0,1.114261436E1,-1.526303589E-1,3.081936121E0
1.543102843E0,1.116655636E1,-3.154360652E-1,3.010110140E0
1.545095916E0,1.113303757E1,-4.878185987E-1,3.000533342E0
1.547088989E0,1.105642319E1,-6.745663285E-1,3.029263735E0
1.549082062E0,1.096544361E1,-8.475474119E-1,3.019686937E0
1.551075135E0,1.089361763E1,-1.024718285E0,3.062782526E0
1.553068208E0,1.085531044E1,-1.201889277E0,3.163338900E0
1.555061281E0,1.080742645E1,-1.403002143E0,3.211223125E0
1.557054354E0,1.074996567E1,-1.584961534E0,3.292625904E0
1.559047427E0,1.072123528E1,-1.747767210E0,3.397970676E0
1.561040447E0,1.063504410E1,-1.939303398E0,3.512892485E0
1.563033468E0,1.058716011E1,-2.107496023E0,3.666121244E0
1.565026489E0,1.048121643E1,-2.265513420E0,3.828927040E0
1.567019510E0,1.034235287E1,-2.351704597E0,4.102464676E0
1.569012531E0,1.017954731E1,-2.409165382E0,4.370615005E0
1.571005552E0,1.003589535E1,-2.471414804E0,4.629189014E0
1.572998572E0,9.964069366E0,-2.524087191E0,4.777629375E0
1.574991593E0,9.916184425E0,-2.557605982E0,4.878185749E0
1.576984614E0,9.858723640E0,-2.557605982E0,4.882974148E0
1.578977635E0,9.834781647E0,-2.576759577E0,4.830301762E0
1.580970656E0,9.810839653E0,-2.610278368E0,4.734533787E0
1.582963677E0,9.810839653E0,-2.600701571E0,4.547786236E0
1.584956697E0,9.825204849E0,-2.600701571E0,4.356249809E0
1.586949718E0,9.829993248E0,-2.571971178E0,4.145560265E0
1.588942739E0,9.849146843E0,-2.557605982E0,3.891774893E0
1.590935760E0,9.853935242E0,-2.552817583E0,3.666121244E0
1.592928781E0,9.863512039E0,-2.504933596E0,3.465008497E0
1.594921802E0,9.858723640E0,-2.480991602E0,3.302202702E0
1.596914822E0,9.849146843E0,-2.428318977E0,3.110666513E0
1.598907843E0,9.849146843E0,-2.370858192E0,2.938283920E0
1.600900864E0,9.868300438E0,-2.303820610E0,2.750937700E0
1.602893885E0,9.863512039E0,-2.255936623E0,2.602497339E0
1.604886906E0,9.892242432E0,-2.227206230E0,2.477998734E0
1.606879927E0,9.920972824E0,-2.174533606E0,2.358288765E0
1.608872947E0,9.959280968E0,-2.145803213E0,2.262520552E0
1.610865968E0,1.001195335E1,-2.126649618E0,2.185906172E0
1.612858989E0,1.008377934E1,-2.145803213E0,2.094926596E0
1.614852010E0,1.014124012E1,-2.169745207E0,2.023100376E0
1.616845031E0,1.027531528E1,-2.260725021E0,1.994369984E0
1.618838052E0,1.036629486E1,-2.346916199E0,1.927332401E0
1.620831072E0,1.044769764E1,-2.346916199E0,1.912967205E0
1.622824093E0,1.058237171E1,-2.366069794E0,2.013523579E0
1.624817114E0,1.068771648E1,-2.423530579E0,2.061407566E0
1.626810135E0,1.081700325E1,-2.485780001E0,2.032677174E0
1.628803156E0,1.091277122E1,-2.552817583E0,2.027888775E0
1.630796177E0,1.098938560E1,-2.610278368E0,2.013523579E0
1.632789197E0,1.099896240E1,-2.658162355E0,1.922544003E0
1.634782218E0,1.094150162E1,-2.691681147E0,1.769315004E0
1.636775239E0,1.090319443E1,-2.677315950E0,1.716642618E0
1.638768260E0,1.083136845E1,-2.662950754E0,1.750161409E0
1.640761281E0,1.074996567E1,-2.658162355E0,1.774103403E0
1.642754302E0,1.059194851E1,-2.615066767E0,1.802833915E0
1.644747322E0,1.045248604E1,-2.571971178E0,1.788468719E0
1.646740343E0,1.025616169E1,-2.471414804E0,1.754949808E0
1.648733364E0,1.005026054E1,-2.375646591E0,1.678335428E0
1.650726385E0,9.882665634E0,-2.303820610E0,1.562815189E0
1.652719406E0,9.710283279E0,-2.255936623E0,1.428739905E0
1.654712427E0,9.523535728E0,-2.193687201E0,1.342548609E0
1.656705447E0,9.379284859E0,-2.169745207E0,1.361702204E0
1.658698468E0,9.245209694E0,-2.093130827E0,1.380855799E0
1.660691489E0,9.130288124E0,-2.002151251E0,1.428739905E0
1.662684510E0,9.001001358E0,-1.896207690E0,1.505354285E0
1.664677531E0,8.871714592E0,-1.762132406E0,1.558026791E0
1.666670552E0,8.737639427E0,-1.632845521E0,1.654393315E0
1.668663572E0,8.603564262E0,-1.508347034E0,1.716642618E0
1.670656593E0,8.469488144E0,-1.412579060E0,1.793257117E0
1.672649614E0,8.359354973E0,-1.321599364E0,1.807622313E0
1.674642635E0,8.272565842E0,-1.244984865E0,1.817199111E0
1.676635656E0,8.229470253E0,-1.216254473E0,1.874659896E0
1.678628677E0,8.176796913E0,-1.182735682E0,1.860294700E0
1.680621697E0,8.157643318E0,-1.173158884E0,1.893813491E0
1.682614718E0,8.148066521E0,-1.158793569E0,1.941697598E0
1.684607739E0,8.100182533E0,-1.120486379E0,1.980004787E0
1.686600760E0,8.109759331E0,-1.106121182E0,2.018311977E0
1.688593781E0,8.138489723E0,-1.072602391E0,2.061407566E0
1.690586802E0,8.167220116E0,-1.043871999E0,2.090138197E0
1.692579822E0,8.277354240E0,-1.096544385E0,2.147598982E0
1.694572843E0,8.392873764E0,-1.120486379E0,2.138022184E0
1.696565864E0,8.488641739E0,-1.110909581E0,2.099714994E0
1.698558885E0,8.589199066E0,-1.130063176E0,2.123656988E0
1.700551906E0,8.708909035E0,-1.149216771E0,2.142810583E0
1.702544927E0,8.828619003E0,-1.192312479E0,2.161964178E0
1.704537947E0,8.933963776E0,-1.240196466E0,2.147598982E0
1.706530968E0,9.063250542E0,-1.278503656E0,2.195482969E0
1.708523989E0,9.163806915E0,-1.316810966E0,2.229001760E0
1.710517010E0,9.355342865E0,-1.374271750E0,2.305616140E0
1.712510031E0,9.571419716E0,-1.388636947E0,2.353500366E0
1.714503052E0,9.782109261E0,-1.412579060E0,2.434903145E0
1.716496072E0,9.944915771E0,-1.422155857E0,2.458845139E0
1.718489093E0,1.005983734E1,-1.407790542E0,2.540247917E0
1.720482114E0,1.019391251E1,-1.398213744E0,2.621650934E0
1.722475135E0,1.027531528E1,-1.278503656E0,2.645592928E0
1.724468156E0,1.030883408E1,-1.149216771E0,2.726995707E0
1.726461177E0,1.036629486E1,-1.115697980E0,2.837727547E0
1.728454197E0,1.042375565E1,-1.101332784E0,2.909553528E0
1.730447218E0,1.049079323E1,-1.053448796E0,2.866457939E0
1.732440239E0,1.048600483E1,-1.000776291E0,2.880823135E0
1.734433260E0,1.050037003E1,-9.528923035E-1,3.014898539E0
1.736426281E0,1.054885292E1,-9.768342972E-1,3.192069530E0
1.738419302E0,1.054406452E1,-7.751228213E-1,3.129820108E0
1.740412322E0,1.054885292E1,-6.123170853E-1,3.211223125E0
1.742405343E0,1.054406452E1,-5.979518890E-1,3.388393879E0
1.744398364E0,1.048600483E1,-6.218938828E-1,3.522469282E0
1.746391385E0,1.043333244E1,-5.883750916E-1,3.522469282E0
1.748384458E0,1.037108326E1,-5.883750916E-1,3.603872061E0
1.750377531E0,1.030883408E1,-5.596446395E-1,3.465008497E0
1.752370604E0,1.022264290E1,-4.878185987E-1,3.532046080E0
1.754363677E0,1.014124012E1,-4.351461530E-1,3.536834478E0
1.756356749E0,1.002631855E1,-4.207809567E-1,3.555988073E0
1.758349822E0,9.983222961E0,-3.106476665E-1,3.479373693E0
1.760342895E0,9.940127373E0,-1.909375787E-1,3.465008497E0
1.762335968E0,9.887454033E0,-9.038111567E-2,3.436278105E0
1.764329041E0,9.815628052E0,-2.334346622E-2,3.335721493E0
1.766322114E0,9.739013672E0,7.721300423E-2,3.283049107E0
1.768315187E0,9.662399292E0,1.634042710E-1,3.235165119E0
1.770308260E0,9.557054520E0,2.448071241E-1,3.148973703E0
1.772301333E0,9.432556152E0,4.369418025E-1,3.144185305E0
1.774294406E0,9.317035675E0,6.141127348E-1,3.182492495E0
1.776287479E0,9.264363289E0,7.817068696E-1,3.321356297E0
1.778280552E0,9.168595314E0,9.876081944E-1,3.350086689E0
1.780273624E0,9.216479301E0,1.112106681E0,3.263895512E0
1.782266697E0,9.336189270E0,1.255758762E0,3.177704096E0
1.784259770E0,9.528324127E0,1.370680451E0,3.038840532E0
1.786252843E0,9.753378868E0,1.433528304E0,2.808997154E0
1.788245916E0,9.863512039E0,1.505354285E0,2.626439333E0
1.790238989E0,9.930550575E0,1.596333981E0,2.367865562E0
1.792232062E0,1.012208652E1,1.749562860E0,2.066195965E0
1.794225135E0,1.017954731E1,1.912368655E0,1.908178806E0
1.796218208E0,1.022264290E1,2.041655540E0,1.740584612E0
1.798211281E0,1.021785450E1,2.170942307E0,1.490989089E0
1.800204354E0,1.026573849E1,2.319382906E0,1.318606615E0
1.802197427E0,1.031841087E1,2.453458309E0,1.208473325E0
1.804190499E0,1.036629486E1,2.564189911E0,1.064821243E0
1.806183572E0,1.042854404E1,2.626439333E0,1.045667648E0
1.808176645E0,1.039981365E1,2.607285738E0,1.083974838E0
1.810169718E0,1.040460205E1,2.607285738E0,1.165377736E0
1.812162791E0,1.057279491E1,2.564189911E0,1.179742932E0
1.814155812E0,1.054885292E1,2.453458309E0,1.352125406E0
1.816148833E0,9.748590469E0,2.103904724E0,1.912967205E0
1.818141854E0,9.662399292E0,2.218826532E0,2.003946781E0
1.820134874E0,9.542689323E0,2.381632090E0,1.869871497E0
1.822127895E0,9.221267700E0,2.467823505E0,1.975216389E0
1.824120916E0,8.819042206E0,2.621650934E0,2.013523579E0
1.826113937E0,8.617929459E0,2.726995707E0,1.869871497E0
1.828106958E0,8.301894188E0,2.899378300E0,1.927332401E0
1.830099979E0,8.013991356E0,3.086126089E0,1.836352706E0
1.832092999E0,7.726687431E0,3.287238836E0,1.922544003E0
1.834086020E0,7.501632690E0,3.564966440E0,2.109291792E0
1.836079041E0,7.377133846E0,3.718793869E0,2.176329374E0
1.838072062E0,7.185597897E0,3.996521235E0,2.272097349E0
1.840065083E0,7.041347027E0,4.283825397E0,2.343923569E0
1.842058104E0,7.026981831E0,4.422688961E0,2.353500366E0
1.844051124E0,7.223905087E0,4.053982258E0,2.343923569E0
1.846044145E0,6.663063526E0,4.350862980E0,2.229001760E0
1.848037166E0,6.931213856E0,3.972579241E0,2.530671120E0
1.850030187E0,6.342240334E0,4.226364613E0,2.463633537E0
1.852023208E0,6.260837555E0,4.111443043E0,2.358288765E0
1.854016229E0,6.069301128E0,4.020462990E0,2.099714994E0
1.856009249E0,6.212953568E0,3.512293816E0,1.438316703E0
1.858002270E0,6.160281181E0,3.023876667E0,5.333084464E-1
1.859995291E0,7.822455406E0,6.045359373E-1,-1.383249998E0
1.861988312E0,7.539939880E0,2.687491477E-1,-1.891419291E0
1.863981333E0,7.257423878E0,9.636662155E-2,-2.456450939E0
1.865974354E0,6.581660271E0,2.160767019E-1,-2.767697096E0
1.867967374E0,5.939415932E0,3.890577853E-1,-2.911947727E0
1.869960395E0,5.264250755E0,6.763619781E-1,-3.046023130E0
1.871953416E0,4.392162800E0,1.088164687E0,-3.151367903E0
1.873946437E0,3.601477861E0,1.562815189E0,-3.069965124E0
1.875939458E0,2.830544949E0,2.032078743E0,-2.829946518E0
1.877932479E0,2.173935175E0,2.491765499E0,-2.528276920E0
1.879925499E0,1.277905107E0,3.229778051E0,-2.178723574E0
1.881918520E0,-1.592144072E-1,4.259883404E0,-1.656189084E0
1.883911541E0,-1.975216389E0,5.596446514E0,-1.191713929E0
1.885904562E0,-3.690063477E0,6.995258808E0,-8.373720646E-1
1.887897583E0,-4.935647011E0,8.231863976E0,-8.086416125E-1
1.889890604E0,-5.941810131E0,9.429563522E0,-1.014542937E0
1.891883624E0,-6.722918510E0,1.048361111E1,-1.488594890E0
1.893876645E0,-7.240066051E0,1.145086861E1,-2.054224968E0
1.895869666E0,-6.885724068E0,1.190157700E1,-2.767697096E0
1.897862687E0,-6.157288074E0,1.207874775E1,-3.395576477E0
1.899855708E0,-5.472546577E0,1.222239971E1,-3.826532841E0
1.901848729E0,-4.289212227E0,1.192073059E1,-3.898358822E0
1.903841749E0,-2.813186884E0,1.133115768E1,-3.735553265E0
1.905834770E0,-1.596333981E0,1.068951225E1,-3.438672304E0
1.907827791E0,-2.980781198E-1,9.951498985E0,-3.098695517E0
1.909820812E0,6.410474777E-1,9.348160744E0,-2.719813108E0
1.911813833E0,1.167771935E0,8.954913139E0,-2.226607561E0
1.913806854E0,1.786074519E0,8.667608261E0,-1.469441295E0
1.915799874E0,2.533065319E0,8.418611526E0,-5.351040959E-1
1.917792895E0,3.764283657E0,7.891288757E0,3.363853395E-1
1.919785916E0,4.463989258E0,7.718906403E0,1.198896527E0
1.921778937E0,5.225943565E0,7.546523571E0,1.999158382E0
1.923771958E0,6.121973515E0,7.307103634E0,2.707842112E0
1.925764979E0,6.619967937E0,7.302315235E0,3.441066504E0
1.927757999E0,6.859387875E0,7.469909191E0,4.260481834E0
1.929751020E0,7.094019413E0,7.675810814E0,5.094262600E0
1.931744041E0,7.319673061E0,7.848193169E0,5.841253757E0
1.933737062E0,7.267000675E0,8.217498779E0,6.660669327E0
1.935730083E0,6.787561893E0,8.796895981E0,7.575852871E0
1.937723104E0,6.519411087E0,9.290699959E0,8.303689957E0
1.939716124E0,6.174646378E0,9.745597839E0,8.768763542E0
1.941709145E0,5.838859558E0,1.019570827E1,9.075222015E0
1.943702166E0,5.556343555E0,1.061768627E1,9.113529205E0
1.945695187E0,5.489305973E0,1.091935539E1,8.807070732E0
1.947688208E0,5.216366768E0,1.114441013E1,8.346785545E0
1.949681229E0,4.736927986E0,1.123538971E1,7.800907612E0
1.951674249E0,5.297770023E0,1.113962173E1,6.770802498E0
1.953667270E0,5.522824764E0,1.103906536E1,5.611410141E0
1.955660291E0,5.527613163E0,1.093850899E1,4.471171856E0
1.957653312E0,5.393537998E0,1.090020180E1,3.402759075E0
1.959646333E0,5.575497150E0,1.065599346E1,2.410961151E0
1.961639354E0,5.719149113E0,1.039263058E1,1.510142684E0
1.963632374E0,5.771821976E0,1.021486187E1,7.679402232E-1
1.965625395E0,5.273828030E0,1.029626465E1,3.411737382E-1
1.967618416E0,4.703409195E0,1.037766743E1,3.411737382E-1
1.969611437E0,4.885368347E0,1.026274586E1,-3.052607179E-1
1.971604458E0,4.765658379E0,1.031062984E1,-7.272387743E-1
1.973597479E0,4.808753967E0,1.023880386E1,-9.570821524E-1
1.975590499E0,4.871003151E0,1.014782429E1,-1.153406620E0
1.977583520E0,5.053561211E0,1.001374817E1,-1.311424017E0
1.979576541E0,5.245097160E0,9.889249802E0,-1.426345706E0
1.981569562E0,5.360019207E0,9.774328232E0,-1.560420990E0
1.983562583E0,5.436633587E0,9.750386238E0,-1.660977483E0
1.985555604E0,5.604227543E0,9.568427086E0,-1.617881775E0
1.987548624E0,5.872378349E0,9.396044731E0,-1.593939781E0
1.989541645E0,5.891531944E0,9.343372345E0,-1.546055794E0
1.991534718E0,6.160281181E0,9.170391083E0,-1.421557307E0
1.993527791E0,6.591237068E0,8.926182747E0,-1.301847219E0
1.995520864E0,7.074865818E0,8.696338654E0,-1.182137132E0
1.997513937E0,7.568670273E0,8.370727539E0,-1.115099430E0
1.999507010E0,8.066663742E0,8.015787125E0,-9.906009436E-1
2.001500083E0,8.584410667E0,7.560888767E0,-8.804676533E-1
2.003493156E0,8.799888611E0,7.110779285E0,-6.889315248E-1
2.005486229E0,8.574832916E0,6.458957672E0,-2.094926536E-1
2.007479302E0,8.627506256E0,5.888539314E0,1.735796183E-1
2.009472374E0,9.412803650E0,5.606023312E0,2.549824715E-1
2.011465447E0,9.959280968E0,5.357026100E0,3.363853395E-1
2.013458520E0,1.025137329E1,5.108029366E0,3.603273630E-1
2.015451593E0,1.042375565E1,4.868608952E0,2.789244950E-1
2.017444666E0,1.049558163E1,4.633378983E0,1.544260085E-1
2.019437739E0,1.056800652E1,4.494514942E0,3.471592441E-2
2.021430812E0,1.053388882E1,4.283825397E0,-6.105214357E-2
2.023423885E0,1.042854404E1,4.101866245E0,-1.616086215E-1
2.025416958E0,1.018912411E1,3.895964622E0,-3.052607179E-1
2.027410031E0,9.628880501E0,3.675698042E0,-3.866635859E-1
2.029403104E0,8.723274231E0,3.383007050E0,-4.824316502E-1
2.031396177E0,7.822455406E0,3.047818661E0,-6.362590790E-1
2.033389249E0,6.777985096E0,2.822763920E0,-1.186925530E0
2.035382322E0,6.011241913E0,2.631227732E0,-1.440710902E0
2.037375395E0,5.709572315E0,2.564189911E0,-1.426345706E0
2.039368468E0,5.886743546E0,2.636016130E0,-1.541267395E0
2.041361541E0,5.632957935E0,2.640804529E0,-1.805228114E0
2.043354614E0,5.178059578E0,2.515707493E0,-1.987187386E0
2.045347687E0,4.818330765E0,2.381632090E0,-2.183511972E0
2.047340760E0,4.569334030E0,2.247556925E0,-2.336740971E0
2.049333833E0,4.598064423E0,2.123058319E0,-2.566584110E0
2.051326906E0,4.741716385E0,2.051232338E0,-2.585737944E0
2.053319979E0,4.660313606E0,1.998559833E0,-2.552218914E0
2.055313052E0,4.425682068E0,1.859696150E0,-2.628833532E0
2.057306124E0,4.013879299E0,1.629852772E0,-2.595314741E0
2.059299145E0,3.606266260E0,1.471835494E0,-2.489969730E0
2.061292166E0,3.247136116E0,1.260547161E0,-2.303221941E0
2.063285187E0,2.940678120E0,1.112106681E0,-2.011129379E0
2.065278208E0,2.729988575E0,1.025915384E0,-1.766920805E0
2.067271229E0,2.561795712E0,9.684545994E-1,-1.574786186E0
2.069264249E0,2.346317768E0,9.588778019E-1,-1.411980510E0
2.071257270E0,2.059013367E0,9.971849918E-1,-1.287482023E0
2.073250291E0,1.776497602E0,1.030703783E0,-1.201290727E0
2.075243312E0,1.550844193E0,1.040280581E0,-1.062427044E0
2.077236333E0,1.234809518E0,1.116895080E0,-9.475052953E-1
2.079229354E0,1.004966140E0,1.155202270E0,-7.703344226E-1
2.081222374E0,8.182184100E-1,1.222239971E0,-5.590460896E-1
2.083215395E0,6.075286865E-1,1.337161660E0,-3.531447649E-1
2.085208416E0,4.153940082E-1,1.471835494E0,-1.424549967E-1
2.087201437E0,1.568202078E-1,1.558026791E0,1.197100850E-3
2.089194458E0,-5.865794048E-2,1.687313676E0,1.400607973E-1
2.091187479E0,-2.597708702E-1,1.840542555E0,2.837128937E-1
2.093180499E0,-4.896142483E-1,1.950675845E0,3.938461840E-1
2.095173520E0,-8.349778652E-1,2.118269920E0,5.764040351E-1
2.097166541E0,-1.012148738E0,2.204461098E0,6.386532784E-1
2.099159562E0,-1.194108129E0,2.333748102E0,8.014590144E-1
2.101152583E0,-1.337760210E0,2.400785685E0,9.355342984E-1
2.103145604E0,-1.553238392E0,2.545036316E0,1.007360339E0
2.105138624E0,-1.792658567E0,2.707842112E0,1.136647224E0
2.107131645E0,-2.018311977E0,2.870647907E0,1.198896527E0
2.109124666E0,-2.319981337E0,3.129221678E0,1.275510907E0
2.111117687E0,-2.530671120E0,3.335123062E0,1.371279001E0
2.113110708E0,-2.655169725E0,3.536235809E0,1.285087705E0
2.115103729E0,-2.707842112E0,3.718793869E0,1.323395014E0
2.117096749E0,-2.770091295E0,3.929483652E0,1.213261724E0
2.119089770E0,-2.889801502E0,4.135385036E0,1.160589218E0
2.121082791E0,-3.057994127E0,4.317344189E0,9.786299467E-1
2.123075812E0,-3.254318714E0,4.556764603E0,8.158242106E-1
2.125068833E0,-3.589506865E0,4.926070213E0,5.811924338E-1
2.127061854E0,-3.953425646E0,5.562927723E0,2.501940727E-1
2.129054874E0,-4.418499470E0,6.363189697E0,1.735796183E-1
2.131047895E0,-5.012261391E0,7.120356083E0,-1.041477770E-1
2.133040916E0,-5.644928932E0,7.920019150E0,-1.472434103E-1
2.135033937E0,-6.411672115E0,8.897452354E0,-1.376665980E-1
2.137026958E0,-7.048529625E0,1.010951710E1,-2.908954918E-1
2.139019979E0,-7.604583263E0,1.147002220E1,-6.123170853E-1
2.141012999E0,-8.308478355E0,1.284070206E1,-7.703344226E-1
2.143006020E0,-9.132682800E0,1.417247677E1,-9.379284978E-1
2.144999041E0,-9.885060310E0,1.531750393E1,-1.143829823E0
2.146992062E0,-1.064641666E1,1.651041412E1,-1.292270422E0
2.148985083E0,-1.137964058E1,1.774642181E1,-1.488594890E0
2.150978104E0,-1.199315453E1,1.904467773E1,-1.627458572E0
2.152971124E0,-1.235707378E1,2.038602829E1,-1.982398987E0
2.154964145E0,-1.260128212E1,2.168488312E1,-2.389413357E0
2.156957166E0,-1.282154846E1,2.282991028E1,-2.600103140E0
2.158950187E0,-1.323873806E1,2.391268730E1,-2.801215887E0
2.160943208E0,-1.331056404E1,2.487994576E1,-3.204040527E0
2.162936229E0,-1.319564247E1,2.583343697E1,-3.256712914E0
2.164929249E0,-1.308072090E1,2.666242790E1,-3.218405724E0
2.166922270E0,-1.299393082E1,2.745790291E1,-3.357269287E0
2.168915291E0,-1.287422085E1,2.820010567E1,-3.271078110E0
2.170908312E0,-1.261564732E1,2.878967667E1,-3.002927542E0
2.172901333E0,-1.195963573E1,2.914401817E1,-2.772485495E0
2.174894354E0,-1.141315937E1,2.946484184E1,-2.269703150E0
2.176887374E0,-1.059374428E1,2.960430336E1,-1.757344007E0
2.178880395E0,-9.601945877E0,2.960430336E1,-1.196502328E0
2.180873416E0,-8.538321495E0,2.948459435E1,-4.920084476E-1
2.182866437E0,-7.407660007E0,2.923978615E1,3.220201433E-1
2.184859458E0,-6.214748859E0,2.891896439E1,1.184531331E0
2.186852479E0,-4.959589005E0,2.849758339E1,1.936909199E0
2.188845499E0,-3.742735863E0,2.799420357E1,2.669534922E0
2.190838520E0,-2.501940727E0,2.743395996E1,3.302202702E0
2.192831541E0,-1.309029818E0,2.683481026E1,3.910928488E0
2.194824562E0,-1.256955862E-1,2.610637474E1,4.456806660E0
2.196817583E0,8.661024570E-1,2.534980774E1,4.820724964E0
2.198810604E0,1.762132406E0,2.445856667E1,5.113416195E0
2.200803624E0,2.509123325E0,2.344282532E1,5.218760967E0
2.202796645E0,3.055599928E0,2.240314293E1,5.175665379E0
2.204789666E0,3.409941673E0,2.128205872E1,5.089474201E0
2.206782687E0,3.654150248E0,2.012745476E1,4.882974148E0
2.208775708E0,3.740341663E0,1.895369720E1,4.667496204E0
2.210768729E0,3.611054659E0,1.782303619E1,4.447229862E0
2.212761749E0,3.453037500E0,1.674504662E1,4.193444252E0
2.214754770E0,3.247136116E0,1.570057583E1,3.958812475E0
2.216747791E0,3.031657934E0,1.475187397E1,3.718793869E0
2.218740812E0,2.888005733E0,1.387559605E1,3.455431700E0
2.220733833E0,2.797026157E0,1.298435402E1,3.263895512E0
2.222726854E0,2.628833532E0,1.214578533E1,3.053205729E0
2.224719874E0,2.509123325E0,1.137904167E1,2.856881142E0
2.226712895E0,2.351106167E0,1.060810947E1,2.640804529E0
2.228705916E0,2.207453966E0,9.941922188E0,2.391807556E0
2.230698989E0,2.087743998E0,9.314641953E0,2.099714994E0
2.232692062E0,1.972822189E0,8.720281601E0,1.922544003E0
2.234685135E0,1.905784607E0,8.179191589E0,1.683123827E0
2.236678208E0,1.810016513E0,7.661445618E0,1.567603588E0
2.238671281E0,1.604115129E0,7.292738438E0,1.414374709E0
2.240664354E0,1.426345706E0,6.990470409E0,1.194108129E0
2.242657427E0,1.507748485E0,6.516418457E0,9.690531492E-1
2.244650499E0,1.445499301E0,6.209960461E0,7.966706157E-1
2.246643572E0,1.435922503E0,5.922656536E0,6.147112846E-1
2.248636645E0,1.440710902E0,5.658695698E0,3.459621370E-1
2.250629718E0,1.287482023E0,5.495890141E0,1.879448295E-1
2.252622791E0,1.335366011E0,5.266046524E0,-3.232172132E-2
2.254615864E0,1.301847219E0,5.093664169E0,-2.621650994E-1
2.256608937E0,1.277905107E0,4.926070213E0,-4.058171809E-1
2.258602010E0,1.330577612E0,4.738723755E0,-5.781996846E-1
2.260595083E0,1.292270422E0,4.638167381E0,-7.607575655E-1
2.262588156E0,1.249174714E0,4.561553001E0,-9.235633016E-1
2.264581229E0,1.244386315E0,4.504091740E0,-1.052850246E0
2.266574302E0,1.215655923E0,4.465784550E0,-1.191713929E0
2.268567374E0,1.225232720E0,4.446630955E0,-1.321000814E0
2.270560447E0,1.177348733E0,4.475361347E0,-1.411980510E0
2.272553520E0,1.129464626E0,4.489726543E0,-1.517325282E0
2.274546593E0,1.124676228E0,4.489726543E0,-1.579574585E0
2.276539666E0,1.105522633E0,4.532822132E0,-1.680131078E0
2.278532739E0,1.124676228E0,4.580706596E0,-1.786074519E0
2.280525812E0,1.119887829E0,4.647744179E0,-1.848323703E0
2.282518885E0,1.153406620E0,4.729146957E0,-1.948880196E0
2.284511958E0,1.153406620E0,4.844666958E0,-2.011129379E0
2.286505031E0,1.153406620E0,4.988319397E0,-2.082955360E0
2.288498104E0,1.206079125E0,5.141548157E0,-2.130839586E0
2.290491177E0,1.301847219E0,5.404910564E0,-2.154781580E0
2.292484249E0,1.359308004E0,5.706579685E0,-2.236184359E0
2.294477322E0,1.397615194E0,6.056731701E0,-2.231395960E0
2.296470395E0,1.435922503E0,6.425438881E0,-2.236184359E0
2.298463416E0,1.421557307E0,6.770204067E0,-2.312798738E0
2.300456437E0,1.402403593E0,7.062894821E0,-2.346317768E0
2.302449458E0,1.364096403E0,7.359776020E0,-2.341529369E0
2.304442479E0,1.321000814E0,7.661445618E0,-2.336740971E0
2.306435499E0,1.249174714E0,7.963114738E0,-2.327163935E0
2.308428520E0,1.191713929E0,8.241440773E0,-2.308010340E0
2.310421541E0,1.124676228E0,8.528744698E0,-2.255337954E0
2.312414562E0,1.057638645E0,8.811261177E0,-2.221819162E0
2.314407583E0,9.666589499E-1,9.074623108E0,-2.145204782E0
2.316400604E0,9.235633016E-1,9.343372345E0,-2.082955360E0
2.318393624E0,8.613140583E-1,9.578003883E0,-1.977610588E0
2.320386645E0,8.086416125E-1,9.831789017E0,-1.910573006E0
2.322379666E0,7.511807680E-1,1.005205631E1,-1.795651317E0
2.324372687E0,7.224503756E-1,1.026753426E1,-1.684919477E0
2.326365708E0,6.745663285E-1,1.046445751E1,-1.541267395E0
2.328358729E0,6.410474777E-1,1.066557026E1,-1.416768909E0
2.330351749E0,6.171054840E-1,1.085231781E1,-1.244386315E0
2.332344770E0,5.835866928E-1,1.101991177E1,-1.086369038E0
2.334337791E0,5.500678420E-1,1.118271732E1,-8.613140583E-1
2.336330812E0,5.213374496E-1,1.130721569E1,-6.841431260E-1
2.338323833E0,5.404910445E-1,1.144608021E1,-4.201824069E-1
2.340316854E0,5.452794433E-1,1.153765774E1,-1.568202078E-1
2.342309874E0,5.548562407E-1,1.163342571E1,9.217676520E-2
2.344302895E0,5.740098357E-1,1.169567490E1,3.459621370E-1
2.346295916E0,6.123170853E-1,1.174355888E1,6.147112846E-1
2.348288937E0,6.266822815E-1,1.181059742E1,8.732850552E-1
2.350281958E0,6.937199235E-1,1.182017422E1,1.131858826E0
2.352274979E0,7.272387743E-1,1.184890461E1,1.390432596E0
2.354267999E0,8.086416125E-1,1.183932781E1,1.625064373E0
2.356261020E0,8.565256596E-1,1.183453941E1,1.821987510E0
2.358254041E0,8.421604633E-1,1.180102062E1,1.951274395E0
2.360247062E0,8.613140583E-1,1.174355888E1,2.075772762E0
2.362240083E0,8.948329091E-1,1.167652130E1,2.166752577E0
2.364233104E0,9.187749028E-1,1.159511852E1,2.200271368E0
2.366226124E0,8.852560520E-1,1.145565701E1,2.200271368E0
2.368219145E0,8.804676533E-1,1.135509968E1,2.147598982E0
2.370212166E0,8.565256596E-1,1.124017811E1,2.142810583E0
2.372205187E0,7.846996188E-1,1.112046814E1,2.061407566E0
2.374198208E0,7.511807680E-1,1.095287418E1,1.946485996E0
2.376191229E0,7.176619768E-1,1.084274101E1,1.836352706E0
2.378184249E0,7.032967210E-1,1.069430065E1,1.721431017E0
2.380177270E0,6.985083222E-1,1.055064869E1,1.615487576E0
2.382170291E0,6.602011323E-1,1.043572712E1,1.510142684E0
2.384163312E0,6.410474777E-1,1.030584145E1,1.385644197E0
2.386156333E0,6.841431260E-1,1.017176628E1,1.251568913E0
2.388149354E0,7.176619768E-1,1.003290176E1,1.107916832E0
2.390142374E0,7.463923693E-1,9.908403397E0,9.882067442E-1
2.392135395E0,7.607575655E-1,9.793481827E0,8.589198589E-1
2.394128416E0,8.182184100E-1,9.659406662E0,7.152677774E-1
2.396121437E0,8.708908558E-1,9.539696693E0,5.955576897E-1
2.398114458E0,9.139865041E-1,9.453505516E0,4.656722248E-1
2.400107479E0,9.953893423E-1,9.338583946E0,3.363853395E-1
2.402100499E0,1.062427044E0,9.256582260E0,2.262520641E-1
2.404093520E0,1.158195019E0,9.175179482E0,9.217676520E-2
2.406086541E0,1.105522633E0,9.112930298E0,2.992752194E-2
2.408079562E0,1.091157436E0,9.060257912E0,-3.232172132E-2
2.410072583E0,1.182137132E0,9.002797127E0,-1.376665980E-1
2.412065604E0,1.301847219E0,8.945336342E0,-2.334346622E-1
2.414058624E0,1.459864497E0,8.883087158E0,-3.387795389E-1
2.416051645E0,1.565807939E0,8.863933563E0,-4.537012279E-1
2.418044666E0,1.651999116E0,8.820837975E0,-5.303156972E-1
2.420037687E0,1.704671621E0,8.825626373E0,-6.123170853E-1
2.422030708E0,1.795651317E0,8.772953987E0,-7.032967210E-1
2.424023729E0,1.838746905E0,8.758588791E0,-7.416039705E-1
2.426016749E0,1.977610588E0,8.734646797E0,-8.134300113E-1
2.428009770E0,2.054224968E0,8.744223595E0,-9.187749028E-1
2.430002791E0,2.140416384E0,8.744223595E0,-9.810241461E-1
2.431995812E0,2.226607561E0,8.734646797E0,-1.052850246E0
2.433988833E0,2.164358377E0,8.749011993E0,-1.067215443E0
2.435981854E0,2.288856745E0,8.744223595E0,-1.158195019E0
2.437974874E0,2.341529369E0,8.801684380E0,-1.182137132E0
2.439967895E0,2.293645144E0,8.902240753E0,-1.162983418E0
2.441960916E0,2.327163935E0,8.964489937E0,-1.191713929E0
2.443953937E0,2.365471363E0,9.002797127E0,-1.220444322E0
2.445946958E0,2.442085743E0,9.050681114E0,-1.306635618E0
2.447939979E0,2.533065319E0,9.093776703E0,-1.349731207E0
2.449932999E0,2.566584110E0,9.146449089E0,-1.378461599E0
2.451926020E0,2.580949545E0,9.208698273E0,-1.373673201E0
2.453919041E0,2.604891539E0,9.276334763E0,-1.368884802E0
2.455912062E0,2.609679937E0,9.343372345E0,-1.392826796E0
2.457905083E0,2.633621931E0,9.415198326E0,-1.407191992E0
2.459898104E0,2.691681147E0,9.467870712E0,-1.383249998E0
2.461891177E0,2.758718967E0,9.506177902E0,-1.426345706E0
2.463884249E0,2.806602955E0,9.558850288E0,-1.431134105E0
2.465877322E0,2.835333347E0,9.606734276E0,-1.407191992E0
2.467870395E0,2.864063740E0,9.673771858E0,-1.354519606E0
2.469863468E0,2.854486942E0,9.707290649E0,-1.306635618E0
2.471856541E0,2.782660961E0,9.755174637E0,-1.206079125E0
2.473849614E0,2.844910145E0,9.798270226E0,-1.153406620E0
2.475842687E0,2.911947727E0,9.850942612E0,-1.100734234E0
2.477835760E0,2.921524525E0,9.898826599E0,-1.024119735E0
2.479828833E0,2.902370930E0,9.913191795E0,-9.283517003E-1
2.481821906E0,2.883217335E0,9.956287384E0,-8.517372608E-1
2.483814979E0,2.840121746E0,9.985017776E0,-7.511807680E-1
2.485808052E0,2.749142170E0,9.999382973E0,-6.218938828E-1
2.487801124E0,2.624045134E0,1.001853657E1,-5.015852451E-1
2.489794197E0,2.470816135E0,1.002332497E1,-3.914519846E-1
2.491787270E0,2.303221941E0,9.999382973E0,-3.052607179E-1
2.493780343E0,2.145204782E0,1.001853657E1,-2.047042400E-1
2.495773416E0,1.982398987E0,9.989806175E0,-1.185129806E-1
2.497766489E0,1.843535304E0,1.000417137E1,-4.189852998E-2
2.499759562E0,1.704671621E0,9.970652580E0,4.908113554E-2
2.501752635E0,1.584961534E0,9.961075783E0,1.352723986E-1
2.503745708E0,1.464652896E0,9.927556992E0,2.118868530E-1
2.505738781E0,1.373673201E0,9.908403397E0,2.741360962E-1
2.507731854E0,1.321000814E0,9.908403397E0,3.028665185E-1
2.509724927E0,1.239597917E0,9.874884605E0,3.794809580E-1
2.511717999E0,1.206079125E0,9.836577415E0,4.034229815E-1
2.513711072E0,1.167771935E0,9.822212219E0,4.225766063E-1
2.515704145E0,1.158195019E0,9.812635422E0,4.465186298E-1
2.517697218E0,1.139041424E0,9.783905029E0,4.417302012E-1
2.519690291E0,1.139041424E0,9.764751434E0,4.417302012E-1
2.521683364E0,1.182137132E0,9.750386238E0,4.369418025E-1
2.523676437E0,1.230021119E0,9.755174637E0,3.986345828E-1
2.525669510E0,1.273116708E0,9.707290649E0,3.699041605E-1
2.527662583E0,1.321000814E0,9.692925453E0,2.980781198E-1
2.529655656E0,1.388038397E0,9.678560257E0,2.406172752E-1
2.531648677E0,1.407191992E0,9.668983459E0,1.879448295E-1
2.533641697E0,1.416768909E0,9.649829865E0,1.113303825E-1
2.535634718E0,1.450287700E0,9.635464668E0,1.556231081E-2
2.537627739E0,1.464652896E0,9.625887871E0,-7.062894851E-2
2.539620760E0,1.474229693E0,9.611522675E0,-1.711854190E-1
2.541613781E0,1.488594890E0,9.597157478E0,-2.286462635E-1
2.543606802E0,1.459864497E0,9.597157478E0,-3.100491166E-1
2.545599822E0,1.435922503E0,9.578003883E0,-4.010287821E-1
2.547592843E0,1.435922503E0,9.578003883E0,-4.584896266E-1
2.549585864E0,1.378461599E0,9.578003883E0,-5.255272985E-1
2.551578885E0,1.364096403E0,9.563638687E0,-5.925649405E-1
2.553571906E0,1.340154409E0,9.573215485E0,-6.362590790E-1
2.555564927E0,1.311424017E0,9.573215485E0,-6.793547273E-1
2.557557947E0,1.277905107E0,9.578003883E0,-7.320271730E-1
2.559550968E0,1.253963113E0,9.568427086E0,-7.416039705E-1
2.561543989E0,1.220444322E0,9.582792282E0,-7.655459642E-1
2.563537010E0,1.196502328E0,9.601945877E0,-7.799112201E-1
2.565530031E0,1.196502328E0,9.616311073E0,-7.751228213E-1
2.567523052E0,1.201290727E0,9.601945877E0,-7.559691668E-1
2.569516072E0,1.206079125E0,9.611522675E0,-7.368155718E-1
2.571509093E0,1.230021119E0,9.625887871E0,-7.080851793E-1
2.573502114E0,1.230021119E0,9.635464668E0,-6.889315248E-1
2.575495135E0,1.239597917E0,9.654618263E0,-6.554127336E-1
2.577488156E0,1.273116708E0,9.659406662E0,-6.171054840E-1
2.579481177E0,1.321000814E0,9.664195061E0,-5.590460896E-1
2.581474197E0,1.335366011E0,9.683348656E0,-5.303156972E-1
2.583467218E0,1.378461599E0,9.702502251E0,-4.680664241E-1
2.585460239E0,1.402403593E0,9.712079048E0,-4.106055796E-1
2.587453260E0,1.435922503E0,9.721655846E0,-3.627215624E-1
2.589446281E0,1.459864497E0,9.740809441E0,-3.148375154E-1
2.591439302E0,1.493383288E0,9.750386238E0,-2.621650994E-1
2.593432322E0,1.517325282E0,9.774328232E0,-2.142810524E-1
2.595425343E0,1.556231141E0,9.779116631E0,-1.855506301E-1
2.597418364E0,1.550844193E0,9.788693428E0,-1.376665980E-1
2.599411385E0,1.584961534E0,9.817423820E0,-8.978256583E-2
2.601404406E0,1.604115129E0,9.783905029E0,-5.626374111E-2
2.603397427E0,1.604115129E0,9.817423820E0,-1.795651205E-2
2.605390447E0,1.618480325E0,9.788693428E0,2.035071515E-2
2.607383468E0,1.651999116E0,9.774328232E0,4.908113554E-2
2.609376489E0,1.685518026E0,9.774328232E0,7.302315533E-2
2.611369510E0,1.714248419E0,9.755174637E0,1.065419763E-1
2.613362531E0,1.738190413E0,9.750386238E0,1.352723986E-1
2.615355552E0,1.757344007E0,9.731232643E0,1.352723986E-1
2.617348572E0,1.757344007E0,9.716867447E0,1.448491961E-1
2.619341593E0,1.776497602E0,9.688137054E0,1.544260085E-1
2.621334614E0,1.781286120E0,9.683348656E0,1.783680320E-1
2.623327635E0,1.795651317E0,9.668983459E0,1.592144072E-1
2.625320656E0,1.814804912E0,9.664195061E0,1.735796183E-1
2.627313677E0,1.824381709E0,9.664195061E0,1.448491961E-1
2.629306697E0,1.829170108E0,9.664195061E0,1.304839998E-1
2.631299718E0,1.829170108E0,9.649829865E0,1.352723986E-1
2.633292739E0,1.824381709E0,9.640253067E0,9.217676520E-2
2.635285760E0,1.810016513E0,9.649829865E0,7.302315533E-2
2.637278781E0,1.814804912E0,9.645041466E0,4.908113554E-2
2.639271802E0,1.781286120E0,9.625887871E0,1.556231081E-2
2.641264822E0,1.766920805E0,9.640253067E0,-8.379706182E-3
2.643257843E0,1.733402014E0,9.611522675E0,-7.062894851E-2
2.645250864E0,1.719036818E0,9.616311073E0,-9.457096457E-2
2.647243885E0,1.695094824E0,9.635464668E0,-1.616086215E-1
2.649236906E0,1.656787634E0,9.621099472E0,-1.855506301E-1
2.651229927E0,1.642422318E0,9.625887871E0,-2.142810524E-1
2.653222947E0,1.594538331E0,9.573215485E0,-1.855506301E-1
2.655215968E0,1.594538331E0,9.611522675E0,-1.855506301E-1
2.657208989E0,1.565807939E0,9.635464668E0,-2.765302956E-1
2.659202010E0,1.550844193E0,9.678560257E0,-3.435679376E-1
2.661195031E0,1.550844193E0,9.726444244E0,-3.914519846E-1
2.663188052E0,1.522113681E0,9.764751434E0,-4.680664241E-1
2.665181072E0,1.517325282E0,9.783905029E0,-4.632780254E-1
2.667174093E0,1.493383288E0,9.798270226E0,-5.111620426E-1
2.669167114E0,1.479018092E0,9.850942612E0,-5.781996846E-1
2.671160135E0,1.440710902E0,9.874884605E0,-6.314706802E-1
2.673153156E0,1.440710902E0,9.908403397E0,-6.745663285E-1
2.675146177E0,1.407191992E0,9.927556992E0,-7.176619768E-1
2.677139197E0,1.397615194E0,9.946710587E0,-7.846996188E-1
2.679132218E0,1.397615194E0,9.941922188E0,-8.038532138E-1
2.681125239E0,1.368884802E0,9.941922188E0,-8.565256596E-1
2.683118260E0,1.354519606E0,9.980229378E0,-8.613140583E-1
2.685111281E0,1.330577612E0,9.980229378E0,-8.708908558E-1
2.687104302E0,1.325789213E0,9.999382973E0,-8.804676533E-1
2.689097322E0,1.311424017E0,9.999382973E0,-9.235633016E-1
2.691090343E0,1.335366011E0,9.999382973E0,-9.139865041E-1
2.693083364E0,1.321000814E0,1.000417137E1,-9.570821524E-1
2.695076437E0,1.316212416E0,1.001374817E1,-9.762357473E-1
2.697069510E0,1.321000814E0,1.001853657E1,-9.762357473E-1
2.699062583E0,1.335366011E0,1.001853657E1,-9.906009436E-1
2.701055656E0,1.335366011E0,1.000895977E1,-9.666589499E-1
2.703048729E0,1.364096403E0,1.001853657E1,-9.522937536E-1
2.705041802E0,1.373673201E0,1.001853657E1,-9.427168965E-1
2.707034874E0,1.373673201E0,1.000417137E1,-9.091981053E-1
2.709027947E0,1.392826796E0,9.994594574E0,-9.044097066E-1
2.711021020E0,1.416768909E0,9.994594574E0,-8.900445104E-1
2.713014093E0,1.426345706E0,9.985017776E0,-8.613140583E-1
2.715007166E0,1.440710902E0,9.994594574E0,-8.277952671E-1
2.717000239E0,1.445499301E0,9.980229378E0,-8.038532138E-1
2.718993312E0,1.459864497E0,9.965864182E0,-7.894880176E-1
2.720986385E0,1.459864497E0,9.951498985E0,-7.703344226E-1
2.722979458E0,1.479018092E0,9.927556992E0,-7.128735781E-1
2.724972531E0,1.507748485E0,9.913191795E0,-6.985083222E-1
2.726965604E0,1.507748485E0,9.894038200E0,-6.602011323E-1
2.728958677E0,1.507748485E0,9.874884605E0,-6.218938828E-1
2.730951749E0,1.517325282E0,9.860519409E0,-5.590460896E-1
2.732944822E0,1.526902080E0,9.846154213E0,-5.398924947E-1
2.734937895E0,1.550844193E0,9.836577415E0,-4.824316502E-1
2.736930968E0,1.570596337E0,9.817423820E0,-4.393360019E-1
2.738924041E0,1.575384736E0,9.788693428E0,-4.201824069E-1
2.740917114E0,1.604115129E0,9.783905029E0,-3.914519846E-1
2.742910187E0,1.613691926E0,9.759963036E0,-3.818751574E-1
2.744903260E0,1.618480325E0,9.750386238E0,-3.627215624E-1
2.746896333E0,1.628057122E0,9.736021042E0,-3.339911401E-1
2.748889406E0,1.642422318E0,9.731232643E0,-3.483563364E-1
2.750882479E0,1.642422318E0,9.716867447E0,-3.292027414E-1
2.752875552E0,1.642422318E0,9.716867447E0,-3.196259141E-1
2.754868624E0,1.651999116E0,9.683348656E0,-3.148375154E-1
2.756861697E0,1.671152830E0,9.692925453E0,-3.052607179E-1
2.758854770E0,1.680729628E0,9.697713852E0,-3.435679376E-1
2.760847843E0,1.680729628E0,9.683348656E0,-3.531447649E-1
2.762840916E0,1.690306425E0,9.683348656E0,-3.818751574E-1
2.764833989E0,1.704671621E0,9.697713852E0,-4.010287821E-1
2.766827010E0,1.704671621E0,9.692925453E0,-4.345476031E-1
2.768820031E0,1.719036818E0,9.697713852E0,-4.632780254E-1
2.770813052E0,1.738190413E0,9.692925453E0,-4.872200489E-1
2.772806072E0,1.747767210E0,9.697713852E0,-5.446808934E-1
2.774799093E0,1.752555609E0,9.702502251E0,-5.638344884E-1
2.776792114E0,1.762132406E0,9.697713852E0,-6.021417379E-1
2.778785135E0,1.766920805E0,9.721655846E0,-6.458359361E-1
2.780778156E0,1.781286120E0,9.712079048E0,-6.841431260E-1
2.782771177E0,1.771709204E0,9.716867447E0,-7.272387743E-1
2.784764197E0,1.762132406E0,9.707290649E0,-7.463923693E-1
2.786757218E0,1.752555609E0,9.716867447E0,-7.751228213E-1
2.788750239E0,1.776497602E0,9.707290649E0,-7.942764163E-1
2.790743260E0,1.776497602E0,9.721655846E0,-8.230068088E-1
2.792736281E0,1.752555609E0,9.726444244E0,-8.421604633E-1
2.794729302E0,1.752555609E0,9.731232643E0,-8.613140583E-1
2.796722322E0,1.733402014E0,9.726444244E0,-8.613140583E-1
2.798715343E0,1.728613615E0,9.731232643E0,-8.804676533E-1
2.800708364E0,1.714248419E0,9.731232643E0,-8.900445104E-1
2.802701385E0,1.685518026E0,9.745597839E0,-9.091981053E-1
2.804694406E0,1.685518026E0,9.740809441E0,-9.044097066E-1
2.806687427E0,1.656787634E0,9.745597839E0,-9.091981053E-1
2.808680447E0,1.656787634E0,9.759963036E0,-8.996213078E-1
2.810673468E0,1.637633920E0,9.779116631E0,-9.044097066E-1
2.812666489E0,1.651999116E0,9.783905029E0,-8.852560520E-1
2.814659510E0,1.642422318E0,9.783905029E0,-8.804676533E-1
2.816652531E0,1.632845521E0,9.788693428E0,-8.421604633E-1
2.818645552E0,1.613691926E0,9.803058624E0,-8.565256596E-1
2.820638572E0,1.599326730E0,9.793481827E0,-8.373720646E-1
2.822631593E0,1.580173135E0,9.788693428E0,-8.182184100E-1
2.824624614E0,1.580173135E0,9.774328232E0,-8.134300113E-1
2.826617635E0,1.546055794E0,9.769539833E0,-7.990648150E-1
2.828610656E0,1.512536883E0,9.750386238E0,-7.990648150E-1
2.830603677E0,1.498171687E0,9.731232643E0,-7.846996188E-1
2.832596697E0,1.450287700E0,9.716867447E0,-7.559691668E-1
2.834589718E0,1.431134105E0,9.716867447E0,-7.559691668E-1
2.836582739E0,1.378461599E0,9.697713852E0,-7.463923693E-1
2.838575760E0,1.335366011E0,9.678560257E0,-7.320271730E-1
2.840568781E0,1.301847219E0,9.640253067E0,-7.272387743E-1
2.842561802E0,1.263539910E0,9.601945877E0,-7.176619768E-1
2.844554822E0,1.239597917E0,9.601945877E0,-7.032967210E-1
2.846547843E0,1.206079125E0,9.573215485E0,-7.176619768E-1
2.848540864E0,1.191713929E0,9.534908295E0,-7.272387743E-1
2.850533885E0,1.167771935E0,9.520543098E0,-7.032967210E-1
2.852526906E0,1.153406620E0,9.491812706E0,-7.176619768E-1
2.854519927E0,1.148618221E0,9.463082314E0,-7.128735781E-1
2.856512947E0,1.139041424E0,9.439140320E0,-7.032967210E-1
2.858505968E0,1.153406620E0,9.429563522E0,-6.841431260E-1
2.860498989E0,1.162983418E0,9.405621529E0,-6.649895310E-1
2.862492010E0,1.153406620E0,9.396044731E0,-6.554127336E-1
2.864485031E0,1.139041424E0,9.405621529E0,-6.410474777E-1
2.866478052E0,1.081580639E0,9.415198326E0,-6.021417379E-1
2.868471072E0,1.143829823E0,9.386467934E0,-5.638344884E-1
2.870464093E0,1.201290727E0,9.372102737E0,-5.303156972E-1
2.872457114E0,1.249174714E0,9.381679535E0,-4.584896266E-1
2.874450135E0,1.306635618E0,9.376891136E0,-4.345476031E-1
2.876443156E0,1.325789213E0,9.372102737E0,-3.866635859E-1
2.878436177E0,1.354519606E0,9.391256332E0,-3.292027414E-1
2.880429197E0,1.392826796E0,9.400833130E0,-2.908954918E-1
2.882422218E0,1.392826796E0,9.424775124E0,-2.238578647E-1
2.884415239E0,1.416768909E0,9.439140320E0,-1.903390288E-1
2.886408260E0,1.426345706E0,9.482235909E0,-1.424549967E-1
2.888401281E0,1.402403593E0,9.487024307E0,-1.137245819E-1
2.890394302E0,1.402403593E0,9.515754700E0,-6.584054977E-2
2.892387322E0,1.397615194E0,9.544485092E0,-2.753331885E-2
2.894380343E0,1.364096403E0,9.549273491E0,-2.753331885E-2
2.896373364E0,1.344942808E0,9.578003883E0,1.197100850E-3
2.898366385E0,1.344942808E0,9.587580681E0,1.556231081E-2
2.900359406E0,1.306635618E0,9.611522675E0,2.035071515E-2
2.902352427E0,1.301847219E0,9.597157478E0,1.556231081E-2
2.904345447E0,1.282693505E0,9.616311073E0,1.077390742E-2
2.906338468E0,1.292270422E0,9.611522675E0,1.077390742E-2
2.908331489E0,1.268328309E0,9.611522675E0,1.556231081E-2
2.910324510E0,1.268328309E0,9.597157478E0,-8.379706182E-3
2.912317531E0,1.263539910E0,9.582792282E0,-1.795651205E-2
2.914310552E0,1.253963113E0,9.592369080E0,-4.668693244E-2
2.916303572E0,1.273116708E0,9.558850288E0,-5.626374111E-2
2.918296593E0,1.282693505E0,9.558850288E0,-6.105214357E-2
2.920289614E0,1.297058821E0,9.554061890E0,-9.457096457E-2
2.922282635E0,1.292270422E0,9.549273491E0,-1.233013868E-1
2.924275656E0,1.297058821E0,9.534908295E0,-1.233013868E-1
2.926268729E0,1.282693505E0,9.558850288E0,-1.568202078E-1
2.928261802E0,1.277905107E0,9.554061890E0,-1.999158412E-1
2.930254874E0,1.301847219E0,9.549273491E0,-2.142810524E-1
2.932247947E0,1.287482023E0,9.568427086E0,-2.382230759E-1
2.934241020E0,1.282693505E0,9.582792282E0,-2.765302956E-1
2.936234093E0,1.263539910E0,9.587580681E0,-3.148375154E-1
2.938227166E0,1.253963113E0,9.616311073E0,-3.292027414E-1
2.940220239E0,1.225232720E0,9.640253067E0,-3.579331636E-1
2.942213312E0,1.210867524E0,9.649829865E0,-3.962403834E-1
2.944206385E0,1.210867524E0,9.659406662E0,-4.106055796E-1
2.946199458E0,1.172560334E0,9.678560257E0,-4.249708056E-1
2.948192531E0,1.177348733E0,9.716867447E0,-4.345476031E-1
2.950185604E0,1.139041424E0,9.740809441E0,-4.393360019E-1
2.952178677E0,1.110311031E0,9.755174637E0,-4.824316502E-1
2.954171749E0,1.095945835E0,9.774328232E0,-4.441244006E-1
2.956164822E0,1.072003841E0,9.793481827E0,-4.393360019E-1
2.958157895E0,1.072003841E0,9.822212219E0,-4.249708056E-1
2.960150968E0,1.043273449E0,9.850942612E0,-4.201824069E-1
2.962144041E0,1.009754539E0,9.860519409E0,-3.627215624E-1
2.964137114E0,1.009754539E0,9.850942612E0,-3.531447649E-1
2.966130187E0,9.906009436E-1,9.860519409E0,-2.861070931E-1
2.968123260E0,9.906009436E-1,9.874884605E0,-2.382230759E-1
2.970116333E0,9.475052953E-1,9.874884605E0,-2.047042400E-1
2.972109406E0,9.283517003E-1,9.879673004E0,-1.663970202E-1
2.974102479E0,8.900445104E-1,9.884461403E0,-1.328781992E-1
2.976095552E0,8.708908558E-1,9.874884605E0,-7.541735470E-2
2.978088624E0,8.517372608E-1,9.850942612E0,-1.316810958E-2
2.980081697E0,8.469488621E-1,9.855731010E0,1.077390742E-2
2.982074770E0,8.325836658E-1,9.841365814E0,5.865794048E-2
2.984067843E0,8.373720646E-1,9.827000618E0,7.781155407E-2
2.986060916E0,8.517372608E-1,9.798270226E0,9.217676520E-2
2.988053989E0,8.469488621E-1,9.798270226E0,9.696517140E-2
2.990047062E0,8.373720646E-1,9.769539833E0,1.304839998E-1
2.992040135E0,8.517372608E-1,9.769539833E0,1.065419763E-1
2.994033208E0,8.565256596E-1,9.750386238E0,1.352723986E-1
2.996026281E0,8.613140583E-1,9.745597839E0,1.161187813E-1
2.998019302E0,8.756792545E-1,9.726444244E0,1.017535701E-1
3.000012322E0,9.044097066E-1,9.726444244E0,8.259996027E-2
3.002005343E0,9.091981053E-1,9.726444244E0,5.865794048E-2
3.003998364E0,9.379284978E-1,9.731232643E0,3.950432688E-2
3.005991385E0,9.666589499E-1,9.721655846E0,-3.591302549E-3
3.007984406E0,9.666589499E-1,9.731232643E0,-4.189852998E-2
3.009977427E0,9.666589499E-1,9.745597839E0,-8.499415964E-2
3.011970447E0,9.618705511E-1,9.740809441E0,-9.457096457E-2
3.013963468E0,9.714473486E-1,9.745597839E0,-1.520318091E-1
3.015956489E0,9.762357473E-1,9.774328232E0,-1.663970202E-1
3.017949510E0,1.000177741E0,9.759963036E0,-2.094926536E-1
3.019942531E0,1.014542937E0,9.774328232E0,-2.621650994E-1
3.021935552E0,1.028908134E0,9.769539833E0,-3.100491166E-1
3.023928572E0,1.004966140E0,9.774328232E0,-3.579331636E-1
3.025921593E0,1.014542937E0,9.783905029E0,-3.866635859E-1
3.027914614E0,1.014542937E0,9.793481827E0,-4.201824069E-1
3.029907635E0,1.004966140E0,9.774328232E0,-4.632780254E-1
3.031900656E0,1.038484931E0,9.783905029E0,-4.872200489E-1
3.033893677E0,1.028908134E0,9.779116631E0,-5.159504414E-1
3.035886697E0,1.062427044E0,9.793481827E0,-5.446808934E-1
3.037879718E0,1.067215443E0,9.779116631E0,-5.781996846E-1
3.039872739E0,1.100734234E0,9.750386238E0,-6.075286865E-1
3.041865760E0,1.105522633E0,9.774328232E0,-6.410474777E-1
3.043858781E0,1.124676228E0,9.764751434E0,-6.745663285E-1
3.045851802E0,1.086369038E0,9.779116631E0,-7.032967210E-1
3.047844822E0,1.038484931E0,9.822212219E0,-7.272387743E-1
3.049837843E0,1.105522633E0,9.798270226E0,-7.416039705E-1
3.051830864E0,1.124676228E0,9.769539833E0,-7.511807680E-1
3.053823885E0,1.115099430E0,9.793481827E0,-7.559691668E-1
3.055816906E0,1.105522633E0,9.788693428E0,-7.511807680E-1
3.057809927E0,1.115099430E0,9.783905029E0,-7.176619768E-1
3.059802947E0,1.105522633E0,9.779116631E0,-6.889315248E-1
3.061795968E0,1.081580639E0,9.812635422E0,-6.745663285E-1
3.063788989E0,1.105522633E0,9.793481827E0,-6.314706802E-1
3.065782010E0,1.115099430E0,9.807847023E0,-5.877765417E-1
3.067775031E0,1.129464626E0,9.803058624E0,-5.207388401E-1
3.069768052E0,1.143829823E0,9.803058624E0,-4.680664241E-1
3.071761072E0,1.139041424E0,9.817423820E0,-4.106055796E-1
3.073754093E0,1.172560334E0,9.817423820E0,-3.292027414E-1
3.075747114E0,1.196502328E0,9.822212219E0,-2.669534981E-1
3.077740135E0,1.239597917E0,9.807847023E0,-1.951274425E-1
3.079733156E0,1.253963113E0,9.827000618E0,-1.089361757E-1
3.081726177E0,1.321000814E0,9.822212219E0,-1.795651205E-2
3.083719197E0,1.335366011E0,9.827000618E0,7.302315533E-2
3.085712218E0,1.368884802E0,9.817423820E0,1.544260085E-1
3.087705239E0,1.416768909E0,9.807847023E0,2.549824715E-1
3.089698260E0,1.474229693E0,9.788693428E0,3.363853395E-1
3.091691281E0,1.517325282E0,9.769539833E0,4.369418025E-1
3.093684302E0,1.541267395E0,9.759963036E0,5.237316489E-1
3.095677322E0,1.584961534E0,9.736021042E0,6.051344872E-1
3.097670343E0,1.599326730E0,9.716867447E0,6.769605279E-1
3.099663364E0,1.628057122E0,9.707290649E0,7.104793787E-1
3.101656385E0,1.647210717E0,9.692925453E0,7.823054194E-1
3.103649406E0,1.651999116E0,9.692925453E0,8.349778652E-1
3.105642427E0,1.675941229E0,9.664195061E0,8.541314602E-1
3.107635447E0,1.675941229E0,9.640253067E0,8.924387097E-1
3.109628468E0,1.666364431E0,9.635464668E0,9.307458997E-1
3.111621489E0,1.680729628E0,9.630676270E0,9.355342984E-1
3.113614510E0,1.656787634E0,9.606734276E0,9.546879530E-1
3.115607531E0,1.651999116E0,9.606734276E0,9.546879530E-1
3.117600552E0,1.647210717E0,9.582792282E0,9.690531492E-1
3.119593572E0,1.637633920E0,9.582792282E0,9.594763517E-1
3.121586593E0,1.632845521E0,9.578003883E0,9.498994946E-1
3.123579614E0,1.618480325E0,9.558850288E0,9.594763517E-1
3.125572635E0,1.628057122E0,9.563638687E0,9.642647505E-1
3.127565656E0,1.604115129E0,9.549273491E0,9.355342984E-1
3.129558677E0,1.613691926E0,9.534908295E0,9.068039060E-1
3.131551697E0,1.599326730E0,9.544485092E0,8.780734539E-1
3.133544718E0,1.556231141E0,9.530119896E0,8.684966564E-1
3.135537739E0,1.546055794E0,9.539696693E0,8.397662640E-1
3.137530760E0,1.561019540E0,9.554061890E0,8.206126094E-1
3.139523781E0,1.556231141E0,9.539696693E0,7.870938182E-1
3.141516802E0,1.561019540E0,9.554061890E0,7.344213724E-1
3.143509822E0,1.604115129E0,9.563638687E0,7.056909800E-1
3.145502843E0,1.584961534E0,9.568427086E0,6.530185342E-1
3.147495864E0,1.584961534E0,9.578003883E0,6.003460884E-1
3.149488885E0,1.561019540E0,9.578003883E0,5.620388389E-1
3.151481958E0,1.541267395E0,9.587580681E0,5.285200477E-1
3.153475031E0,1.550844193E0,9.601945877E0,4.800374508E-1
3.155468104E0,1.550844193E0,9.616311073E0,4.465186298E-1
3.157461177E0,1.541267395E0,9.621099472E0,3.890577853E-1
3.159454249E0,1.531690478E0,9.640253067E0,3.603273630E-1
3.161447322E0,1.536478996E0,9.640253067E0,2.980781198E-1
3.163440395E0,1.526902080E0,9.664195061E0,2.645592988E-1
3.165433468E0,1.536478996E0,9.673771858E0,2.214636505E-1
3.167426541E0,1.531690478E0,9.688137054E0,1.975216419E-1
3.169419614E0,1.517325282E0,9.692925453E0,1.687912196E-1
3.171412687E0,1.517325282E0,9.697713852E0,1.400607973E-1
3.173405760E0,1.522113681E0,9.716867447E0,1.304839998E-1
3.175398833E0,1.526902080E0,9.712079048E0,1.017535701E-1
3.177391906E0,1.536478996E0,9.707290649E0,9.217676520E-2
3.179384979E0,1.507748485E0,9.678560257E0,1.113303825E-1
3.181378052E0,1.526902080E0,9.668983459E0,9.696517140E-2
3.183371124E0,1.522113681E0,9.673771858E0,7.781155407E-2
3.185364197E0,1.536478996E0,9.668983459E0,7.781155407E-2
3.187357270E0,1.589749932E0,9.649829865E0,9.696517140E-2
3.189350343E0,1.613691926E0,9.640253067E0,9.217676520E-2
3.191343416E0,1.680729628E0,9.635464668E0,1.017535701E-1
3.193336489E0,1.747767210E0,9.616311073E0,1.065419763E-1
3.195329562E0,1.800439715E0,9.616311073E0,1.304839998E-1
3.197322635E0,1.872265697E0,9.597157478E0,1.592144072E-1
3.199315708E0,1.900996208E0,9.597157478E0,1.592144072E-1
3.201308781E0,1.972822189E0,9.587580681E0,1.831564307E-1
3.203301854E0,2.025494576E0,9.534908295E0,2.118868530E-1
3.205294927E0,2.039859772E0,9.510966301E0,2.166752517E-1
3.207287999E0,2.035071373E0,9.496601105E0,2.118868530E-1
3.209281072E0,2.030282974E0,9.362525940E0,1.831564307E-1
3.211274145E0,2.082955360E0,9.362525940E0,2.501940727E-1
3.213267218E0,2.130839586E0,9.400833130E0,3.028665185E-1
3.215260291E0,2.188300371E0,9.410409927E0,3.555389643E-1
3.217253364E0,2.240972757E0,9.434351921E0,3.938461840E-1
3.219246437E0,2.303221941E0,9.415198326E0,4.273650050E-1
3.221239510E0,2.322375536E0,9.400833130E0,4.704606235E-1
3.223232531E0,2.351106167E0,9.405621529E0,4.944026470E-1
3.225225552E0,2.351106167E0,9.396044731E0,5.135562420E-1
3.227218572E0,2.365471363E0,9.376891136E0,5.380968451E-1
3.229211593E0,2.375048161E0,9.391256332E0,5.476736426E-1
3.231204614E0,2.370259762E0,9.381679535E0,5.764040351E-1
3.233197635E0,2.355894566E0,9.391256332E0,5.859808922E-1
3.235190656E0,2.370259762E0,9.391256332E0,5.859808922E-1
3.237183677E0,2.379836559E0,9.396044731E0,5.955576897E-1
3.239176697E0,2.379836559E0,9.415198326E0,6.147112846E-1
3.241169718E0,2.336740971E0,9.429563522E0,6.003460884E-1
3.243162739E0,2.274491549E0,9.434351921E0,6.242880821E-1
3.245155760E0,2.236184359E0,9.443928719E0,6.051344872E-1
3.247148781E0,2.159569979E0,9.410409927E0,5.668272376E-1
3.249141802E0,1.996764183E0,9.309853554E0,4.704606235E-1
3.251134822E0,2.054224968E0,9.396044731E0,5.380968451E-1
3.253127843E0,2.078166962E0,9.463082314E0,6.099228859E-1
3.255120864E0,2.097320795E0,9.520543098E0,6.434416771E-1
3.257113885E0,2.092532396E0,9.582792282E0,7.056909800E-1
3.259106906E0,2.078166962E0,9.621099472E0,7.344213724E-1
3.261099927E0,2.092532396E0,9.668983459E0,7.870938182E-1
3.263092947E0,2.068590164E0,9.683348656E0,8.445546627E-1
3.265085968E0,2.078166962E0,9.707290649E0,9.163807034E-1
3.267078989E0,2.054224968E0,9.716867447E0,9.403226972E-1
3.269072010E0,2.078166962E0,9.726444244E0,9.834183455E-1
3.271065031E0,2.049436569E0,9.740809441E0,1.031302333E0
3.273058052E0,2.044648170E0,9.731232643E0,1.069609642E0
3.275051072E0,2.059013367E0,9.726444244E0,1.112705231E0
3.277044093E0,2.073378563E0,9.707290649E0,1.160589218E0
3.279037114E0,2.092532396E0,9.673771858E0,1.213261724E0
3.281030135E0,2.106897593E0,9.635464668E0,1.246780515E0
3.283023156E0,2.111685991E0,9.601945877E0,1.294664621E0
3.285016177E0,2.140416384E0,9.582792282E0,1.318606615E0
3.287009197E0,2.164358377E0,9.539696693E0,1.328183413E0
3.289002218E0,2.183511972E0,9.491812706E0,1.323395014E0
3.290995239E0,2.207453966E0,9.463082314E0,1.337760210E0
3.292988260E0,2.217030764E0,9.424775124E0,1.328183413E0
3.294981281E0,2.221819162E0,9.381679535E0,1.328183413E0
3.296974302E0,2.245761156E0,9.357737541E0,1.299453020E0
3.298967322E0,2.250549555E0,9.329007149E0,1.285087705E0
3.300960343E0,2.279279947E0,9.300276756E0,1.256357312E0
3.302953364E0,2.279279947E0,9.276334763E0,1.208473325E0
3.304946385E0,2.293645144E0,9.251793861E0,1.174954534E0
3.306939406E0,2.274491549E0,9.237428665E0,1.112705231E0
3.308932427E0,2.279279947E0,9.213486671E0,1.093551636E0
3.310925447E0,2.264914751E0,9.203909874E0,1.036090732E0
3.312918468E0,2.255337954E0,9.208698273E0,9.977835417E-1
3.314911489E0,2.236184359E0,9.213486671E0,9.498994946E-1
3.316904510E0,2.212242365E0,9.218275070E0,9.259575009E-1
3.318897531E0,2.183511972E0,9.227851868E0,8.828618526E-1
3.320890552E0,2.149993181E0,9.256582260E0,8.301894665E-1
3.322883572E0,2.140416384E0,9.281123161E0,8.062474132E-1
3.324876593E0,2.111685991E0,9.314641953E0,7.775170207E-1
3.326869614E0,2.102109194E0,9.338583946E0,7.487865686E-1
3.328862635E0,2.068590164E0,9.381679535E0,7.392097712E-1
3.330855656E0,2.035071373E0,9.439140320E0,7.200561762E-1
3.332848677E0,2.020706177E0,9.463082314E0,7.152677774E-1
3.334841697E0,1.996764183E0,9.510966301E0,6.769605279E-1
3.336834718E0,1.987187386E0,9.558850288E0,6.961141229E-1
3.338827739E0,1.991975784E0,9.587580681E0,6.913257241E-1
3.340820760E0,1.987187386E0,9.611522675E0,7.009025216E-1
3.342813781E0,1.987187386E0,9.668983459E0,7.104793787E-1
3.344806802E0,1.991975784E0,9.692925453E0,7.248445749E-1
3.346799822E0,1.982398987E0,9.716867447E0,7.344213724E-1
3.348792843E0,1.991975784E0,9.745597839E0,7.535749674E-1
3.350785864E0,2.015917778E0,9.740809441E0,7.631517649E-1
3.352778885E0,2.025494576E0,9.774328232E0,7.823054194E-1
3.354771906E0,2.035071373E0,9.764751434E0,7.966706157E-1
3.356764927E0,2.035071373E0,9.779116631E0,8.158242106E-1
3.358757947E0,2.054224968E0,9.783905029E0,8.014590144E-1
3.360750968E0,2.025494576E0,9.783905029E0,8.206126094E-1
3.362743989E0,2.039859772E0,9.769539833E0,8.014590144E-1
3.364737010E0,2.035071373E0,9.755174637E0,7.918822169E-1
3.366730031E0,2.011129379E0,9.731232643E0,7.775170207E-1
3.368723052E0,1.991975784E0,9.697713852E0,7.296329737E-1
3.370716124E0,1.968033791E0,9.678560257E0,7.152677774E-1
3.372709197E0,1.939303398E0,9.645041466E0,6.721721292E-1
3.374702270E0,1.886630893E0,9.630676270E0,6.290764809E-1
3.376695343E0,1.862688899E0,9.621099472E0,5.668272376E-1
3.378688416E0,1.829170108E0,9.582792282E0,5.237316489E-1
3.380681489E0,1.814804912E0,9.578003883E0,4.704606235E-1
3.382674562E0,1.766920805E0,9.549273491E0,4.465186298E-1
3.384667635E0,1.723825216E0,9.534908295E0,3.890577853E-1
3.386660708E0,1.699883223E0,9.515754700E0,3.603273630E-1
3.388653781E0,1.642422318E0,9.520543098E0,3.507505357E-1
3.390646854E0,1.647210717E0,9.506177902E0,3.268085420E-1
3.392639927E0,1.623268723E0,9.496601105E0,3.172317147E-1
3.394632999E0,1.604115129E0,9.487024307E0,3.076549172E-1
3.396626072E0,1.604115129E0,9.491812706E0,3.028665185E-1
3.398619145E0,1.608903527E0,9.496601105E0,3.220201433E-1
3.400612218E0,1.632845521E0,9.496601105E0,3.555389643E-1
3.402605291E0,1.628057122E0,9.520543098E0,3.794809580E-1
3.404598364E0,1.628057122E0,9.506177902E0,4.082113802E-1
3.406591437E0,1.656787634E0,9.539696693E0,4.465186298E-1
3.408584510E0,1.671152830E0,9.534908295E0,4.800374508E-1
3.410577583E0,1.680729628E0,9.558850288E0,5.087678432E-1
3.412570656E0,1.695094824E0,9.558850288E0,5.572504401E-1
3.414563729E0,1.699883223E0,9.563638687E0,5.811924338E-1
3.416556802E0,1.699883223E0,9.592369080E0,6.147112846E-1
3.418549874E0,1.709460020E0,9.587580681E0,6.338648796E-1
3.420542947E0,1.709460020E0,9.625887871E0,6.817489266E-1
3.422536020E0,1.704671621E0,9.611522675E0,6.865373254E-1
3.424529093E0,1.680729628E0,9.621099472E0,7.056909800E-1
3.426522166E0,1.661576033E0,9.649829865E0,7.439981699E-1
3.428515239E0,1.623268723E0,9.659406662E0,7.535749674E-1
3.430508312E0,1.599326730E0,9.668983459E0,7.631517649E-1
3.432501385E0,1.575384736E0,9.673771858E0,7.583633661E-1
3.434494458E0,1.541267395E0,9.683348656E0,7.918822169E-1
3.436487531E0,1.502960086E0,9.707290649E0,7.918822169E-1
3.438480604E0,1.459864497E0,9.697713852E0,8.110358119E-1
3.440473677E0,1.426345706E0,9.702502251E0,8.445546627E-1
3.442466749E0,1.397615194E0,9.721655846E0,8.541314602E-1
3.444459770E0,1.378461599E0,9.721655846E0,8.780734539E-1
3.446452791E0,1.349731207E0,9.707290649E0,8.780734539E-1
3.448445812E0,1.335366011E0,9.726444244E0,9.163807034E-1
3.450438833E0,1.321000814E0,9.726444244E0,9.115923047E-1
3.452431854E0,1.306635618E0,9.707290649E0,9.498994946E-1
3.454424874E0,1.297058821E0,9.716867447E0,9.642647505E-1
3.456417895E0,1.311424017E0,9.702502251E0,9.690531492E-1
3.458410916E0,1.311424017E0,9.702502251E0,9.929951429E-1
3.460403937E0,1.325789213E0,9.688137054E0,1.012148738E0
3.462396958E0,1.349731207E0,9.678560257E0,9.977835417E-1
3.464389979E0,1.359308004E0,9.673771858E0,9.882067442E-1
3.466382999E0,1.383249998E0,9.649829865E0,9.690531492E-1
3.468376020E0,1.388038397E0,9.649829865E0,9.594763517E-1
3.470369041E0,1.397615194E0,9.625887871E0,9.498994946E-1
3.472362062E0,1.407191992E0,9.635464668E0,9.307458997E-1
3.474355083E0,1.431134105E0,9.630676270E0,8.828618526E-1
3.476348104E0,1.455076098E0,9.645041466E0,8.828618526E-1
3.478341124E0,1.459864497E0,9.645041466E0,8.684966564E-1
3.480334145E0,1.445499301E0,9.640253067E0,8.445546627E-1
3.482327166E0,1.459864497E0,9.649829865E0,7.918822169E-1
3.484320187E0,1.459864497E0,9.668983459E0,7.631517649E-1
3.486313208E0,1.431134105E0,9.664195061E0,7.152677774E-1
3.488306229E0,1.445499301E0,9.697713852E0,6.578069329E-1
3.490299249E0,1.435922503E0,9.716867447E0,6.338648796E-1
3.492292270E0,1.397615194E0,9.726444244E0,5.859808922E-1
3.494285291E0,1.388038397E0,9.736021042E0,5.333084464E-1
3.496278312E0,1.388038397E0,9.759963036E0,4.991910458E-1
3.498271333E0,1.364096403E0,9.783905029E0,4.273650050E-1
3.500264354E0,1.349731207E0,9.779116631E0,3.459621370E-1
3.502257374E0,1.325789213E0,9.783905029E0,2.932897210E-1
3.504250395E0,1.330577612E0,9.812635422E0,2.310404629E-1
3.506243416E0,1.306635618E0,9.836577415E0,1.687912196E-1
3.508236437E0,1.306635618E0,9.841365814E0,1.209071875E-1
3.510229458E0,1.301847219E0,9.841365814E0,5.865794048E-2
3.512222479E0,1.306635618E0,9.846154213E0,-1.316810958E-2
3.514215499E0,1.321000814E0,9.860519409E0,-2.753331885E-2
3.516208520E0,1.316212416E0,9.846154213E0,-6.105214357E-2
3.518201541E0,1.321000814E0,9.850942612E0,-8.978256583E-2
3.520194562E0,1.359308004E0,9.831789017E0,-1.280897856E-1
3.522187583E0,1.364096403E0,9.831789017E0,-1.424549967E-1
3.524180604E0,1.378461599E0,9.817423820E0,-1.568202078E-1
3.526173624E0,1.392826796E0,9.812635422E0,-1.616086215E-1
3.528166645E0,1.435922503E0,9.803058624E0,-1.472434103E-1
3.530159666E0,1.450287700E0,9.803058624E0,-1.424549967E-1
3.532152687E0,1.483806491E0,9.783905029E0,-1.137245819E-1
3.534145708E0,1.493383288E0,9.769539833E0,-1.089361757E-1
3.536138729E0,1.507748485E0,9.769539833E0,-1.041477770E-1
3.538131749E0,1.522113681E0,9.755174637E0,-7.062894851E-2
3.540124770E0,1.536478996E0,9.750386238E0,-3.232172132E-2
3.542117791E0,1.565807939E0,9.740809441E0,-3.711012751E-2
3.544110812E0,1.565807939E0,9.712079048E0,-3.591302549E-3
3.546103833E0,1.570596337E0,9.707290649E0,3.471592441E-2
3.548096854E0,1.599326730E0,9.692925453E0,6.823474914E-2
3.550089874E0,1.599326730E0,9.688137054E0,8.738835901E-2
3.552082895E0,1.608903527E0,9.683348656E0,1.017535701E-1
3.554075916E0,1.613691926E0,9.673771858E0,1.304839998E-1
3.556068937E0,1.613691926E0,9.659406662E0,1.640028208E-1
3.558061958E0,1.604115129E0,9.645041466E0,1.735796183E-1
3.560054979E0,1.613691926E0,9.616311073E0,2.023100406E-1
3.562047999E0,1.613691926E0,9.625887871E0,2.070984542E-1
3.564041020E0,1.628057122E0,9.597157478E0,2.406172752E-1
3.566034041E0,1.623268723E0,9.597157478E0,2.501940727E-1
3.568027062E0,1.647210717E0,9.578003883E0,2.932897210E-1
3.570020083E0,1.632845521E0,9.563638687E0,2.885012925E-1
3.572013104E0,1.642422318E0,9.558850288E0,2.885012925E-1
3.574006124E0,1.632845521E0,9.549273491E0,3.124433160E-1
3.575999145E0,1.608903527E0,9.554061890E0,3.315969408E-1
3.577992166E0,1.608903527E0,9.544485092E0,3.124433160E-1
3.579985187E0,1.594538331E0,9.544485092E0,3.220201433E-1
3.581978208E0,1.599326730E0,9.554061890E0,3.363853395E-1
3.583971229E0,1.589749932E0,9.554061890E0,3.220201433E-1
3.585964249E0,1.570596337E0,9.554061890E0,3.076549172E-1
3.587957270E0,1.575384736E0,9.558850288E0,3.028665185E-1
3.589950291E0,1.561019540E0,9.573215485E0,2.837128937E-1
3.591943364E0,1.561019540E0,9.563638687E0,2.741360962E-1
3.593936437E0,1.565807939E0,9.601945877E0,2.454056740E-1
3.595929510E0,1.565807939E0,9.601945877E0,2.262520641E-1
3.597922583E0,1.556231141E0,9.606734276E0,2.023100406E-1
3.599915656E0,1.550844193E0,9.616311073E0,1.735796183E-1
3.601908729E0,1.556231141E0,9.621099472E0,1.735796183E-1
3.603901802E0,1.541267395E0,9.611522675E0,1.352723986E-1
3.605894874E0,1.526902080E0,9.625887871E0,1.065419763E-1
3.607887947E0,1.522113681E0,9.606734276E0,9.217676520E-2
3.609881020E0,1.512536883E0,9.606734276E0,6.823474914E-2
3.611874093E0,1.502960086E0,9.616311073E0,3.950432688E-2
3.613867166E0,1.507748485E0,9.601945877E0,2.992752194E-2
3.615860239E0,1.502960086E0,9.601945877E0,2.035071515E-2
3.617853312E0,1.502960086E0,9.606734276E0,-3.591302549E-3
3.619846385E0,1.507748485E0,9.592369080E0,-3.591302549E-3
3.621839458E0,1.507748485E0,9.582792282E0,5.985504016E-3
3.623832531E0,1.517325282E0,9.587580681E0,-8.379706182E-3
3.625825604E0,1.531690478E0,9.573215485E0,1.197100850E-3
3.627818677E0,1.541267395E0,9.568427086E0,-3.232172132E-2
3.629811749E0,1.556231141E0,9.549273491E0,-8.379706182E-3
3.631804822E0,1.561019540E0,9.573215485E0,-1.316810958E-2
3.633797895E0,1.561019540E0,9.544485092E0,-1.316810958E-2
3.635790968E0,1.565807939E0,9.554061890E0,-2.274491638E-2
3.637784041E0,1.565807939E0,9.549273491E0,-3.711012751E-2
3.639777114E0,1.584961534E0,9.563638687E0,-1.795651205E-2
3.641770187E0,1.589749932E0,9.592369080E0,-2.274491638E-2
3.643763260E0,1.594538331E0,9.592369080E0,-1.316810958E-2
3.645756333E0,1.594538331E0,9.601945877E0,-2.274491638E-2
3.647749406E0,1.575384736E0,9.611522675E0,1.197100850E-3
3.649742479E0,1.584961534E0,9.621099472E0,-1.316810958E-2
3.651735552E0,1.561019540E0,9.625887871E0,-3.591302549E-3
3.653728624E0,1.565807939E0,9.659406662E0,1.556231081E-2
3.655721697E0,1.556231141E0,9.659406662E0,1.197100850E-3
3.657714770E0,1.550844193E0,9.673771858E0,1.077390742E-2
3.659707843E0,1.556231141E0,9.673771858E0,1.556231081E-2
3.661700916E0,1.550844193E0,9.668983459E0,1.077390742E-2
3.663693989E0,1.550844193E0,9.678560257E0,3.471592441E-2
3.665687010E0,1.575384736E0,9.654618263E0,3.950432688E-2
3.667680031E0,1.561019540E0,9.640253067E0,3.471592441E-2
3.669673052E0,1.584961534E0,9.640253067E0,4.908113554E-2
3.671666072E0,1.594538331E0,9.630676270E0,4.429273307E-2
3.673659093E0,1.580173135E0,9.601945877E0,6.823474914E-2
3.675652114E0,1.618480325E0,9.592369080E0,5.865794048E-2
3.677645135E0,1.623268723E0,9.582792282E0,6.823474914E-2
3.679638156E0,1.632845521E0,9.563638687E0,7.781155407E-2
3.681631177E0,1.632845521E0,9.554061890E0,1.017535701E-1
3.683624197E0,1.647210717E0,9.520543098E0,1.209071875E-1
3.685617218E0,1.651999116E0,9.515754700E0,1.256955862E-1
3.687610239E0,1.671152830E0,9.515754700E0,1.400607973E-1
3.689603260E0,1.656787634E0,9.506177902E0,1.544260085E-1
3.691596281E0,1.651999116E0,9.501389503E0,1.544260085E-1
3.693589302E0,1.666364431E0,9.491812706E0,1.831564307E-1
3.695582322E0,1.675941229E0,9.491812706E0,1.879448295E-1
3.697575343E0,1.651999116E0,9.491812706E0,1.927332431E-1
3.699568364E0,1.661576033E0,9.506177902E0,1.975216419E-1
3.701561385E0,1.651999116E0,9.515754700E0,1.975216419E-1
3.703554406E0,1.666364431E0,9.515754700E0,2.023100406E-1
3.705547427E0,1.671152830E0,9.520543098E0,1.927332431E-1
3.707540447E0,1.642422318E0,9.515754700E0,1.927332431E-1
3.709533468E0,1.656787634E0,9.534908295E0,1.735796183E-1
3.711526489E0,1.637633920E0,9.544485092E0,1.783680320E-1
3.713519510E0,1.637633920E0,9.549273491E0,1.640028208E-1
3.715512531E0,1.637633920E0,9.573215485E0,1.544260085E-1
3.717505552E0,1.647210717E0,9.601945877E0,1.113303825E-1
3.719498572E0,1.637633920E0,9.587580681E0,1.017535701E-1
3.721491593E0,1.628057122E0,9.597157478E0,7.781155407E-2
3.723484614E0,1.623268723E0,9.625887871E0,9.696517140E-2
3.725477635E0,1.613691926E0,9.630676270E0,6.823474914E-2
3.727470656E0,1.599326730E0,9.640253067E0,7.781155407E-2
3.729463677E0,1.594538331E0,9.649829865E0,4.908113554E-2
3.731456697E0,1.575384736E0,9.668983459E0,5.386953801E-2
3.733449718E0,1.575384736E0,9.678560257E0,3.950432688E-2
3.735442739E0,1.565807939E0,9.702502251E0,3.950432688E-2
3.737435760E0,1.565807939E0,9.707290649E0,4.429273307E-2
3.739428781E0,1.550844193E0,9.683348656E0,3.950432688E-2
3.741421802E0,1.536478996E0,9.702502251E0,4.429273307E-2
3.743414822E0,1.536478996E0,9.702502251E0,6.344634295E-2
3.745407843E0,1.550844193E0,9.692925453E0,3.950432688E-2
3.747400864E0,1.561019540E0,9.678560257E0,5.386953801E-2
3.749393885E0,1.546055794E0,9.664195061E0,5.386953801E-2
3.751386906E0,1.546055794E0,9.664195061E0,6.823474914E-2
3.753379927E0,1.565807939E0,9.640253067E0,8.738835901E-2
3.755372947E0,1.565807939E0,9.635464668E0,7.302315533E-2
3.757365968E0,1.599326730E0,9.630676270E0,8.259996027E-2
3.759358989E0,1.604115129E0,9.621099472E0,6.344634295E-2
3.761352010E0,1.604115129E0,9.621099472E0,7.302315533E-2
3.763345031E0,1.628057122E0,9.606734276E0,5.865794048E-2
3.765338052E0,1.637633920E0,9.587580681E0,3.950432688E-2
3.767331072E0,1.647210717E0,9.592369080E0,3.950432688E-2
3.769324093E0,1.661576033E0,9.611522675E0,3.950432688E-2
3.771317114E0,1.656787634E0,9.601945877E0,2.513911761E-2
3.773310135E0,1.666364431E0,9.625887871E0,1.197100850E-3
3.775303156E0,1.647210717E0,9.659406662E0,-2.274491638E-2
3.777296177E0,1.647210717E0,9.683348656E0,-3.711012751E-2
3.779289197E0,1.618480325E0,9.707290649E0,-2.753331885E-2
3.781282218E0,1.599326730E0,9.726444244E0,-4.668693244E-2
3.783275239E0,1.570596337E0,9.736021042E0,-5.147533491E-2
3.785268260E0,1.546055794E0,9.764751434E0,-5.147533491E-2
3.787261281E0,1.517325282E0,9.779116631E0,-8.020575345E-2
3.789254302E0,1.483806491E0,9.788693428E0,-8.978256583E-2
3.791247322E0,1.459864497E0,9.817423820E0,-7.062894851E-2
3.793240343E0,1.459864497E0,9.827000618E0,-8.020575345E-2
3.795233364E0,1.416768909E0,9.841365814E0,-9.457096457E-2
3.797226385E0,1.426345706E0,9.827000618E0,-8.499415964E-2
3.799219406E0,1.416768909E0,9.836577415E0,-6.105214357E-2
3.801212427E0,1.416768909E0,9.850942612E0,-3.711012751E-2
3.803205447E0,1.402403593E0,9.841365814E0,-3.232172132E-2
3.805198468E0,1.411980510E0,9.831789017E0,-1.316810958E-2
3.807191489E0,1.407191992E0,9.831789017E0,1.556231081E-2
3.809184562E0,1.416768909E0,9.831789017E0,4.429273307E-2
3.811177635E0,1.411980510E0,9.822212219E0,6.344634295E-2
3.813170708E0,1.426345706E0,9.827000618E0,8.259996027E-2
3.815163781E0,1.445499301E0,9.812635422E0,1.017535701E-1
3.817156854E0,1.440710902E0,9.798270226E0,1.256955862E-1
3.819149927E0,1.426345706E0,9.788693428E0,1.544260085E-1
3.821142999E0,1.435922503E0,9.783905029E0,1.735796183E-1
3.823136072E0,1.426345706E0,9.769539833E0,1.687912196E-1
3.825129145E0,1.411980510E0,9.769539833E0,1.735796183E-1
3.827122218E0,1.416768909E0,9.750386238E0,2.023100406E-1
3.829115291E0,1.392826796E0,9.745597839E0,2.262520641E-1
3.831108364E0,1.383249998E0,9.731232643E0,2.358288616E-1
3.833101437E0,1.364096403E0,9.726444244E0,2.214636505E-1
3.835094510E0,1.373673201E0,9.721655846E0,2.070984542E-1
3.837087583E0,1.344942808E0,9.721655846E0,2.070984542E-1
3.839080656E0,1.325789213E0,9.702502251E0,1.975216419E-1
3.841073729E0,1.311424017E0,9.707290649E0,1.783680320E-1
3.843066802E0,1.282693505E0,9.707290649E0,1.687912196E-1
3.845059874E0,1.273116708E0,9.697713852E0,1.352723986E-1
3.847052947E0,1.249174714E0,9.697713852E0,1.304839998E-1
3.849046020E0,1.225232720E0,9.702502251E0,1.161187813E-1
3.851039093E0,1.215655923E0,9.692925453E0,1.017535701E-1
3.853032166E0,1.196502328E0,9.688137054E0,6.344634295E-2
3.855025239E0,1.177348733E0,9.683348656E0,4.429273307E-2
3.857018312E0,1.162983418E0,9.702502251E0,4.429273307E-2
3.859011385E0,1.143829823E0,9.692925453E0,1.556231081E-2
3.861004458E0,1.143829823E0,9.688137054E0,1.556231081E-2
3.862997531E0,1.129464626E0,9.678560257E0,1.197100850E-3
3.864990604E0,1.134253025E0,9.688137054E0,-1.795651205E-2
3.866983677E0,1.124676228E0,9.673771858E0,-2.274491638E-2
3.868976749E0,1.148618221E0,9.683348656E0,-2.274491638E-2
3.870969822E0,1.134253025E0,9.692925453E0,-4.668693244E-2
3.872962895E0,1.167771935E0,9.692925453E0,-4.668693244E-2
3.874955968E0,1.167771935E0,9.688137054E0,-4.668693244E-2
3.876949041E0,1.172560334E0,9.692925453E0,-6.584054977E-2
3.878942114E0,1.182137132E0,9.697713852E0,-6.584054977E-2
3.880935187E0,1.191713929E0,9.692925453E0,-6.105214357E-2
3.882928208E0,1.182137132E0,9.716867447E0,-6.105214357E-2
3.884921229E0,1.201290727E0,9.721655846E0,-5.147533491E-2
3.886914249E0,1.196502328E0,9.740809441E0,-5.626374111E-2
3.888907270E0,1.196502328E0,9.736021042E0,-7.062894851E-2
3.890900291E0,1.177348733E0,9.759963036E0,-7.541735470E-2
3.892893312E0,1.182137132E0,9.783905029E0,-9.935937077E-2
3.894886333E0,1.186925530E0,9.798270226E0,-9.457096457E-2
3.896879354E0,1.143829823E0,9.822212219E0,-9.457096457E-2
3.898872374E0,1.148618221E0,9.827000618E0,-1.137245819E-1
3.900865395E0,1.134253025E0,9.836577415E0,-1.328781992E-1
3.902858416E0,1.139041424E0,9.846154213E0,-1.376665980E-1
3.904851437E0,1.134253025E0,9.831789017E0,-1.424549967E-1
3.906844458E0,1.139041424E0,9.865307808E0,-1.568202078E-1
3.908837479E0,1.124676228E0,9.850942612E0,-1.855506301E-1
3.910830499E0,1.143829823E0,9.836577415E0,-1.855506301E-1
3.912823520E0,1.143829823E0,9.846154213E0,-1.951274425E-1
3.914816541E0,1.143829823E0,9.827000618E0,-1.999158412E-1
3.916809562E0,1.153406620E0,9.812635422E0,-2.190694511E-1
3.918802583E0,1.143829823E0,9.798270226E0,-2.094926536E-1
3.920795604E0,1.153406620E0,9.793481827E0,-2.238578647E-1
3.922788624E0,1.167771935E0,9.779116631E0,-2.094926536E-1
3.924781645E0,1.143829823E0,9.774328232E0,-2.238578647E-1
3.926774666E0,1.158195019E0,9.759963036E0,-2.190694511E-1
3.928767687E0,1.182137132E0,9.731232643E0,-2.047042400E-1
3.930760708E0,1.186925530E0,9.712079048E0,-2.190694511E-1
3.932753729E0,1.177348733E0,9.716867447E0,-2.142810524E-1
3.934746749E0,1.196502328E0,9.702502251E0,-1.951274425E-1
3.936739770E0,1.210867524E0,9.678560257E0,-1.999158412E-1
3.938732791E0,1.206079125E0,9.683348656E0,-1.999158412E-1
3.940725812E0,1.210867524E0,9.678560257E0,-1.759738177E-1
3.942718833E0,1.210867524E0,9.668983459E0,-1.711854190E-1
3.944711854E0,1.220444322E0,9.654618263E0,-1.759738177E-1
3.946704874E0,1.206079125E0,9.668983459E0,-1.568202078E-1
3.948697895E0,1.230021119E0,9.659406662E0,-1.520318091E-1
3.950690916E0,1.215655923E0,9.668983459E0,-1.520318091E-1
3.952683937E0,1.215655923E0,9.678560257E0,-1.520318091E-1
3.954676958E0,1.220444322E0,9.688137054E0,-1.568202078E-1
3.956669979E0,1.177348733E0,9.707290649E0,-1.663970202E-1
3.958662999E0,1.196502328E0,9.716867447E0,-1.472434103E-1
3.960656020E0,1.182137132E0,9.736021042E0,-1.663970202E-1
3.962649041E0,1.177348733E0,9.740809441E0,-1.568202078E-1
3.964642062E0,1.177348733E0,9.769539833E0,-1.568202078E-1
3.966635083E0,1.177348733E0,9.774328232E0,-1.663970202E-1
3.968628104E0,1.172560334E0,9.798270226E0,-1.616086215E-1
3.970621124E0,1.177348733E0,9.803058624E0,-1.711854190E-1
3.972614145E0,1.172560334E0,9.803058624E0,-1.616086215E-1
3.974607166E0,1.206079125E0,9.817423820E0,-1.424549967E-1
3.976600187E0,1.210867524E0,9.822212219E0,-1.663970202E-1
3.978593208E0,1.206079125E0,9.817423820E0,-1.807622313E-1
3.980586229E0,1.239597917E0,9.807847023E0,-1.759738177E-1
3.982579249E0,1.258751512E0,9.807847023E0,-1.951274425E-1
3.984572270E0,1.268328309E0,9.812635422E0,-2.142810524E-1
3.986565291E0,1.277905107E0,9.769539833E0,-2.430114746E-1
3.988558312E0,1.292270422E0,9.774328232E0,-2.382230759E-1
3.990551333E0,1.311424017E0,9.764751434E0,-2.717418969E-1
3.992544354E0,1.321000814E0,9.750386238E0,-2.669534981E-1
3.994537374E0,1.321000814E0,9.716867447E0,-2.525882721E-1
3.996530395E0,1.344942808E0,9.707290649E0,-2.669534981E-1
3.998523416E0,1.359308004E0,9.678560257E0,-2.669534981E-1
4.000516437E0,1.359308004E0,9.678560257E0,-2.861070931E-1
4.002509458E0,1.388038397E0,9.678560257E0,-3.196259141E-1
4.004502479E0,1.397615194E0,9.688137054E0,-3.339911401E-1
4.006495499E0,1.402403593E0,9.668983459E0,-3.387795389E-1
4.008488520E0,1.407191992E0,9.664195061E0,-3.531447649E-1
4.010481541E0,1.378461599E0,9.659406662E0,-3.627215624E-1
4.012474562E0,1.383249998E0,9.635464668E0,-3.818751574E-1
4.014467583E0,1.383249998E0,9.635464668E0,-3.914519846E-1
4.016460604E0,1.368884802E0,9.645041466E0,-3.914519846E-1
4.018453624E0,1.392826796E0,9.635464668E0,-4.010287821E-1
4.020446645E0,1.368884802E0,9.625887871E0,-4.106055796E-1
4.022439718E0,1.388038397E0,9.621099472E0,-3.962403834E-1
4.024432791E0,1.354519606E0,9.621099472E0,-4.010287821E-1
4.026425864E0,1.349731207E0,9.606734276E0,-3.818751574E-1
4.028418937E0,1.340154409E0,9.616311073E0,-4.058171809E-1
4.030412010E0,1.340154409E0,9.616311073E0,-3.722983599E-1
4.032405083E0,1.335366011E0,9.621099472E0,-3.531447649E-1
4.034398156E0,1.330577612E0,9.592369080E0,-3.435679376E-1
4.036391229E0,1.321000814E0,9.597157478E0,-3.052607179E-1
4.038384302E0,1.330577612E0,9.601945877E0,-3.148375154E-1
4.040377374E0,1.325789213E0,9.601945877E0,-2.908954918E-1
4.042370447E0,1.340154409E0,9.587580681E0,-2.621650994E-1
4.044363520E0,1.335366011E0,9.592369080E0,-2.477998734E-1
4.046356593E0,1.349731207E0,9.597157478E0,-2.238578647E-1
4.048349666E0,1.373673201E0,9.601945877E0,-2.238578647E-1
4.050342739E0,1.397615194E0,9.587580681E0,-1.951274425E-1
4.052335812E0,1.392826796E0,9.606734276E0,-1.616086215E-1
4.054328885E0,1.407191992E0,9.597157478E0,-1.759738177E-1
4.056321958E0,1.421557307E0,9.616311073E0,-1.472434103E-1
4.058315031E0,1.440710902E0,9.621099472E0,-1.472434103E-1
4.060308104E0,1.445499301E0,9.606734276E0,-1.328781992E-1
4.062301177E0,1.459864497E0,9.625887871E0,-1.520318091E-1
4.064294249E0,1.483806491E0,9.621099472E0,-1.472434103E-1
4.066287322E0,1.483806491E0,9.616311073E0,-1.568202078E-1
4.068280395E0,1.517325282E0,9.621099472E0,-1.616086215E-1
4.070273468E0,1.517325282E0,9.616311073E0,-1.759738177E-1
4.072266541E0,1.531690478E0,9.654618263E0,-2.142810524E-1
4.074259614E0,1.546055794E0,9.654618263E0,-1.903390288E-1
4.076252687E0,1.556231141E0,9.654618263E0,-1.855506301E-1
4.078245760E0,1.565807939E0,9.664195061E0,-2.190694511E-1
4.080238833E0,1.556231141E0,9.664195061E0,-2.238578647E-1
4.082231906E0,1.565807939E0,9.664195061E0,-2.382230759E-1
4.084224979E0,1.580173135E0,9.678560257E0,-2.334346622E-1
4.086218052E0,1.594538331E0,9.688137054E0,-2.477998734E-1
4.088211124E0,1.561019540E0,9.697713852E0,-2.525882721E-1
4.090204197E0,1.556231141E0,9.726444244E0,-2.477998734E-1
4.092197270E0,1.541267395E0,9.731232643E0,-2.525882721E-1
4.094190343E0,1.531690478E0,9.750386238E0,-2.477998734E-1
4.096183416E0,1.512536883E0,9.750386238E0,-2.334346622E-1
4.098176437E0,1.483806491E0,9.759963036E0,-2.334346622E-1
4.100169458E0,1.479018092E0,9.764751434E0,-2.334346622E-1
4.102162479E0,1.474229693E0,9.759963036E0,-2.238578647E-1
4.104155499E0,1.474229693E0,9.764751434E0,-1.999158412E-1
4.106148520E0,1.479018092E0,9.759963036E0,-1.903390288E-1
4.108141541E0,1.483806491E0,9.745597839E0,-1.999158412E-1
4.110134562E0,1.479018092E0,9.740809441E0,-1.663970202E-1
4.112127583E0,1.479018092E0,9.740809441E0,-1.376665980E-1
4.114120604E0,1.479018092E0,9.740809441E0,-1.089361757E-1
4.116113624E0,1.488594890E0,9.707290649E0,-1.137245819E-1
4.118106645E0,1.498171687E0,9.702502251E0,-8.020575345E-2
4.120099666E0,1.493383288E0,9.673771858E0,-5.626374111E-2
4.122092687E0,1.493383288E0,9.668983459E0,-7.062894851E-2
4.124085708E0,1.469441295E0,9.659406662E0,-5.147533491E-2
4.126078729E0,1.474229693E0,9.649829865E0,-3.711012751E-2
4.128071749E0,1.464652896E0,9.649829865E0,-3.232172132E-2
4.130064770E0,1.455076098E0,9.621099472E0,-3.711012751E-2
4.132057791E0,1.440710902E0,9.630676270E0,-2.753331885E-2
4.134050812E0,1.407191992E0,9.611522675E0,-2.753331885E-2
4.136043833E0,1.397615194E0,9.597157478E0,-3.711012751E-2
4.138036854E0,1.388038397E0,9.597157478E0,-1.795651205E-2
4.140029874E0,1.359308004E0,9.578003883E0,5.985504016E-3
4.142022895E0,1.368884802E0,9.549273491E0,2.992752194E-2
4.144015916E0,1.373673201E0,9.558850288E0,1.197100850E-3
4.146008937E0,1.378461599E0,9.563638687E0,-3.711012751E-2
4.148001958E0,1.335366011E0,9.597157478E0,-7.062894851E-2
4.149994979E0,1.344942808E0,9.573215485E0,-1.089361757E-1
4.151987999E0,1.321000814E0,9.597157478E0,-1.520318091E-1
4.153981020E0,1.340154409E0,9.587580681E0,-1.807622313E-1
4.155974041E0,1.330577612E0,9.601945877E0,-2.047042400E-1
4.157967062E0,1.344942808E0,9.601945877E0,-2.142810524E-1
4.159960083E0,1.330577612E0,9.616311073E0,-2.669534981E-1
4.161953104E0,1.335366011E0,9.621099472E0,-2.525882721E-1
4.163946124E0,1.330577612E0,9.659406662E0,-2.669534981E-1
4.165939145E0,1.306635618E0,9.649829865E0,-2.813186944E-1
