"Time (s)","Gyroscope x (rad/s)","Gyroscope y (rad/s)","Gyroscope z (rad/s)"
9.430701000E-2,2.862813771E-1,4.178376496E-1,-6.009245515E-1
9.630701000E-2,2.809551954E-1,4.242290556E-1,-5.977289081E-1
9.830701000E-2,2.756290436E-1,4.306204617E-1,-5.945332050E-1
1.003070100E-1,2.681724131E-1,4.370118380E-1,-5.902722478E-1
1.023070100E-1,2.585853040E-1,4.380770922E-1,-5.849460959E-1
1.043070100E-1,2.468677461E-1,4.380770922E-1,-5.806851387E-1
1.063070100E-1,2.372806519E-1,4.359466136E-1,-5.774894357E-1
1.083070100E-1,2.266283184E-1,4.295552075E-1,-5.742937326E-1
1.103070100E-1,2.149107605E-1,4.220985770E-1,-5.732285380E-1
1.123070100E-1,2.063889056E-1,4.093157947E-1,-5.764242411E-1
1.143070100E-1,1.968017966E-1,3.901416063E-1,-5.796199441E-1
1.163070100E-1,1.904104054E-1,3.699021637E-1,-5.849460959E-1
1.183070100E-1,1.850842386E-1,3.528584540E-1,-5.881417990E-1
1.203070100E-1,1.776276082E-1,3.358147144E-1,-5.934679508E-1
1.223070100E-1,1.712362021E-1,3.155752718E-1,-6.019898057E-1
1.243070100E-1,1.669752747E-1,2.974663079E-1,-6.094464660E-1
1.263070100E-1,1.584534049E-1,2.772268951E-1,-6.179683208E-1
1.283070100E-1,1.499315500E-1,2.591179311E-1,-6.286206245E-1
1.303070100E-1,1.456706226E-1,2.399437428E-1,-6.382077336E-1
1.323070100E-1,1.403444558E-1,2.250304818E-1,-6.488600373E-1
1.343070100E-1,1.328878254E-1,2.122476846E-1,-6.584471464E-1
1.363070100E-1,1.275616586E-1,2.005301118E-1,-6.669690013E-1
1.383070100E-1,1.211702600E-1,1.930734813E-1,-6.733604074E-1
1.403070100E-1,1.137136221E-1,1.834863871E-1,-6.808170676E-1
1.423070100E-1,1.062569916E-1,1.770949960E-1,-6.861432195E-1
1.443070100E-1,9.986559302E-2,1.749645174E-1,-6.925346255E-1
1.463070100E-1,9.240896255E-2,1.696383655E-1,-6.989260316E-1
1.483070100E-1,8.495233208E-2,1.685731262E-1,-7.031869292E-1
1.503070100E-1,7.643046975E-2,1.653774232E-1,-7.063826323E-1
1.523070100E-1,6.790860742E-2,1.643121988E-1,-7.085131407E-1
1.543070100E-1,5.938674137E-2,1.632469594E-1,-7.106435895E-1
1.563070100E-1,5.086487532E-2,1.611164957E-1,-7.095783353E-1
1.583070100E-1,3.914731368E-2,1.621817350E-1,-7.074478865E-1
1.603070100E-1,2.956021577E-2,1.621817350E-1,-7.031869292E-1
1.623070100E-1,1.997311972E-2,1.632469594E-1,-6.967955232E-1
1.643070100E-1,1.145125460E-2,1.621817350E-1,-6.893389225E-1
1.663070100E-1,2.929390874E-3,1.653774232E-1,-6.829475164E-1
1.683070100E-1,-9.986559860E-3,1.653774232E-1,-6.744256616E-1
1.703070100E-1,-2.063889056E-2,1.685731262E-1,-6.669690013E-1
1.723070100E-1,-3.129122034E-2,1.717688292E-1,-6.627081037E-1
1.743070100E-1,-4.407401755E-2,1.685731262E-1,-6.563166976E-1
1.763070100E-1,-6.005251035E-2,1.632469594E-1,-6.552514434E-1
1.783070100E-1,-8.029194176E-2,1.515294015E-1,-6.573819518E-1
1.803070100E-1,-1.026618332E-1,1.259638071E-1,-6.669690013E-1
1.823070100E-1,-1.303578913E-1,9.613727778E-2,-6.776213646E-1
1.843070100E-1,-1.612496525E-1,6.737598777E-2,-6.914693713E-1
1.863070100E-1,-1.900109351E-1,3.648423031E-2,-7.074478865E-1
1.883070100E-1,-2.209026963E-1,3.462007269E-3,-7.255568504E-1
1.903070100E-1,-2.496639937E-1,-2.636451647E-2,-7.436658144E-1
1.923070100E-1,-2.752295732E-1,-5.619104207E-2,-7.649704814E-1
1.943070100E-1,-2.975994647E-1,-7.856093347E-2,-7.830794454E-1
1.963070100E-1,-3.135779798E-1,-9.773512930E-2,-8.001231551E-1
1.983070100E-1,-3.274259865E-1,-1.094526947E-1,-8.192973733E-1
2.003070100E-1,-3.327521682E-1,-1.137136221E-1,-8.331453800E-1
2.023070100E-1,-3.380783200E-1,-1.147788614E-1,-8.480586410E-1
2.043070100E-1,-3.359478712E-1,-1.083874628E-1,-8.597761989E-1
2.063070100E-1,-3.327521682E-1,-9.666989744E-2,-8.746894598E-1
2.083070100E-1,-3.316869438E-1,-8.814803511E-2,-8.874722719E-1
2.103070100E-1,-3.423392773E-1,-1.062569916E-1,-9.045159817E-1
2.123070100E-1,-3.828181326E-1,-1.584534049E-1,-9.364729524E-1
2.143070100E-1,-4.264926612E-1,-1.776276082E-1,-9.716256857E-1
2.163070100E-1,-4.520582557E-1,-1.563229412E-1,-1.002517462E0
2.183070100E-1,-4.754934013E-1,-1.243659556E-1,-1.028082967E0
2.203070100E-1,-4.967980385E-1,-9.666989744E-2,-1.046191931E0
2.223070100E-1,-5.159722567E-1,-6.151720881E-2,-1.064300895E0
2.243070100E-1,-5.298202634E-1,-2.529928461E-2,-1.079214215E0
2.263070100E-1,-5.426030755E-1,1.837527007E-2,-1.085605621E0
2.283070100E-1,-5.521901846E-1,6.631075591E-2,-1.090931773E0
2.303070100E-1,-5.649729371E-1,1.046591476E-1,-1.096257925E0
2.323070100E-1,-5.681686401E-1,1.579207927E-1,-1.096257925E0
2.343070100E-1,-5.607120395E-1,2.207695395E-1,-1.090931773E0
2.363070100E-1,-5.521901846E-1,2.846835256E-1,-1.082409859E0
2.383070100E-1,-5.415378213E-1,3.454017937E-1,-1.071757555E0
2.403070100E-1,-5.319507122E-1,4.135767221E-1,-1.069627166E0
2.423070100E-1,-5.202331543E-1,4.774906933E-1,-1.064300895E0
2.443070100E-1,-5.042546988E-1,5.360785127E-1,-1.055779099E0
2.463070100E-1,-4.861457348E-1,5.904054046E-1,-1.044061542E0
2.483070100E-1,-4.669715166E-1,6.415365934E-1,-1.031278729E0
2.503070100E-1,-4.446016252E-1,6.884068251E-1,-1.017430663E0
2.523070100E-1,-4.222317338E-1,7.300840616E-1,-1.003582716E0
2.543070100E-1,-4.019923210E-1,7.673672438E-1,-9.918650985E-1
2.563070100E-1,-3.764267266E-1,7.982590199E-1,-9.780170918E-1
2.583070100E-1,-3.519263566E-1,8.227593303E-1,-9.652342796E-1
2.603070100E-1,-3.295564651E-1,8.398030996E-1,-9.513862729E-1
2.623070100E-1,-3.029256463E-1,8.472597003E-1,-9.375382066E-1
2.643070100E-1,-2.784252763E-1,8.504554033E-1,-9.236901999E-1
2.663070100E-1,-2.517944574E-1,8.451292515E-1,-9.066464305E-1
2.683070100E-1,-2.304897904E-1,8.302159905E-1,-8.917331696E-1
2.703070100E-1,-2.059894353E-1,8.057156205E-1,-8.768199086E-1
2.723070100E-1,-1.857500076E-1,7.758890986E-1,-8.608414531E-1
2.743070100E-1,-1.623148769E-1,7.375407219E-1,-8.437976837E-1
2.763070100E-1,-1.420754492E-1,6.916025281E-1,-8.267539740E-1
2.783070100E-1,-1.239664927E-1,6.415365934E-1,-8.107754588E-1
2.803070100E-1,-1.111836955E-1,5.861444473E-1,-7.947970033E-1
2.823070100E-1,-9.733566642E-2,5.254262090E-1,-7.798837423E-1
2.843070100E-1,-8.668334037E-2,4.529903531E-1,-7.692313790E-1
2.863070100E-1,-8.987903595E-2,3.603150845E-1,-7.681661844E-1
2.883070100E-1,-9.413997084E-2,2.761616707E-1,-7.702966332E-1
2.903070100E-1,-9.840089828E-2,2.015953511E-1,-7.724270821E-1
2.923070100E-1,-1.058575287E-1,1.387466043E-1,-7.745575905E-1
2.943070100E-1,-1.122489274E-1,8.548495173E-2,-7.756227851E-1
2.963070100E-1,-1.197055578E-1,4.181039706E-2,-7.745575905E-1
2.983070100E-1,-1.303578913E-1,4.527240526E-3,-7.724270821E-1
3.003070100E-1,-1.388797611E-1,-2.316881903E-2,-7.681661844E-1
3.023070100E-1,-1.463363916E-1,-4.553871229E-2,-7.649704814E-1
3.043070100E-1,-1.537930220E-1,-5.725627393E-2,-7.596443295E-1
3.063070100E-1,-1.601844132E-1,-6.151720881E-2,-7.575138211E-1
3.083070100E-1,-1.623148769E-1,-6.045197323E-2,-7.511224151E-1
3.103070100E-1,-1.655105799E-1,-5.406057462E-2,-7.479267120E-1
3.123070100E-1,-1.623148769E-1,-4.021254554E-2,-7.468615174E-1
3.143070100E-1,-1.591191888E-1,-2.316881903E-2,-7.457962632E-1
3.163070100E-1,-1.537930220E-1,-2.929390874E-3,-7.479267120E-1
3.183070100E-1,-1.463363916E-1,1.944050193E-2,-7.489919662E-1
3.203070100E-1,-1.410102248E-1,4.181039706E-2,-7.553833723E-1
3.223070100E-1,-1.303578913E-1,6.631075591E-2,-7.649704814E-1
3.243070100E-1,-1.197055578E-1,8.548495173E-2,-7.745575905E-1
3.263070100E-1,-1.090532318E-1,1.014634445E-1,-7.852098942E-1
3.283070100E-1,-8.881380409E-2,1.131810099E-1,-8.011884093E-1
3.303070100E-1,-6.963960826E-2,1.163767055E-1,-8.182321191E-1
3.323070100E-1,-4.940018058E-2,1.142462417E-1,-8.374063373E-1
3.343070100E-1,-2.809552103E-2,1.035939083E-1,-8.597761989E-1
3.363070100E-1,-3.595161485E-3,8.548495173E-2,-8.810808659E-1
3.383070100E-1,2.103835158E-2,6.418029219E-2,-9.045159817E-1
3.403469060E-1,4.340824485E-2,3.115806542E-2,-9.268859029E-1
3.423469060E-1,6.790860742E-2,-2.929390874E-3,-9.513862729E-1
3.443846140E-1,8.601756394E-2,-4.447348043E-2,-9.726908803E-1
3.463846140E-1,1.062569916E-1,-9.666989744E-2,-9.961260557E-1
3.484202910E-1,1.254311949E-1,-1.488663107E-1,-1.017430663E0
3.504202910E-1,1.371487528E-1,-2.095845938E-1,-1.038735390E0
3.524539890E-1,1.509967744E-1,-2.734985650E-1,-1.060039997E0
3.544539890E-1,1.595186442E-1,-3.427387178E-1,-1.079214215E0
3.564857600E-1,1.680405140E-1,-4.130440950E-1,-1.097323179E0
3.584857600E-1,1.669752747E-1,-4.844147265E-1,-1.115432143E0
3.605157080E-1,1.648448110E-1,-5.600462556E-1,-1.133541107E0
3.625157080E-1,1.627143472E-1,-6.303516626E-1,-1.149519563E0
3.645438850E-1,1.573881805E-1,-6.995918155E-1,-1.164432883E0
3.665438850E-1,1.435401440E-1,-7.624405622E-1,-1.179346085E0
3.685703950E-1,1.339530498E-1,-8.210283518E-1,-1.194259405E0
3.705703950E-1,1.190397888E-1,-8.753552437E-1,-1.208107352E0
3.725952910E-1,1.009308323E-1,-9.254211783E-1,-1.218759775E0
3.745952910E-1,8.282186836E-2,-9.690957665E-1,-1.233672976E0
3.766186240E-1,6.151720881E-2,-1.008509398E0,-1.246455789E0
3.786186240E-1,3.914731368E-2,-1.044727325E0,-1.254977703E0
3.806404470E-1,1.677742042E-2,-1.073488593E0,-1.265630007E0
3.826404470E-1,-3.595161485E-3,-1.099054217E0,-1.275217056E0
3.846608640E-1,-3.022598661E-2,-1.119293571E0,-1.284804225E0
3.866997700E-1,-5.153064802E-2,-1.132076383E0,-1.292260766E0
3.886997700E-1,-7.283531129E-2,-1.141663551E0,-1.298652172E0
3.907169580E-1,-9.733566642E-2,-1.144859195E0,-1.307174087E0
3.927497180E-1,-1.165098622E-1,-1.145924449E0,-1.313565493E0
3.947497180E-1,-1.378145218E-1,-1.144859195E0,-1.321022153E0
3.967640930E-1,-1.580539495E-1,-1.142728686E0,-1.328478694E0
3.987913850E-1,-1.804238409E-1,-1.141663551E0,-1.335935354E0
4.008297180E-1,-1.953371018E-1,-1.137402534E0,-1.343392015E0
4.028297180E-1,-2.081198990E-1,-1.133141637E0,-1.351913810E0
4.048397700E-1,-2.219679356E-1,-1.129945874E0,-1.358305216E0
4.068587810E-1,-2.272941023E-1,-1.121424079E0,-1.363631368E0
4.088853430E-1,-2.272941023E-1,-1.107576013E0,-1.370022774E0
4.109178430E-1,-2.240983993E-1,-1.095858455E0,-1.375349045E0
4.129544580E-1,-2.209026963E-1,-1.077749491E0,-1.378544688E0
4.149932600E-1,-2.155765295E-1,-1.057510138E0,-1.383870840E0
4.170323220E-1,-2.091851383E-1,-1.033009768E0,-1.387066603E0
4.190328430E-1,-2.038589716E-1,-1.011705041E0,-1.388131738E0
4.210259160E-1,-1.985328048E-1,-9.893351793E-1,-1.388131738E0
4.230189370E-1,-1.964023411E-1,-9.765523672E-1,-1.386001348E0
4.250119580E-1,-1.942718774E-1,-9.744219184E-1,-1.384936094E0
4.270049790E-1,-1.964023411E-1,-9.754871130E-1,-1.387066603E0
4.289979990E-1,-1.974675655E-1,-9.829437733E-1,-1.392392755E0
4.309910200E-1,-1.964023411E-1,-9.861394763E-1,-1.396653652E0
4.329840410E-1,-1.942718774E-1,-9.797480702E-1,-1.400914550E0
4.349770620E-1,-1.836195439E-1,-9.648348093E-1,-1.401979804E0
4.369700830E-1,-1.687062830E-1,-9.350082874E-1,-1.404110312E0
4.389631040E-1,-1.420754492E-1,-8.913337588E-1,-1.406240702E0
4.409561240E-1,-1.079879999E-1,-8.199630976E-1,-1.412632108E0
4.429491450E-1,-6.431344151E-2,-7.315487862E-1,-1.425414920E0
4.449421660E-1,-1.318225823E-2,-6.601781845E-1,-1.438197732E0
4.469351870E-1,2.742975019E-2,-6.079817414E-1,-1.446719646E0
4.489282080E-1,7.110430300E-2,-5.728290677E-1,-1.456306696E0
4.509212290E-1,1.051917598E-1,-5.483286977E-1,-1.457371950E0
4.529142490E-1,1.382139921E-1,-5.291544795E-1,-1.457371950E0
4.549072700E-1,1.691057384E-1,-5.153064728E-1,-1.452045798E0
4.569002910E-1,1.957365721E-1,-5.099803209E-1,-1.443523884E0
4.588933120E-1,2.181064636E-1,-5.121107697E-1,-1.430741072E0
4.608863330E-1,2.340849638E-1,-5.227631330E-1,-1.414762616E0
4.628793540E-1,2.468677461E-1,-5.408720970E-1,-1.401979804E0
4.648723740E-1,2.564548552E-1,-5.696333647E-1,-1.387066603E0
4.668653950E-1,2.617810071E-1,-6.015903354E-1,-1.376414180E0
4.688584160E-1,2.660419345E-1,-6.441996694E-1,-1.366827130E0
4.708514370E-1,2.649767101E-1,-6.900047064E-1,-1.361500978E0
4.728444580E-1,2.617810071E-1,-7.432663441E-1,-1.360435724E0
4.748374790E-1,2.617810071E-1,-7.954627872E-1,-1.361500978E0
4.768304990E-1,2.564548552E-1,-8.529853225E-1,-1.365761876E0
4.788235200E-1,2.532591522E-1,-9.062470198E-1,-1.371088028E0
4.808165410E-1,2.500634491E-1,-9.563129544E-1,-1.381740332E0
4.828095620E-1,2.468677461E-1,-1.001052737E0,-1.391327500E0
4.848025830E-1,2.447372824E-1,-1.041531563E0,-1.399849296E0
4.867956040E-1,2.458025217E-1,-1.075619102E0,-1.409436464E0
4.887886240E-1,2.468677461E-1,-1.107576013E0,-1.417958260E0
4.907816450E-1,2.468677461E-1,-1.133141637E0,-1.424349666E0
4.927746660E-1,2.511286736E-1,-1.157642007E0,-1.428610682E0
4.947676870E-1,2.575200796E-1,-1.177881360E0,-1.431806326E0
4.967607080E-1,2.617810071E-1,-1.194925189E0,-1.432871580E0
4.987537290E-1,2.660419345E-1,-1.210903645E0,-1.432871580E0
5.007467490E-1,2.745638192E-1,-1.221555948E0,-1.428610682E0
5.027397700E-1,2.788247466E-1,-1.236469269E0,-1.425414920E0
5.047327910E-1,2.820204496E-1,-1.259904385E0,-1.422219276E0
5.067258120E-1,2.841508985E-1,-1.286535144E0,-1.417958260E0
5.087188330E-1,2.820204496E-1,-1.317426920E0,-1.413697362E0
5.107118540E-1,2.766942680E-1,-1.355775356E0,-1.408371210E0
5.127048740E-1,2.649767101E-1,-1.394123673E0,-1.404110312E0
5.146978950E-1,2.511286736E-1,-1.429276466E0,-1.399849296E0
5.166909160E-1,2.351501882E-1,-1.461233377E0,-1.397718906E0
5.186839370E-1,2.159759998E-1,-1.485733747E0,-1.396653652E0
5.206769580E-1,1.968017966E-1,-1.510234118E0,-1.394523144E0
5.226699790E-1,1.754971445E-1,-1.526212573E0,-1.393458009E0
5.246629990E-1,1.573881805E-1,-1.537930131E0,-1.390262246E0
5.266560200E-1,1.424749196E-1,-1.542191148E0,-1.389196992E0
5.286490410E-1,1.243659556E-1,-1.528343081E0,-1.380675197E0
5.306420620E-1,9.986559302E-2,-1.475081444E0,-1.361500978E0
5.326350830E-1,6.151720881E-2,-1.387732267E0,-1.325283051E0
5.346281040E-1,1.571218669E-2,-1.289730906E0,-1.274151802E0
5.366211240E-1,-2.916075476E-2,-1.205577493E0,-1.209172606E0
5.386141450E-1,-7.390054315E-2,-1.134206891E0,-1.142062902E0
5.406071660E-1,-1.143793985E-1,-1.088401794E0,-1.084540367E0
5.426001870E-1,-1.548582464E-1,-1.070292830E0,-1.038735390E0
5.445932080E-1,-1.804238409E-1,-1.099054217E0,-1.003582716E0
5.465862290E-1,-1.995980442E-1,-1.154446244E0,-9.758865833E-1
5.485792490E-1,-2.251636237E-1,-1.189599037E0,-9.535167217E-1
5.505722700E-1,-2.581858635E-1,-1.204512239E0,-9.343425035E-1
5.525652910E-1,-3.018604219E-1,-1.208773136E0,-9.162335396E-1
5.545583120E-1,-3.476654291E-1,-1.209838390E0,-8.981245756E-1
5.565513330E-1,-3.934704363E-1,-1.203446984E0,-8.842765689E-1
5.585443540E-1,-4.435364008E-1,-1.189599037E0,-8.725590110E-1
5.605373740E-1,-4.904066622E-1,-1.168294311E0,-8.640371561E-1
5.625303950E-1,-5.308855176E-1,-1.138467789E0,-8.608414531E-1
5.645234160E-1,-5.660381913E-1,-1.105445623E0,-8.682980537E-1
5.665164370E-1,-5.841471553E-1,-1.061771035E0,-8.864070177E-1
5.685094580E-1,-5.926690102E-1,-1.006378889E0,-9.162335396E-1
5.705024790E-1,-5.873428583E-1,-9.413996935E-1,-9.556471705E-1
5.724954990E-1,-5.702991486E-1,-8.732247949E-1,-9.939955473E-1
5.744885200E-1,-5.426030755E-1,-8.007889390E-1,-1.029148221E0
5.764815410E-1,-5.138418078E-1,-7.326140404E-1,-1.054713845E0
5.784745620E-1,-4.829500318E-1,-6.708304882E-1,-1.070692301E0
5.804675830E-1,-4.509930313E-1,-6.175688505E-1,-1.072822809E0
5.824606040E-1,-4.222317338E-1,-5.717638135E-1,-1.068561912E0
5.844536240E-1,-3.924052119E-1,-5.387415886E-1,-1.055779099E0
5.864466450E-1,-3.753614724E-1,-4.876104295E-1,-1.068561912E0
5.884396660E-1,-3.572525382E-1,-4.439358711E-1,-1.085605621E0
5.904326870E-1,-3.476654291E-1,-3.981308341E-1,-1.102649331E0
5.924257080E-1,-3.338173926E-1,-3.693695366E-1,-1.111171246E0
5.944187290E-1,-3.157084286E-1,-3.683043122E-1,-1.107975483E0
5.964117490E-1,-2.869471312E-1,-3.810871243E-1,-1.102649331E0
5.984047700E-1,-2.539249361E-1,-4.098483920E-1,-1.095192671E0
6.003977910E-1,-2.166417688E-1,-4.524577260E-1,-1.086670876E0
6.023908120E-1,-1.804238409E-1,-5.057193637E-1,-1.076018453E0
6.043838330E-1,-1.399449855E-1,-5.653724074E-1,-1.062170506E0
6.063768540E-1,-1.026618332E-1,-6.260907054E-1,-1.044061542E0
6.083698740E-1,-6.431344151E-2,-6.878741980E-1,-1.024887323E0
6.103628950E-1,-2.703028731E-2,-7.496577501E-1,-1.000386953E0
6.123559160E-1,9.320789017E-3,-8.082455397E-1,-9.737561345E-1
6.143489370E-1,4.127778113E-2,-8.615072370E-1,-9.449948668E-1
6.163419580E-1,6.790860742E-2,-9.105079174E-1,-9.172987938E-1
6.183349790E-1,9.027849883E-2,-9.456605911E-1,-8.917331696E-1
6.203279990E-1,1.030612960E-1,-9.637695551E-1,-8.746894598E-1
6.223210200E-1,1.073222235E-1,-9.659000635E-1,-8.651023507E-1
6.243140410E-1,1.019960642E-1,-9.488562942E-1,-8.619066477E-1
6.263070620E-1,9.240896255E-2,-9.264864326E-1,-8.714937568E-1
6.283000830E-1,9.027849883E-2,-9.168993235E-1,-8.874722719E-1
6.302931040E-1,8.708280325E-2,-9.083774686E-1,-9.066464305E-1
6.322861240E-1,8.814803511E-2,-8.955946565E-1,-9.268859029E-1
6.342791450E-1,8.282186836E-2,-8.742899895E-1,-9.460600615E-1
6.362721660E-1,8.175663650E-2,-8.508548737E-1,-9.631038308E-1
6.382651870E-1,8.388710022E-2,-8.306154609E-1,-9.918650985E-1
6.402582080E-1,8.388710022E-2,-8.061150908E-1,-1.048322439E0
6.422512290E-1,8.495233208E-2,-7.773538232E-1,-1.090931773E0
6.442442490E-1,9.240896255E-2,-7.464620471E-1,-1.122888803E0
6.462372700E-1,9.986559302E-2,-7.177007794E-1,-1.148454309E0
6.482302910E-1,1.147788614E-1,-6.974613070E-1,-1.166563272E0
6.502233120E-1,1.296921223E-1,-6.878741980E-1,-1.177215695E0
6.522163330E-1,1.478010863E-1,-6.921351552E-1,-1.181476593E0
6.542093540E-1,1.712362021E-1,-7.059831619E-1,-1.177215695E0
6.562023740E-1,1.968017966E-1,-7.304835320E-1,-1.169759035E0
6.581953950E-1,2.223673910E-1,-7.635057569E-1,-1.154845715E0
6.601884160E-1,2.585853040E-1,-8.093107939E-1,-1.135671616E0
6.621814370E-1,2.958684862E-1,-8.689638376E-1,-1.112236381E0
6.641744580E-1,3.406082690E-1,-9.477910995E-1,-1.082409859E0
6.661674790E-1,3.853480518E-1,-1.023422599E0,-1.046191931E0
6.681604990E-1,4.247616827E-1,-1.099054217E0,-1.009974003E0
6.701535200E-1,4.631100595E-1,-1.168294311E0,-9.705604315E-1
6.721465410E-1,4.982627332E-1,-1.233273506E0,-9.375382066E-1
6.741396140E-1,5.291544795E-1,-1.285470009E0,-9.077116847E-1
6.761326870E-1,5.600462556E-1,-1.325948834E0,-8.821461201E-1
6.781257600E-1,5.962641835E-1,-1.344057798E0,-8.661676049E-1
6.801188330E-1,6.463301182E-1,-1.316361666E0,-8.597761989E-1
6.821119060E-1,6.889394522E-1,-1.297187567E0,-8.608414531E-1
6.841049790E-1,7.272878289E-1,-1.286535144E0,-8.672328591E-1
6.860980520E-1,7.667014599E-1,-1.282274246E0,-8.725590110E-1
6.880911240E-1,7.997236848E-1,-1.271621943E0,-8.832113147E-1
6.900841970E-1,8.327459097E-1,-1.256708622E0,-8.981245756E-1
6.920772700E-1,8.615072370E-1,-1.241795421E0,-9.130378366E-1
6.940703430E-1,8.902685046E-1,-1.234338760E0,-9.332773089E-1
6.960634160E-1,9.190297723E-1,-1.220490694E0,-9.524514675E-1
6.980564890E-1,9.499215484E-1,-1.216229796E0,-9.694951773E-1
7.000495620E-1,9.754871130E-1,-1.240730166E0,-9.822779894E-1
7.020426350E-1,1.002117991E0,-1.318492174E0,-9.737561345E-1
7.040357080E-1,1.022357345E0,-1.370688558E0,-9.673647285E-1
7.060287810E-1,1.039401174E0,-1.401580334E0,-9.609733224E-1
7.080218540E-1,1.054314375E0,-1.418624043E0,-9.556471705E-1
7.100149270E-1,1.068162441E0,-1.419689298E0,-9.492557645E-1
7.120079990E-1,1.075619102E0,-1.418624043E0,-9.449948668E-1
7.140010720E-1,1.085206151E0,-1.405841231E0,-9.375382066E-1
7.159941450E-1,1.093728065E0,-1.388797522E0,-9.311468005E-1
7.179872180E-1,1.092662811E0,-1.370688558E0,-9.247553945E-1
7.199802910E-1,1.089467049E0,-1.361101508E0,-9.162335396E-1
7.219733640E-1,1.076684237E0,-1.362166762E0,-9.055812359E-1
7.239664370E-1,1.044727325E0,-1.389862776E0,-8.938636780E-1
7.259595100E-1,1.013835549E0,-1.404776096E0,-8.821461201E-1
7.279525830E-1,9.786828160E-1,-1.414363146E0,-8.693633080E-1
7.299456560E-1,9.413996935E-1,-1.422885060E0,-8.608414531E-1
7.319387290E-1,9.019860625E-1,-1.430341601E0,-8.512543440E-1
7.339318020E-1,8.625724316E-1,-1.443124413E0,-8.437976837E-1
7.359248220E-1,8.188979030E-1,-1.458037734E0,-8.406019807E-1
7.379178430E-1,7.762885690E-1,-1.477211952E0,-8.363410830E-1
7.399108640E-1,7.347444892E-1,-1.498516560E0,-8.352758288E-1
7.419038850E-1,6.953308582E-1,-1.523016930E0,-8.342106342E-1
7.438969060E-1,6.537867785E-1,-1.548582554E0,-8.352758288E-1
7.458899270E-1,6.111774445E-1,-1.579474211E0,-8.363410830E-1
7.478829470E-1,5.749595165E-1,-1.608235598E0,-8.384715319E-1
7.498759680E-1,5.355458856E-1,-1.642323017E0,-8.416672349E-1
7.518689890E-1,4.950670600E-1,-1.679606199E0,-8.437976837E-1
7.538620100E-1,4.545882046E-1,-1.716889381E0,-8.459281921E-1
7.558550310E-1,4.173050225E-1,-1.757368207E0,-8.512543440E-1
7.578480520E-1,3.768261969E-1,-1.797847033E0,-8.565804958E-1
7.598410720E-1,3.406082690E-1,-1.841521621E0,-8.597761989E-1
7.618340930E-1,3.033251166E-1,-1.885196090E0,-8.661676049E-1
7.638271140E-1,2.681724131E-1,-1.928870678E0,-8.736242056E-1
7.658201350E-1,2.340849638E-1,-1.975740910E0,-8.789504170E-1
7.678131560E-1,2.053236663E-1,-2.017285109E0,-8.832113147E-1
7.698061770E-1,1.733666807E-1,-2.058829069E0,-8.885374665E-1
7.717991970E-1,1.435401440E-1,-2.100373268E0,-8.917331696E-1
7.737922180E-1,1.137136221E-1,-2.138721704E0,-8.917331696E-1
7.757852390E-1,8.708280325E-2,-2.173874378E0,-8.906679749E-1
7.777782600E-1,5.619104207E-2,-2.207961798E0,-8.885374665E-1
7.797712810E-1,2.742975019E-2,-2.239918709E0,-8.842765689E-1
7.817643020E-1,-3.595161485E-3,-2.267614841E0,-8.789504170E-1
7.837573220E-1,-3.342168778E-2,-2.296375990E0,-8.693633080E-1
7.857503430E-1,-6.324820966E-2,-2.316615582E0,-8.597761989E-1
7.877433640E-1,-9.200949967E-2,-2.336854935E0,-8.480586410E-1
7.897363850E-1,-1.207707971E-1,-2.350703001E0,-8.363410830E-1
7.917294060E-1,-1.505973190E-1,-2.362420559E0,-8.203625679E-1
7.937224270E-1,-1.793586165E-1,-2.375203371E0,-8.054493070E-1
7.957154470E-1,-2.081198990E-1,-2.383725166E0,-7.852098942E-1
7.977084680E-1,-2.400768995E-1,-2.389051437E0,-7.660356760E-1
7.997014890E-1,-2.720338702E-1,-2.399703741E0,-7.447310090E-1
8.016945100E-1,-3.018604219E-1,-2.409290791E0,-7.212958932E-1
8.036875310E-1,-3.348826170E-1,-2.419943094E0,-6.967955232E-1
8.056805520E-1,-3.668396175E-1,-2.431660652E0,-6.733604074E-1
8.076735720E-1,-3.987966180E-1,-2.443378210E0,-6.509905457E-1
8.096665930E-1,-4.360797703E-1,-2.455095768E0,-6.296858788E-1
8.116596140E-1,-4.701672196E-1,-2.466813326E0,-6.105116606E-1
8.136526350E-1,-5.074504018E-1,-2.478530884E0,-5.913375020E-1
8.156456560E-1,-5.489944816E-1,-2.485987663E0,-5.774894357E-1
8.176386770E-1,-5.916038156E-1,-2.492378950E0,-5.636414289E-1
8.196316970E-1,-6.342130899E-1,-2.492378950E0,-5.561847687E-1
8.216247180E-1,-6.778876781E-1,-2.490248442E0,-5.519238710E-1
8.236177390E-1,-7.215622067E-1,-2.483857155E0,-5.508586168E-1
8.256107600E-1,-7.641715407E-1,-2.474270105E0,-5.529890656E-1
8.276037810E-1,-8.046503663E-1,-2.461487293E0,-5.593804717E-1
8.295968020E-1,-8.387378454E-1,-2.445508718E0,-5.679023266E-1
8.315898220E-1,-8.749557734E-1,-2.430595398E0,-5.774894357E-1
8.335828430E-1,-9.037170410E-1,-2.415682077E0,-5.881417990E-1
8.355758640E-1,-9.303479195E-1,-2.400768995E0,-5.987941027E-1
8.375688850E-1,-9.516525269E-1,-2.389051437E0,-6.115769148E-1
8.395619060E-1,-9.665657878E-1,-2.376268625E0,-6.243597269E-1
8.415549270E-1,-9.804138541E-1,-2.364551067E0,-6.360772848E-1
8.435479470E-1,-9.878704548E-1,-2.354964018E0,-6.477948427E-1
8.455409680E-1,-9.921314120E-1,-2.349637747E0,-6.573819518E-1
8.475339890E-1,-9.910661578E-1,-2.341115952E0,-6.701647043E-1
8.495270100E-1,-9.868052602E-1,-2.338985443E0,-6.818822622E-1
8.515200310E-1,-9.782834053E-1,-2.338985443E0,-6.904041767E-1
8.535130520E-1,-9.697614908E-1,-2.341115952E0,-7.010564804E-1
8.555060720E-1,-9.559134841E-1,-2.343246460E0,-7.085131407E-1
8.574990930E-1,-9.431306720E-1,-2.346441984E0,-7.149044871E-1
8.594921140E-1,-9.271522164E-1,-2.349637747E0,-7.202306986E-1
8.614851350E-1,-9.111737013E-1,-2.357094288E0,-7.276872993E-1
8.634781560E-1,-8.973256946E-1,-2.364551067E0,-7.330134511E-1
8.654711770E-1,-8.792167306E-1,-2.373072863E0,-7.372744083E-1
8.674641970E-1,-8.611077666E-1,-2.382659912E0,-7.436658144E-1
8.694572180E-1,-8.461945057E-1,-2.396507978E0,-7.479267120E-1
8.714502390E-1,-8.302159905E-1,-2.413551807E0,-7.532529235E-1
8.734432600E-1,-8.121070266E-1,-2.435921669E0,-7.575138211E-1
8.754362810E-1,-7.971937656E-1,-2.460422039E0,-7.628399730E-1
8.774293020E-1,-7.790848017E-1,-2.491313696E0,-7.671009302E-1
8.794223220E-1,-7.663019896E-1,-2.520075083E0,-7.724270821E-1
8.814153430E-1,-7.524539828E-1,-2.554162502E0,-7.745575905E-1
8.834083640E-1,-7.396711707E-1,-2.586119413E0,-7.766880393E-1
8.854013850E-1,-7.300840616E-1,-2.614880800E0,-7.777532339E-1
8.873944060E-1,-7.236927152E-1,-2.644707203E0,-7.766880393E-1
8.893874270E-1,-7.204970121E-1,-2.671338081E0,-7.745575905E-1
8.913804470E-1,-7.204970121E-1,-2.693707943E0,-7.745575905E-1
8.933734680E-1,-7.215622067E-1,-2.708621264E0,-7.702966332E-1
8.953664890E-1,-7.258231640E-1,-2.722469330E0,-7.649704814E-1
8.973595100E-1,-7.354102731E-1,-2.737382650E0,-7.596443295E-1
8.993525310E-1,-7.439321280E-1,-2.753360987E0,-7.521876693E-1
9.013455520E-1,-7.545844316E-1,-2.766143799E0,-7.426005602E-1
9.033385720E-1,-7.673672438E-1,-2.772535324E0,-7.319482565E-1
9.053315930E-1,-7.801500559E-1,-2.776796103E0,-7.212958932E-1
9.073246140E-1,-7.929328084E-1,-2.778926611E0,-7.095783353E-1
9.093176350E-1,-8.067808747E-1,-2.776796103E0,-6.989260316E-1
9.113106560E-1,-8.216941357E-1,-2.770404816E0,-6.872084737E-1
9.133036770E-1,-8.344769478E-1,-2.765078545E0,-6.765561104E-1
9.152966970E-1,-8.472597003E-1,-2.754426241E0,-6.659038067E-1
9.172897180E-1,-8.579120636E-1,-2.742708683E0,-6.541862488E-1
9.192827390E-1,-8.664339185E-1,-2.727795362E0,-6.414034367E-1
9.212757600E-1,-8.728253245E-1,-2.706490755E0,-6.296858788E-1
9.232687810E-1,-8.781514764E-1,-2.686251402E0,-6.179683208E-1
9.252618020E-1,-8.792167306E-1,-2.661751032E0,-6.062507629E-1
9.272548220E-1,-8.770862222E-1,-2.632989645E0,-5.924026966E-1
9.292478430E-1,-8.728253245E-1,-2.606359005E0,-5.796199441E-1
9.312408640E-1,-8.674991727E-1,-2.577597618E0,-5.668371320E-1
9.332338850E-1,-8.579120636E-1,-2.544575453E0,-5.540543199E-1
9.352269060E-1,-8.440639973E-1,-2.509422779E0,-5.402063131E-1
9.372199270E-1,-8.302159905E-1,-2.479596138E0,-5.263582468E-1
9.392129470E-1,-8.089113235E-1,-2.445508718E0,-5.125102401E-1
9.412059680E-1,-7.854762077E-1,-2.410356045E0,-4.975969791E-1
9.431989890E-1,-7.609758377E-1,-2.373072863E0,-4.837489426E-1
9.451920100E-1,-7.322145700E-1,-2.330463648E0,-4.677704573E-1
9.471850310E-1,-7.023880482E-1,-2.289984703E0,-4.496614933E-1
9.491780520E-1,-6.725615263E-1,-2.249505758E0,-4.304873049E-1
9.511710720E-1,-6.416697502E-1,-2.207961798E0,-4.113130867E-1
9.531640930E-1,-6.118432283E-1,-2.168548107E0,-3.889431953E-1
9.551571140E-1,-5.809514523E-1,-2.130199671E0,-3.665733039E-1
9.571501350E-1,-5.500596762E-1,-2.097177505E0,-3.431381881E-1
9.591431560E-1,-5.223636627E-1,-2.064155340E0,-3.186378181E-1
9.611361770E-1,-4.967980385E-1,-2.037524462E0,-2.983984053E-1
9.631291970E-1,-4.712324440E-1,-2.009828329E0,-2.749632597E-1
9.651222180E-1,-4.499278069E-1,-1.986393332E0,-2.536586225E-1
9.671152910E-1,-4.350145459E-1,-1.965088606E0,-2.334191799E-1
9.691083640E-1,-4.190360308E-1,-1.946979642E0,-2.142449915E-1
9.711014370E-1,-4.073184729E-1,-1.933131576E0,-1.950708032E-1
9.730945100E-1,-3.987966180E-1,-1.923544526E0,-1.801575422E-1
9.750875830E-1,-3.913399875E-1,-1.912892222E0,-1.673747450E-1
9.770806560E-1,-3.892095089E-1,-1.907566071E0,-1.535267085E-1
9.790737290E-1,-3.849485815E-1,-1.902239919E0,-1.418091506E-1
9.810668020E-1,-3.838833570E-1,-1.900109410E0,-1.311568171E-1
9.830598740E-1,-3.870790601E-1,-1.901174664E0,-1.205044836E-1
9.850529470E-1,-3.892095089E-1,-1.900109410E0,-1.141130850E-1
9.870460200E-1,-3.966661394E-1,-1.902239919E0,-1.087869257E-1
9.890390930E-1,-4.041227698E-1,-1.905435562E0,-1.034607589E-1
9.910321660E-1,-4.094489515E-1,-1.906500816E0,-1.023955271E-1
9.930252390E-1,-4.179708064E-1,-1.910761714E0,-1.023955271E-1
9.950183120E-1,-4.296883643E-1,-1.912892222E0,-1.045259908E-1
9.970113850E-1,-4.392754734E-1,-1.917153120E0,-1.087869257E-1
9.990044580E-1,-4.499278069E-1,-1.922479272E0,-1.130478531E-1
1.000997531E0,-4.616453648E-1,-1.931001186E0,-1.226349548E-1
1.002990604E0,-4.691019952E-1,-1.938457847E0,-1.322220564E-1
1.004983677E0,-4.776238501E-1,-1.950175405E0,-1.407439113E-1
1.006976749E0,-4.861457348E-1,-1.964023352E0,-1.524614692E-1
1.008969822E0,-4.925371110E-1,-1.978936672E0,-1.631138027E-1
1.010962895E0,-4.978632927E-1,-1.993849874E0,-1.769618392E-1
1.012955968E0,-5.042546988E-1,-2.014089346E0,-1.897446364E-1
1.014949041E0,-5.074504018E-1,-2.034328699E0,-2.046578974E-1
1.016942114E0,-5.085155964E-1,-2.054568291E0,-2.195711583E-1
1.018935187E0,-5.085155964E-1,-2.074807644E0,-2.387453467E-1
1.020928260E0,-5.106461048E-1,-2.093981743E0,-2.547238469E-1
1.022921333E0,-5.085155964E-1,-2.113156080E0,-2.728328109E-1
1.024914406E0,-5.042546988E-1,-2.131264925E0,-2.898765504E-1
1.026907479E0,-4.999937415E-1,-2.150439262E0,-3.090507388E-1
1.028900499E0,-4.946675897E-1,-2.174939632E0,-3.292901516E-1
1.030893520E0,-4.850804806E-1,-2.196244240E0,-3.484643400E-1
1.032886541E0,-4.776238501E-1,-2.217548847E0,-3.687037826E-1
1.034879562E0,-4.659062922E-1,-2.246310234E0,-3.878779709E-1
1.036872583E0,-4.552539587E-1,-2.269745350E0,-4.070521593E-1
1.038865604E0,-4.424711764E-1,-2.295310974E0,-4.240958989E-1
1.040858624E0,-4.275579154E-1,-2.323006868E0,-4.390091598E-1
1.042851645E0,-4.137098789E-1,-2.345376730E0,-4.517919421E-1
1.044844666E0,-3.998618424E-1,-2.370942354E0,-4.656399786E-1
1.046837687E0,-3.828181326E-1,-2.395442724E0,-4.730966091E-1
1.048830708E0,-3.700353205E-1,-2.421008348E0,-4.794880152E-1
1.050823729E0,-3.551220596E-1,-2.444443464E0,-4.858794212E-1
1.052816749E0,-3.423392773E-1,-2.472139597E0,-4.880098701E-1
1.054809770E0,-3.274259865E-1,-2.497705221E0,-4.869446456E-1
1.056802791E0,-3.146432042E-1,-2.523270607E0,-4.858794212E-1
1.058795812E0,-3.007951677E-1,-2.546705961E0,-4.816184938E-1
1.060788833E0,-2.848166823E-1,-2.569075823E0,-4.762923121E-1
1.062781854E0,-2.720338702E-1,-2.589315176E0,-4.677704573E-1
1.064774874E0,-2.581858635E-1,-2.610619783E0,-4.592485726E-1
1.066767895E0,-2.432725877E-1,-2.627663612E0,-4.454005659E-1
1.068760916E0,-2.336854935E-1,-2.640446424E0,-4.336830080E-1
1.070753937E0,-2.230331600E-1,-2.653229237E0,-4.177044928E-1
1.072746958E0,-2.145113051E-1,-2.663881540E0,-3.985303044E-1
1.074739979E0,-2.059894353E-1,-2.672403336E0,-3.772256374E-1
1.076732999E0,-1.995980442E-1,-2.675599098E0,-3.537905216E-1
1.078726020E0,-1.953371018E-1,-2.673468590E0,-3.250292242E-1
1.080719041E0,-1.900109351E-1,-2.667077065E0,-2.941374779E-1
1.082712062E0,-1.889457107E-1,-2.652163982E0,-2.568543255E-1
1.084705083E0,-1.889457107E-1,-2.628728867E0,-2.153102309E-1
1.086698104E0,-1.889457107E-1,-2.597836971E0,-1.705704331E-1
1.088691124E0,-1.910761744E-1,-2.561619043E0,-1.226349548E-1
1.090684145E0,-1.942718774E-1,-2.514748812E0,-6.937330216E-2
1.092677166E0,-2.006632686E-1,-2.468943834E0,-1.185071748E-2
1.094670187E0,-2.059894353E-1,-2.417812586E0,4.567186534E-2
1.096663208E0,-2.134460658E-1,-2.367746592E0,1.095858440E-1
1.098656229E0,-2.240983993E-1,-2.316615582E0,1.734998226E-1
1.100649249E0,-2.358159572E-1,-2.265484333E0,2.384790480E-1
1.102642270E0,-2.485987544E-1,-2.218614101E0,3.045234978E-1
1.104635291E0,-2.645772398E-1,-2.170678616E0,3.726983964E-1
1.106628312E0,-2.805557549E-1,-2.129134417E0,4.366123974E-1
1.108621333E0,-2.954690158E-1,-2.089720964E0,4.983958900E-1
1.110614354E0,-3.082517982E-1,-2.051372528E0,5.591141582E-1
1.112607374E0,-3.231650591E-1,-2.021545887E0,6.134410501E-1
1.114600395E0,-3.423392773E-1,-2.000241280E0,6.677679420E-1
1.116593416E0,-3.593829870E-1,-1.984262824E0,7.157034278E-1
1.118586437E0,-3.796224296E-1,-1.977871418E0,7.615084648E-1
1.120579458E0,-4.030575454E-1,-1.974675775E0,8.019872904E-1
1.122572479E0,-4.232969582E-1,-1.973610520E0,8.382052183E-1
1.124565499E0,-4.488625526E-1,-1.973610520E0,8.690969944E-1
1.126558520E0,-4.733629227E-1,-1.973610520E0,8.946625590E-1
1.128551541E0,-4.989285171E-1,-1.973610520E0,9.127715230E-1
1.130544562E0,-5.276898146E-1,-1.974675775E0,9.287500381E-1
1.132537583E0,-5.521901846E-1,-1.972545266E0,9.404675961E-1
1.134530604E0,-5.745600462E-1,-1.976806164E0,9.447285533E-1
1.136523624E0,-5.947995186E-1,-1.980001926E0,9.468590021E-1
1.138516645E0,-6.107779741E-1,-1.983197570E0,9.404675961E-1
1.140509666E0,-6.214303374E-1,-1.989588976E0,9.298152924E-1
1.142502687E0,-6.235607862E-1,-1.993849874E0,9.127715230E-1
1.144495708E0,-6.224955320E-1,-1.998110890E0,8.925321102E-1
1.146488729E0,-6.150389314E-1,-2.007698059E0,8.701622486E-1
1.148481749E0,-6.011908650E-1,-2.020480633E0,8.467270732E-1
1.150474770E0,-5.873428583E-1,-2.040720224E0,8.222267628E-1
1.152467791E0,-5.713643432E-1,-2.067351103E0,7.966611385E-1
1.154460812E0,-5.521901846E-1,-2.100373268E0,7.700303197E-1
1.156453833E0,-5.319507122E-1,-2.134460688E0,7.402037978E-1
1.158446854E0,-5.106461048E-1,-2.170678616E0,7.114425302E-1
1.160439874E0,-4.904066622E-1,-2.207961798E0,6.805507541E-1
1.162432895E0,-4.669715166E-1,-2.251636267E0,6.496589780E-1
1.164425916E0,-4.467321038E-1,-2.292115211E0,6.166367531E-1
1.166418937E0,-4.232969582E-1,-2.333659172E0,5.857450366E-1
1.168411958E0,-4.030575454E-1,-2.373072863E0,5.527228117E-1
1.170404979E0,-3.817528784E-1,-2.410356045E0,5.228962898E-1
1.172397999E0,-3.604482114E-1,-2.446573973E0,4.941349626E-1
1.174391020E0,-3.423392773E-1,-2.476400375E0,4.653736651E-1
1.176384041E0,-3.210346103E-1,-2.496639967E0,4.408733249E-1
1.178377062E0,-3.018604219E-1,-2.507292271E0,4.195686579E-1
1.180370083E0,-2.848166823E-1,-2.505161762E0,4.003944695E-1
1.182363104E0,-2.635120153E-1,-2.489183187E0,3.854812086E-1
1.184356124E0,-2.443378270E-1,-2.463617563E0,3.748288751E-1
1.186349145E0,-2.251636237E-1,-2.430595398E0,3.695026934E-1
1.188342166E0,-2.070546746E-1,-2.391181946E0,3.695026934E-1
1.190335187E0,-1.846847683E-1,-2.345376730E0,3.758940995E-1
1.192328208E0,-1.655105799E-1,-2.301702261E0,3.886769116E-1
1.194321229E0,-1.452711523E-1,-2.259093046E0,4.046553969E-1
1.196314249E0,-1.260969639E-1,-2.216483593E0,4.280905128E-1
1.198307270E0,-1.079879999E-1,-2.177069902E0,4.536561072E-1
1.200300291E0,-9.307473898E-2,-2.140851974E0,4.824174047E-1
1.202293312E0,-7.496577501E-2,-2.103569031E0,5.133091807E-1
1.204286333E0,-6.218297780E-2,-2.068416119E0,5.463314056E-1
1.206279354E0,-5.046541616E-2,-2.031133175E0,5.782883763E-1
1.208272374E0,-3.874785081E-2,-1.992784739E0,6.145063043E-1
1.210265395E0,-2.916075476E-2,-1.951240540E0,6.464632750E-1
1.212258416E0,-2.170412242E-2,-1.905435562E0,6.805507541E-1
1.214251437E0,-1.531272475E-2,-1.857500076E0,7.157034278E-1
1.216244458E0,-1.424749196E-2,-1.807434082E0,7.508561015E-1
1.218237479E0,-1.211702544E-2,-1.757368207E0,7.828131318E-1
1.220230499E0,-1.211702544E-2,-1.705171704E0,8.158353567E-1
1.222223520E0,-1.211702544E-2,-1.655105829E0,8.477923274E-1
1.224216541E0,-1.531272475E-2,-1.610365987E0,8.765535951E-1
1.226209562E0,-1.637795754E-2,-1.563495755E0,9.063801765E-1
1.228202583E0,-2.276935615E-2,-1.520886421E0,9.330109954E-1
1.230195604E0,-2.596505545E-2,-1.480407596E0,9.585765600E-1
1.232188624E0,-2.916075476E-2,-1.450581074E0,9.809464812E-1
1.234181645E0,-3.448691964E-2,-1.418624043E0,1.002251148E0
1.236174718E0,-4.194355011E-2,-1.395188928E0,1.022490501E0
1.238167791E0,-4.620448127E-2,-1.377079964E0,1.038469076E0
1.240160864E0,-5.259587988E-2,-1.362166762E0,1.053382277E0
1.242153937E0,-5.792204663E-2,-1.349383950E0,1.062969446E0
1.244147010E0,-6.750914454E-2,-1.345123053E0,1.073621750E0
1.246140083E0,-7.496577501E-2,-1.337666392E0,1.080013156E0
1.248133156E0,-8.135717362E-2,-1.337666392E0,1.084274054E0
1.250126229E0,-9.094426781E-2,-1.334470630E0,1.085339308E0
1.252119302E0,-9.946613014E-2,-1.332340240E0,1.086404562E0
1.254112374E0,-1.079879999E-1,-1.332340240E0,1.083208799E0
1.256105447E0,-1.154446304E-1,-1.330209732E0,1.078947902E0
1.258098520E0,-1.207707971E-1,-1.333405495E0,1.069360852E0
1.260091593E0,-1.282274276E-1,-1.335535884E0,1.059773684E0
1.262084666E0,-1.346188188E-1,-1.338731647E0,1.046990871E0
1.264077739E0,-1.388797611E-1,-1.337666392E0,1.034208059E0
1.266070812E0,-1.410102248E-1,-1.336601138E0,1.020360112E0
1.268063885E0,-1.442059278E-1,-1.334470630E0,1.002251148E0
1.270056958E0,-1.452711523E-1,-1.331274986E0,9.852073789E-1
1.272050031E0,-1.474016160E-1,-1.329144478E0,9.639027119E-1
1.274043104E0,-1.474016160E-1,-1.323818326E0,9.425980449E-1
1.276036177E0,-1.484668553E-1,-1.316361666E0,9.212934375E-1
1.278029249E0,-1.505973190E-1,-1.306774616E0,8.989235163E-1
1.280022322E0,-1.474016160E-1,-1.293991804E0,8.776188493E-1
1.282015395E0,-1.452711523E-1,-1.275882840E0,8.541837335E-1
1.284008468E0,-1.388797611E-1,-1.252447724E0,8.307486176E-1
1.286001541E0,-1.314231306E-1,-1.219425559E0,8.105092049E-1
1.287994614E0,-1.239664927E-1,-1.181077123E0,7.902697325E-1
1.289987687E0,-1.122489274E-1,-1.140598297E0,7.721607685E-1
1.291980760E0,-9.946613014E-2,-1.096923709E0,7.583127618E-1
1.293973833E0,-8.242240548E-2,-1.048988223E0,7.444647551E-1
1.295966906E0,-6.644391268E-2,-1.002117991E0,7.327471375E-1
1.297959979E0,-4.726971686E-2,-9.552477002E-1,7.242252827E-1
1.299952999E0,-2.489982173E-2,-9.073122144E-1,7.188991308E-1
1.301946020E0,-1.464695437E-3,-8.625724316E-1,7.125077248E-1
1.303939041E0,2.316881903E-2,-8.167673945E-1,7.071815729E-1
1.305932062E0,4.766917601E-2,-7.720276117E-1,7.039858699E-1
1.307925083E0,7.216953486E-2,-7.272878289E-1,7.018554211E-1
1.309918104E0,9.347419441E-2,-6.825480461E-1,6.986597180E-1
1.311911124E0,1.169093251E-1,-6.388735175E-1,6.933335662E-1
1.313904145E0,1.382139921E-1,-5.941337347E-1,6.890726089E-1
1.315897166E0,1.584534049E-1,-5.451329947E-1,6.848116517E-1
1.317890187E0,1.776276082E-1,-5.014584661E-1,6.805507541E-1
1.319883208E0,1.957365721E-1,-4.556534290E-1,6.720288992E-1
1.321876229E0,2.117150575E-1,-4.066527188E-1,6.645722389E-1
1.323869249E0,2.244978547E-1,-3.587172329E-1,6.560503840E-1
1.325862270E0,2.351501882E-1,-3.129121959E-1,6.464632750E-1
1.327855291E0,2.468677461E-1,-2.681724131E-1,6.358109713E-1
1.329848312E0,2.543243766E-1,-2.244978547E-1,6.230281591E-1
1.331841333E0,2.596505582E-1,-1.786928326E-1,6.081148982E-1
1.333834354E0,2.585853040E-1,-1.339530498E-1,5.921363831E-1
1.335827374E0,2.553896308E-1,-8.814803511E-2,5.718969703E-1
1.337820395E0,2.468677461E-1,-4.127778113E-2,5.473966002E-1
1.339813416E0,2.319544852E-1,1.331541222E-3,5.239614844E-1
1.341806437E0,2.159759998E-1,4.181039706E-2,4.973306656E-1
1.343799458E0,1.957365721E-1,7.802832127E-2,4.675041437E-1
1.345792479E0,1.723014414E-1,1.142462417E-1,4.366123974E-1
1.347785499E0,1.456706226E-1,1.419423074E-1,4.046553969E-1
1.349778520E0,1.222354919E-1,1.664426625E-1,3.695026934E-1
1.351771541E0,9.560466558E-2,1.856168509E-1,3.343500197E-1
1.353764562E0,7.110430300E-2,2.015953511E-1,2.981320918E-1
1.355757583E0,4.766917601E-2,2.122476846E-1,2.619141638E-1
1.357750604E0,2.849498391E-2,2.229000032E-1,2.256962508E-1
1.359743624E0,1.038602181E-2,2.303566486E-1,1.905435622E-1
1.361736645E0,-8.921326138E-3,2.356828004E-1,1.543256342E-1
1.363729666E0,-2.703028731E-2,2.399437428E-1,1.202381775E-1
1.365722687E0,-4.513924941E-2,2.442046702E-1,8.721595258E-2
1.367715708E0,-6.005251035E-2,2.474003732E-1,5.525896326E-2
1.369708729E0,-7.922670245E-2,2.505960763E-1,2.649767138E-2
1.371701749E0,-9.413997084E-2,2.537917793E-1,9.320789250E-4
1.373694770E0,-1.090532318E-1,2.548570037E-1,-2.250304818E-2
1.375687791E0,-1.271621883E-1,2.601831555E-1,-4.806863889E-2
1.377680812E0,-1.463363916E-1,2.591179311E-1,-7.256899774E-2
1.379673833E0,-1.655105799E-1,2.591179311E-1,-9.387365729E-2
1.381666854E0,-1.814890802E-1,2.569874525E-1,-1.151783243E-1
1.383659874E0,-1.953371018E-1,2.548570037E-1,-1.311568171E-1
1.385652895E0,-2.113156021E-1,2.463351339E-1,-1.428743750E-1
1.387645916E0,-2.230331600E-1,2.378132790E-1,-1.524614692E-1
1.389638937E0,-2.336854935E-1,2.250304818E-1,-1.577876359E-1
1.391631958E0,-2.443378270E-1,2.090519816E-1,-1.599181145E-1
1.393624979E0,-2.549901605E-1,1.898777932E-1,-1.567224115E-1
1.395617999E0,-2.645772398E-1,1.675078869E-1,-1.492657810E-1
1.397611020E0,-2.720338702E-1,1.462032348E-1,-1.364829838E-1
1.399604041E0,-2.752295732E-1,1.206376404E-1,-1.205044836E-1
1.401597062E0,-2.784252763E-1,9.507204592E-2,-1.002650559E-1
1.403590083E0,-2.837514579E-1,7.057169080E-2,-8.109086752E-2
1.405583104E0,-2.794905007E-1,5.033225939E-2,-5.872096866E-2
1.407576124E0,-2.784252763E-1,2.689713426E-2,-3.848154470E-2
1.409569145E0,-2.784252763E-1,4.527240526E-3,-1.717688330E-2
1.411562166E0,-2.784252763E-1,-1.145125460E-2,3.062544856E-3
1.413555187E0,-2.826862037E-1,-3.169068322E-2,2.436720580E-2
1.415548208E0,-2.944037914E-1,-4.766917601E-2,4.567186534E-2
1.417541229E0,-3.029256463E-1,-6.577813625E-2,6.378082931E-2
1.419534249E0,-3.125127256E-1,-7.962616533E-2,8.188978583E-2
1.421527270E0,-3.220998347E-1,-9.240896255E-2,1.010639817E-1
1.423520291E0,-3.316869438E-1,-1.041265279E-1,1.202381775E-1
1.425513312E0,-3.434045017E-1,-1.169093251E-1,1.383471340E-1
1.427506333E0,-3.540568352E-1,-1.296921223E-1,1.585865617E-1
1.429499354E0,-3.668396175E-1,-1.360835135E-1,1.766955256E-1
1.431492374E0,-3.764267266E-1,-1.424749196E-1,1.937392503E-1
1.433485395E0,-3.838833570E-1,-1.424749196E-1,2.129134536E-1
1.435478416E0,-3.945356905E-1,-1.339530498E-1,2.342181057E-1
1.437471437E0,-4.094489515E-1,-1.147788614E-1,2.512618303E-1
1.439464458E0,-4.243622124E-1,-8.814803511E-2,2.661750913E-1
1.441457479E0,-4.403406978E-1,-5.406057462E-2,2.821536064E-1
1.443450499E0,-4.552539587E-1,-1.251648832E-2,2.970668674E-1
1.445443520E0,-4.680367708E-1,3.861469775E-2,3.141105771E-1
1.447436541E0,-4.786891043E-1,9.400681406E-2,3.300890923E-1
1.449429562E0,-4.850804806E-1,1.451379955E-1,3.513937294E-1
1.451422583E0,-4.872109592E-1,1.952039450E-1,3.769593239E-1
1.453415604E0,-4.904066622E-1,2.442046702E-1,4.003944695E-1
1.455408624E0,-4.861457348E-1,2.878792286E-1,4.248948097E-1
1.457401645E0,-4.808195531E-1,3.304885328E-1,4.483299553E-1
1.459394666E0,-4.754934013E-1,3.699021637E-1,4.696346223E-1
1.461387687E0,-4.659062922E-1,4.071853161E-1,4.877435565E-1
1.463380708E0,-4.499278069E-1,4.412727654E-1,5.047873259E-1
1.465373729E0,-4.328840673E-1,4.700340629E-1,5.197005868E-1
1.467366749E0,-4.105141759E-1,4.955996573E-1,5.303528905E-1
1.469359770E0,-3.806876540E-1,5.115781426E-1,5.431357026E-1
1.471352791E0,-3.487306535E-1,5.286219120E-1,5.516575575E-1
1.473345812E0,-2.869471312E-1,5.829487443E-1,5.324833393E-1
1.475338833E0,-1.175750941E-1,7.939980626E-1,4.770912528E-1
1.477331854E0,6.471290439E-2,9.686962962E-1,4.014596939E-1
1.479324874E0,1.904104054E-1,1.008109927E0,3.279586136E-1
1.481317895E0,2.809551954E-1,9.910661578E-1,2.778926790E-1
1.483310916E0,3.693695366E-1,9.804138541E-1,2.374138087E-1
1.485303937E0,4.726971686E-1,9.974575639E-1,1.948044896E-1
1.487296958E0,5.824161768E-1,1.024088383E0,1.511299312E-1
1.489289979E0,6.921351552E-1,1.050719261E0,1.117163152E-1
1.491282999E0,7.816147208E-1,1.064567208E0,7.762885839E-2
1.493276020E0,8.519201279E-1,1.064567208E0,5.632419512E-2
1.495269093E0,8.945294023E-1,1.053914905E0,4.354140162E-2
1.497262166E0,9.147688746E-1,1.045393109E0,3.928046674E-2
1.499255239E0,9.105079174E-1,1.032610297E0,4.567186534E-2
1.501248312E0,8.892032504E-1,1.016631722E0,5.845466256E-2
1.503241385E0,8.433982730E-1,1.008109927E0,8.188978583E-2
1.505234458E0,7.869408727E-1,1.000653267E0,1.074553803E-1
1.507227531E0,7.240921259E-1,1.002783775E0,1.330209672E-1
1.509220604E0,6.580476761E-1,1.015566587E0,1.607170254E-1
1.511213677E0,5.888075829E-1,1.032610297E0,1.852173954E-1
1.513206749E0,5.206326246E-1,1.044327855E0,2.118482143E-1
1.515199822E0,4.545882046E-1,1.048588753E0,2.395442724E-1
1.517192895E0,3.885437548E-1,1.050719261E0,2.672403455E-1
1.519185968E0,3.310211599E-1,1.046458244E0,2.960016131E-1
1.521179041E0,2.798899710E-1,1.037936449E0,3.215672076E-1
1.523172114E0,2.394111156E-1,1.018762231E0,3.450023532E-1
1.525165187E0,2.021279633E-1,9.953271151E-1,3.673722446E-1
1.527158260E0,1.723014414E-1,9.623048902E-1,3.844159544E-1
1.529151333E0,1.509967744E-1,9.228912592E-1,3.971987665E-1
1.531144406E0,1.360835135E-1,8.749557734E-1,4.035901725E-1
1.533137479E0,1.222354919E-1,8.227593303E-1,4.057206213E-1
1.535130552E0,1.115831584E-1,7.652367949E-1,4.035901725E-1
1.537123624E0,1.019960642E-1,7.087793946E-1,3.982639909E-1
1.539116697E0,9.880036116E-2,6.575151086E-1,3.897421360E-1
1.541109770E0,9.666989744E-2,6.117100716E-1,3.780245781E-1
1.543102843E0,9.347419441E-2,5.701659918E-1,3.663070202E-1
1.545095916E0,8.495233208E-2,5.339480639E-1,3.535242081E-1
1.547088989E0,7.749570161E-2,5.041215420E-1,3.418066502E-1
1.549082062E0,6.577813625E-2,4.785559475E-1,3.322195411E-1
1.551075135E0,5.193011090E-2,4.540555775E-1,3.226324618E-1
1.553068208E0,4.021254554E-2,4.327509105E-1,3.141105771E-1
1.555061281E0,2.742975019E-2,4.125114977E-1,3.066539466E-1
1.557054354E0,1.145125460E-2,3.944025338E-1,2.960016131E-1
1.559047427E0,-3.595161485E-3,3.794892728E-1,2.896102369E-1
1.561040447E0,-1.531272475E-2,3.656412363E-1,2.800231278E-1
1.563033468E0,-2.383458801E-2,3.571193814E-1,2.693707943E-1
1.565026489E0,-2.703028731E-2,3.517931998E-1,2.608489394E-1
1.567019510E0,-2.276935615E-2,3.507279754E-1,2.480661422E-1
1.569012531E0,-1.424749196E-2,3.485974967E-1,2.363485843E-1
1.571005552E0,2.929390874E-3,3.411408663E-1,2.256962508E-1
1.572998572E0,2.423405088E-2,3.294233084E-1,2.171743810E-1
1.574991593E0,4.660394415E-2,3.134448230E-1,2.075872868E-1
1.576984614E0,7.216953486E-2,2.910749316E-1,1.990654171E-1
1.578977635E0,9.666989744E-2,2.697702646E-1,1.916087866E-1
1.580970656E0,1.179745570E-1,2.410089672E-1,1.841521561E-1
1.582963677E0,1.371487528E-1,2.133129090E-1,1.745650619E-1
1.584956697E0,1.531272531E-1,1.877473146E-1,1.671084315E-1
1.586949718E0,1.659100503E-1,1.643121988E-1,1.575213373E-1
1.588942739E0,1.733666807E-1,1.451379955E-1,1.458037645E-1
1.590935760E0,1.765623689E-1,1.291595101E-1,1.351514459E-1
1.592928781E0,1.754971445E-1,1.131810099E-1,1.255643368E-1
1.594921802E0,1.691057384E-1,1.003982127E-1,1.149120107E-1
1.596914822E0,1.605838835E-1,8.548495173E-2,1.031944528E-1
1.598907843E0,1.467358470E-1,7.270215452E-2,9.254211932E-2
1.600900864E0,1.286268830E-1,5.459319428E-2,7.975932211E-2
1.602893885E0,1.105179265E-1,3.648423031E-2,6.804175675E-2
1.604886906E0,8.601756394E-2,1.837527007E-2,5.312849581E-2
1.606879927E0,6.045197323E-2,-1.864157850E-3,3.928046674E-2
1.608872947E0,3.488638252E-2,-2.316881903E-2,2.330197208E-2
1.610865968E0,7.190322969E-3,-4.553871229E-2,7.323476952E-3
1.612858989E0,-1.850842312E-2,-6.684337556E-2,-1.078548469E-2
1.614852010E0,-4.726971686E-2,-9.027849883E-2,-3.102491237E-2
1.616845031E0,-7.603100687E-2,-1.094526947E-1,-5.552527308E-2
1.618838052E0,-9.840089828E-2,-1.307573467E-1,-8.428656310E-2
1.620831072E0,-1.239664927E-1,-1.456706226E-1,-1.162435561E-1
1.622824093E0,-1.420754492E-1,-1.659100503E-1,-1.513962448E-1
1.624817114E0,-1.548582464E-1,-1.850842386E-1,-1.908098608E-1
1.626810135E0,-1.623148769E-1,-2.042584270E-1,-2.334191799E-1
1.628803156E0,-1.676410437E-1,-2.202369273E-1,-2.792242169E-1
1.630796177E0,-1.687062830E-1,-2.372806519E-1,-3.260944486E-1
1.632789197E0,-1.676410437E-1,-2.511286736E-1,-3.761604130E-1
1.634782218E0,-1.687062830E-1,-2.596505582E-1,-4.251611233E-1
1.636775239E0,-1.708367467E-1,-2.671071887E-1,-4.720313847E-1
1.638768260E0,-1.708367467E-1,-2.724333405E-1,-5.167711973E-1
1.640761281E0,-1.655105799E-1,-2.788247466E-1,-5.572500229E-1
1.642754302E0,-1.591191888E-1,-2.841508985E-1,-5.945332050E-1
1.644747322E0,-1.442059278E-1,-2.884118557E-1,-6.275554299E-1
1.646740343E0,-1.303578913E-1,-2.873466015E-1,-6.541862488E-1
1.648733364E0,-1.165098622E-1,-2.862813771E-1,-6.765561104E-1
1.650726385E0,-1.005313694E-1,-2.809551954E-1,-6.935998797E-1
1.652719406E0,-8.668334037E-2,-2.671071887E-1,-7.042521834E-1
1.654712427E0,-7.177007198E-2,-2.511286736E-1,-7.149044871E-1
1.656705447E0,-5.579157919E-2,-2.330197245E-1,-7.191654444E-1
1.658698468E0,-4.087831825E-2,-2.159759998E-1,-7.234264016E-1
1.660691489E0,-3.022598661E-2,-1.968017966E-1,-7.276872993E-1
1.662684510E0,-9.986559860E-3,-1.797580719E-1,-7.287525535E-1
1.664677531E0,6.125089712E-3,-1.627143472E-1,-7.276872993E-1
1.666670552E0,2.103835158E-2,-1.478010863E-1,-7.244915962E-1
1.668663572E0,3.914731368E-2,-1.371487528E-1,-7.223611474E-1
1.670656593E0,5.512581021E-2,-1.296921223E-1,-7.181001902E-1
1.672649614E0,7.110430300E-2,-1.254311949E-1,-7.106435895E-1
1.674642635E0,9.027849883E-2,-1.222354919E-1,-7.053174376E-1
1.676635656E0,1.073222235E-1,-1.169093251E-1,-7.010564804E-1
1.678628677E0,1.275616586E-1,-1.115831584E-1,-6.999912262E-1
1.680621697E0,1.467358470E-1,-1.009308323E-1,-6.989260316E-1
1.682614718E0,1.712362021E-1,-8.921326697E-2,-7.021217346E-1
1.684607739E0,1.957365721E-1,-6.790860742E-2,-7.085131407E-1
1.686600760E0,2.191716880E-1,-4.234301299E-2,-7.149044871E-1
1.688593781E0,2.468677461E-1,-1.038602181E-2,-7.276872993E-1
1.690586802E0,2.788247466E-1,2.370143496E-2,-7.426005602E-1
1.692579822E0,3.086512685E-1,5.885412544E-2,-7.607095242E-1
1.694572843E0,3.427387178E-1,1.025286764E-1,-7.841446400E-1
1.696565864E0,3.757609427E-1,1.504641622E-1,-8.118407130E-1
1.698558885E0,4.066527188E-1,2.005301118E-1,-8.427324891E-1
1.700551906E0,4.439358711E-1,2.505960763E-1,-8.789504170E-1
1.702544927E0,4.822842479E-1,2.985315621E-1,-9.183640480E-1
1.704537947E0,5.185021758E-1,3.528584540E-1,-9.620385766E-1
1.706530968E0,5.568505526E-1,4.039896131E-1,-1.007843614E0
1.708523989E0,5.941337347E-1,4.583165050E-1,-1.056844354E0
1.710517010E0,6.324821115E-1,5.126433969E-1,-1.110105991E0
1.712510031E0,6.750914454E-1,5.648398399E-1,-1.166563272E0
1.714503052E0,7.155702710E-1,6.191666722E-1,-1.226216316E0
1.716496072E0,7.592448592E-1,6.745588183E-1,-1.290130377E0
1.718489093E0,7.986584306E-1,7.268883586E-1,-1.351913810E0
1.720482114E0,8.412677646E-1,7.801500559E-1,-1.414762616E0
1.722475135E0,8.828118443E-1,8.238245845E-1,-1.480807066E0
1.724468156E0,9.232907295E-1,8.674991727E-1,-1.544721007E0
1.726461177E0,9.637695551E-1,9.026518464E-1,-1.608635068E0
1.728454197E0,1.006378889E0,9.314131141E-1,-1.671483755E0
1.730447218E0,1.050053477E0,9.601744413E-1,-1.738593459E0
1.732440239E0,1.090532303E0,9.900009632E-1,-1.804637909E0
1.734433260E0,1.132076383E0,1.010240316E0,-1.871880770E0
1.736426281E0,1.176816225E0,1.016631722E0,-1.942186117E0
1.738419302E0,1.216229796E0,1.023023129E0,-2.014621973E0
1.740412322E0,1.252447724E0,1.019827485E0,-2.083862066E0
1.742405343E0,1.290796161E0,1.011305571E0,-2.157363176E0
1.744398364E0,1.333405495E0,9.942618608E-1,-2.231929541E0
1.746391385E0,1.376014709E0,9.718919992E-1,-2.307560921E0
1.748384458E0,1.415428400E0,9.473916292E-1,-2.382127285E0
1.750377531E0,1.452711582E0,9.196955562E-1,-2.456693649E0
1.752370604E0,1.492125154E0,8.909342885E-1,-2.530194759E0
1.754363677E0,1.527277827E0,8.536511064E-1,-2.607956648E0
1.756356749E0,1.563495755E0,8.089113235E-1,-2.681457758E0
1.758349822E0,1.591191888E0,7.567148805E-1,-2.757089376E0
1.760342895E0,1.615692139E0,7.013227940E-1,-2.833786249E0
1.762335968E0,1.639127374E0,6.394061446E-1,-2.909417629E0
1.764329041E0,1.656171083E0,5.722964406E-1,-2.986114502E0
1.766322114E0,1.671084285E0,5.051867366E-1,-3.062811136E0
1.768315187E0,1.682801843E0,4.327509105E-1,-3.140573263E0
1.770308260E0,1.689193249E0,3.571193814E-1,-3.219400406E0
1.772301333E0,1.690258503E0,2.772268951E-1,-3.297162533E0
1.774294406E0,1.690258503E0,1.920082569E-1,-3.371728897E0
1.776287479E0,1.685997605E0,1.014634445E-1,-3.445230007E0
1.778280552E0,1.678540945E0,-6.125089712E-3,-3.517665863E0
1.780273624E0,1.667888641E0,-1.222354919E-1,-3.590101480E0
1.782266697E0,1.649779677E0,-2.383458912E-1,-3.662537336E0
1.784259770E0,1.630605459E0,-3.565867543E-1,-3.740299463E0
1.786252843E0,1.603974581E0,-4.758928418E-1,-3.821257114E0
1.788245916E0,1.577343822E0,-5.930684805E-1,-3.906475782E0
1.790238989E0,1.542191148E0,-7.113093734E-1,-3.990629196E0
1.792232062E0,1.503842711E0,-8.199630976E-1,-4.080108643E0
1.794225135E0,1.461233377E0,-9.264864326E-1,-4.168523312E0
1.796218208E0,1.412232637E0,-1.034074903E0,-4.255872250E0
1.798211281E0,1.360036254E0,-1.149120092E0,-4.344286442E0
1.800204354E0,1.303578854E0,-1.271621943E0,-4.430570602E0
1.802197427E0,1.242860675E0,-1.393058538E0,-4.517919540E0
1.804190499E0,1.181077123E0,-1.518756032E0,-4.604203224E0
1.806183572E0,1.112902164E0,-1.649779677E0,-4.692617893E0
1.808176645E0,1.048988223E0,-1.788259983E0,-4.781032085E0
1.810169718E0,9.850742221E-1,-1.926740289E0,-4.866250992E0
1.812162791E0,9.243559837E-1,-2.058829069E0,-4.952534676E0
1.814155812E0,8.657681346E-1,-2.193048477E0,-5.039883614E0
1.816148833E0,8.210283518E-1,-2.284658432E0,-5.115515232E0
1.818141854E0,7.858756781E-1,-2.357094288E0,-5.176233768E0
1.820134874E0,7.507229447E-1,-2.431660652E0,-5.240147591E0
1.822127895E0,7.155702710E-1,-2.521140337E0,-5.300865650E0
1.824120916E0,6.825480461E-1,-2.629794121E0,-5.356257915E0
1.826113937E0,6.463301182E-1,-2.730991125E0,-5.409519672E0
1.828106958E0,6.165035963E-1,-2.821536064E0,-5.459585667E0
1.830099979E0,5.834813714E-1,-2.918472290E0,-5.505390644E0
1.832092999E0,5.493939519E-1,-3.021799803E0,-5.547999859E0
1.834086020E0,5.185021758E-1,-3.132584095E0,-5.585283279E0
1.836079041E0,4.876104295E-1,-3.251890182E0,-5.620435715E0
1.838072062E0,4.620448351E-1,-3.371196270E0,-5.655588627E0
1.840065083E0,4.354139864E-1,-3.488371849E0,-5.682219028E0
1.842058104E0,4.109136462E-1,-3.600221395E0,-5.707784653E0
1.844051124E0,3.842828274E-1,-3.706744671E0,-5.737611294E0
1.846044145E0,3.640433848E-1,-3.795158863E0,-5.764242172E0
1.848037166E0,3.448691964E-1,-3.885703802E0,-5.790873051E0
1.850030187E0,3.331516385E-1,-3.966794729E0,-5.813242912E0
1.852023208E0,3.214340508E-1,-4.032839298E0,-5.830286503E0
1.854016229E0,3.097164929E-1,-4.075448513E0,-5.843069553E0
1.856009249E0,2.990641594E-1,-4.088231087E0,-5.861178398E0
1.858002270E0,2.873466015E-1,-4.052013397E0,-5.878221989E0
1.859995291E0,2.585853040E-1,-3.943226337E0,-5.927222729E0
1.861988312E0,2.170412242E-1,-3.780245781E0,-6.001789093E0
1.863981333E0,1.765623689E-1,-3.587438583E0,-6.072094440E0
1.865974354E0,1.328878254E-1,-3.372261524E0,-6.131747723E0
1.867967374E0,9.240896255E-2,-3.143236399E0,-6.180748463E0
1.869960395E0,5.406057462E-2,-2.900363207E0,-6.214835644E0
1.871953416E0,1.677742042E-2,-2.648968220E0,-6.231879711E0
1.873946437E0,-1.744319126E-2,-2.392246962E0,-6.230814457E0
1.875939458E0,-4.620448127E-2,-2.139786720E0,-6.208444595E0
1.877932479E0,-6.963960826E-2,-1.895848513E0,-6.167965412E0
1.879925499E0,-8.774857223E-2,-1.662562490E0,-6.109377861E0
1.881918520E0,-9.946613014E-2,-1.444189668E0,-6.020963192E0
1.883911541E0,-9.946613014E-2,-1.247121572E0,-5.892070293E0
1.885904562E0,-9.627043456E-2,-1.066031933E0,-5.716306686E0
1.887897583E0,-8.561810106E-2,-8.892032504E-1,-5.501129627E0
1.889890604E0,-7.603100687E-2,-7.070484161E-1,-5.253995419E0
1.891883624E0,-6.963960826E-2,-5.057193637E-1,-4.978100300E0
1.893876645E0,-6.963960826E-2,-2.894770801E-1,-4.678769588E0
1.895869666E0,-7.816147059E-2,-4.979964346E-2,-4.367721558E0
1.897862687E0,-9.733566642E-2,2.111824453E-1,-4.066260815E0
1.899855708E0,-1.218360290E-1,4.913387299E-1,-3.774386883E0
1.901848729E0,-1.495320797E-1,7.801500559E-1,-3.500622034E0
1.903841749E0,-1.729672104E-1,1.072023869E0,-3.255618334E0
1.905834770E0,-1.921414137E-1,1.367093444E0,-3.040441275E0
1.907827791E0,-2.049241960E-1,1.647249699E0,-2.858286619E0
1.909820812E0,-2.102503628E-1,1.912492752E0,-2.705958128E0
1.911813833E0,-2.113156021E-1,2.154300690E0,-2.572803974E0
1.913806854E0,-1.985328048E-1,2.363086224E0,-2.456693649E0
1.915799874E0,-1.772281379E-1,2.526067019E0,-2.360822678E0
1.917792895E0,-1.452711523E-1,2.648568869E0,-2.286256313E0
1.919785916E0,-9.840089828E-2,2.728461266E0,-2.238320827E0
1.921778937E0,-4.087831825E-2,2.765744448E0,-2.205298662E0
1.923771958E0,2.210358530E-2,2.767874956E0,-2.194646358E0
1.925764979E0,9.666989744E-2,2.732722282E0,-2.203168154E0
1.927757999E0,1.808233112E-1,2.659221172E0,-2.214885712E0
1.929751020E0,2.724333405E-1,2.544175863E0,-2.235125303E0
1.931744041E0,3.736304939E-1,2.395043373E0,-2.261755943E0
1.933737062E0,4.865451753E-1,2.215018988E0,-2.289452076E0
1.935730083E0,6.090469956E-1,2.005167961E0,-2.309691429E0
1.937723104E0,7.443315983E-1,1.765490532E0,-2.322474241E0
1.939716124E0,8.849423528E-1,1.505573750E0,-2.326735258E0
1.941709145E0,1.027683616E0,1.237135053E0,-2.321408987E0
1.943702166E0,1.172555208E0,9.676310420E-1,-2.310756683E0
1.945695187E0,1.314231277E0,7.087793946E-1,-2.299039125E0
1.947688208E0,1.446320176E0,4.668383598E-1,-2.281995535E0
1.949681229E0,1.570952415E0,2.548570037E-1,-2.255364656E0
1.951674249E0,1.683867097E0,7.483261824E-2,-2.231929541E0
1.953667270E0,1.775477171E0,-7.962616533E-2,-2.217016220E0
1.955660291E0,1.846847773E0,-2.074541301E-1,-2.210624933E0
1.957653312E0,1.900109410E0,-3.139774203E-1,-2.199972391E0
1.959646333E0,1.935262084E0,-3.970656097E-1,-2.192515850E0
1.961639354E0,1.951240540E0,-4.641752839E-1,-2.192515850E0
1.963632374E0,1.951240540E0,-5.110455155E-1,-2.195711613E0
1.965625395E0,1.945914388E0,-5.248935819E-1,-2.202102900E0
1.967618416E0,1.948044896E0,-4.822842479E-1,-2.192515850E0
1.969611437E0,1.943783998E0,-4.055874646E-1,-2.183994055E0
1.971604458E0,1.934196830E0,-3.246297538E-1,-2.174407005E0
1.973597479E0,1.918218374E0,-2.458025217E-1,-2.162689447E0
1.975590499E0,1.894783258E0,-1.723014414E-1,-2.152036905E0
1.977583520E0,1.870282888E0,-1.062569916E-1,-2.143515110E0
1.979576541E0,1.840456367E0,-4.340824485E-2,-2.137123823E0
1.981569562E0,1.808499336E0,8.788172156E-3,-2.131797552E0
1.983562583E0,1.777607560E0,6.418029219E-2,-2.129667044E0
1.985555604E0,1.744585395E0,1.195724085E-1,-2.126471519E0
1.987548624E0,1.708367467E0,1.707035899E-1,-2.129667044E0
1.989541645E0,1.677475691E0,2.229000032E-1,-2.134993315E0
1.991534718E0,1.646583915E0,2.740311921E-1,-2.140319347E0
1.993527791E0,1.615692139E0,3.198362291E-1,-2.154167414E0
1.995520864E0,1.585865617E0,3.539236784E-1,-2.176537275E0
1.997513937E0,1.559234858E0,3.858806491E-1,-2.210624933E0
1.999507010E0,1.530473590E0,4.039896131E-1,-2.254299402E0
2.001500083E0,1.501712203E0,4.135767221E-1,-2.310756683E0
2.003493156E0,1.479342341E0,4.242290556E-1,-2.374670744E0
2.005486229E0,1.458037734E0,4.593817294E-1,-2.440715075E0
2.007479302E0,1.448450565E0,5.254262090E-1,-2.496107340E0
2.009472374E0,1.432472110E0,5.712311864E-1,-2.564282179E0
2.011465447E0,1.412232637E0,5.765573978E-1,-2.645239830E0
2.013458520E0,1.376014709E0,5.392742157E-1,-2.734719515E0
2.015451593E0,1.328079224E0,4.710993171E-1,-2.833786249E0
2.017444666E0,1.273752332E0,3.826849759E-1,-2.936048508E0
2.019437739E0,1.208773136E0,2.772268951E-1,-3.040441275E0
2.021430812E0,1.133141637E0,1.611164957E-1,-3.148029804E0
2.023423885E0,1.058575273E0,3.861469775E-2,-3.258814096E0
2.025416958E0,9.765523672E-1,-7.962616533E-2,-3.369598389E0
2.027410031E0,8.902685046E-1,-2.031932026E-1,-3.478252172E0
2.029403104E0,8.082455397E-1,-3.150426745E-1,-3.578383923E0
2.031396177E0,7.198312283E-1,-4.151745737E-1,-3.664667845E0
2.033389249E0,6.314168572E-1,-4.993279874E-1,-3.741364717E0
2.035382322E0,5.376763940E-1,-5.632419586E-1,-3.805278778E0
2.037375395E0,4.481967986E-1,-6.260907054E-1,-3.862801313E0
2.039368468E0,3.533910513E-1,-6.878741980E-1,-3.920323849E0
2.041361541E0,2.639114857E-1,-7.379401922E-1,-3.977846384E0
2.043354614E0,1.712362021E-1,-7.730928659E-1,-4.032173157E0
2.045347687E0,8.175663650E-2,-7.880061269E-1,-4.081173897E0
2.047340760E0,-8.921326138E-3,-7.997236848E-1,-4.125913620E0
2.049333833E0,-9.627043456E-2,-8.231588006E-1,-4.165327549E0
2.051326906E0,-1.857500076E-1,-8.583115339E-1,-4.209002018E0
2.053319979E0,-2.720338702E-1,-8.977251053E-1,-4.254806995E0
2.055313052E0,-3.561872840E-1,-9.264864326E-1,-4.295285702E0
2.057306124E0,-4.350145459E-1,-9.424648881E-1,-4.333634377E0
2.059299145E0,-5.095808506E-1,-9.520519972E-1,-4.362395763E0
2.061292166E0,-5.788210034E-1,-9.552477002E-1,-4.385830879E0
2.063285187E0,-6.384740472E-1,-9.552477002E-1,-4.409265995E0
2.065278208E0,-6.874747872E-1,-9.563129544E-1,-4.426309586E0
2.067271229E0,-7.322145700E-1,-9.669652581E-1,-4.444418430E0
2.069264249E0,-7.684324980E-1,-9.786828160E-1,-4.457201481E0
2.071257270E0,-8.035851717E-1,-9.935960770E-1,-4.467853546E0
2.073250291E0,-8.312812448E-1,-1.006378889E0,-4.476375580E0
2.075243312E0,-8.568468094E-1,-1.015965939E0,-4.479571342E0
2.077236333E0,-8.749557734E-1,-1.022357345E0,-4.479571342E0
2.079229354E0,-8.919994831E-1,-1.021292210E0,-4.477440834E0
2.081222374E0,-9.047822952E-1,-1.019161701E0,-4.468918800E0
2.083215395E0,-9.069127440E-1,-1.009574652E0,-4.463592529E0
2.085208416E0,-9.058475494E-1,-9.957265854E-1,-4.452940464E0
2.087201437E0,-9.005213380E-1,-9.776176214E-1,-4.440157413E0
2.089194458E0,-8.856080770E-1,-9.488562942E-1,-4.423113823E0
2.091187479E0,-8.706948161E-1,-9.158340693E-1,-4.405004978E0
2.093180499E0,-8.504554033E-1,-8.796161413E-1,-4.384765625E0
2.095173520E0,-8.270202875E-1,-8.370068669E-1,-4.358134747E0
2.097166541E0,-7.971937656E-1,-7.922670841E-1,-4.326177597E0
2.099159562E0,-7.663019896E-1,-7.485924959E-1,-4.296350956E0
2.101152583E0,-7.311493158E-1,-7.017222643E-1,-4.263329029E0
2.103145604E0,-6.938661337E-1,-6.527215242E-1,-4.227110863E0
2.105138624E0,-6.533873081E-1,-5.983946323E-1,-4.187697411E0
2.107131645E0,-6.107779741E-1,-5.440677404E-1,-4.146153450E0
2.109124666E0,-5.681686401E-1,-4.833494723E-1,-4.101413250E0
2.111117687E0,-5.191679597E-1,-4.173050225E-1,-4.049217224E0
2.113110708E0,-4.712324440E-1,-3.512606025E-1,-3.997020721E0
2.115103729E0,-4.243622124E-1,-2.830856740E-1,-3.942693710E0
2.117096749E0,-3.742962480E-1,-2.106498331E-1,-3.888366938E0
2.119089770E0,-3.306216896E-1,-1.456706226E-1,-3.829779148E0
2.121082791E0,-2.826862037E-1,-7.749570161E-2,-3.770125866E0
2.123075812E0,-2.422073632E-1,-1.251648832E-2,-3.704081535E0
2.125068833E0,-2.049241960E-1,4.713656008E-2,-3.629515171E0
2.127061854E0,-1.740324497E-1,1.014634445E-1,-3.536839962E0
2.129054874E0,-1.452711523E-1,1.653774232E-1,-3.429251432E0
2.131047895E0,-1.197055578E-1,2.292914093E-1,-3.307814837E0
2.133040916E0,-9.413997084E-2,3.027924895E-1,-3.175725937E0
2.135033937E0,-6.324820966E-2,3.912068307E-1,-3.028723717E0
2.137026958E0,-3.129122034E-2,4.902735054E-1,-2.872134447E0
2.139019979E0,-1.464695437E-3,6.021229625E-1,-2.701697350E0
2.141012999E0,2.742975019E-2,7.311493158E-1,-2.519542456E0
2.143006020E0,5.193011090E-2,8.728253245E-1,-2.320343733E0
2.144999041E0,7.749570161E-2,1.017696977E0,-2.104101419E0
2.146992062E0,9.880036116E-2,1.168960094E0,-1.871880770E0
2.148985083E0,1.243659556E-1,1.329810262E0,-1.624613523E0
2.150978104E0,1.414096802E-1,1.497051835E0,-1.364696622E0
2.152971124E0,1.552577168E-1,1.664293408E0,-1.098388433E0
2.154964145E0,1.648448110E-1,1.834730744E0,-8.299496770E-1
2.156957166E0,1.680405140E-1,2.008363724E0,-5.625761747E-1
2.158950187E0,1.648448110E-1,2.172409534E0,-2.898765504E-1
2.160943208E0,1.573881805E-1,2.337520599E0,-1.291595027E-2
2.162936229E0,1.414096802E-1,2.495175123E0,2.597837150E-1
2.164929249E0,1.296921223E-1,2.647503614E0,5.292876363E-1
2.166922270E0,1.105179265E-1,2.790244818E0,7.913349867E-1
2.168915291E0,9.027849883E-2,2.923398972E0,1.049121380E0
2.170908312E0,6.577813625E-2,3.042705059E0,1.298385859E0
2.172901333E0,4.873441160E-2,3.148163080E0,1.533802390E0
2.174894354E0,2.956021577E-2,3.229120731E0,1.754305601E0
2.176887374E0,1.890788600E-2,3.281317234E0,1.958830357E0
2.178880395E0,1.358172111E-2,3.310078382E0,2.134593725E0
2.180873416E0,1.677742042E-2,3.319665670E0,2.291182995E0
2.182866437E0,3.275591508E-2,3.305817604E0,2.421141624E0
2.184859458E0,6.151720881E-2,3.270664930E0,2.525534391E0
2.186852479E0,9.986559302E-2,3.216337919E0,2.601165771E0
2.188845499E0,1.509967744E-1,3.147097826E0,2.653362274E0
2.190838520E0,2.095845938E-1,3.061879158E0,2.679993153E0
2.192831541E0,2.734985650E-1,2.961747169E0,2.681058407E0
2.194824562E0,3.480648994E-1,2.844571590E0,2.660819054E0
2.196817583E0,4.258269072E-1,2.711417437E0,2.616079092E0
2.198810604E0,5.035889149E-1,2.566545725E0,2.553230286E0
2.200803624E0,5.845466256E-1,2.409956455E0,2.476533651E0
2.202796645E0,6.612433791E-1,2.251236916E0,2.384923697E0
2.204789666E0,7.315487862E-1,2.087190866E0,2.282661200E0
2.206782687E0,7.986584306E-1,1.926340818E0,2.179333687E0
2.208775708E0,8.615072370E-1,1.768686295E0,2.071745157E0
2.210768729E0,9.147688746E-1,1.606770873E0,1.969482660E0
2.212761749E0,9.616391063E-1,1.445920706E0,1.871481299E0
2.214754770E0,1.001052737E0,1.290396690E0,1.779871225E0
2.216747791E0,1.033009768E0,1.137003064E0,1.695717812E0
2.218740812E0,1.058575273E0,9.921314120E-1,1.615825295E0
2.220733833E0,1.078814745E0,8.525858521E-1,1.538063288E0
2.222726854E0,1.094793200E0,7.151708007E-1,1.466692686E0
2.224719874E0,1.099054217E0,5.797531009E-1,1.396387339E0
2.226712895E0,1.103315115E0,4.519250989E-1,1.333538532E0
2.228705916E0,1.099054217E0,3.315537870E-1,1.273885489E0
2.230698989E0,1.089467049E0,2.101172209E-1,1.217428207E0
2.232692062E0,1.071358085E0,9.933298081E-2,1.164166570E0
2.234685135E0,1.048988223E0,-7.190322969E-3,1.111970067E0
2.236678208E0,1.021292210E0,-1.083874628E-1,1.064034581E0
2.238671281E0,9.904004335E-1,-2.085193694E-1,1.016099095E0
2.240664354E0,9.573782086E-1,-2.990641594E-1,9.756202698E-1
2.242657427E0,9.126383662E-1,-3.853480518E-1,9.372718930E-1
2.244650499E0,8.732247949E-1,-4.684362113E-1,8.967930675E-1
2.246643572E0,8.252893090E-1,-5.408720970E-1,8.573794365E-1
2.248636645E0,7.752233148E-1,-6.058512926E-1,8.200962543E-1
2.250629718E0,7.219616771E-1,-6.676347852E-1,7.828131318E-1
2.252622791E0,6.676347852E-1,-7.198312283E-1,7.476604581E-1
2.254615864E0,6.101121902E-1,-7.624405622E-1,7.114425302E-1
2.256608937E0,5.483286977E-1,-7.986584306E-1,6.762897968E-1
2.258602010E0,4.908061028E-1,-8.274197578E-1,6.411371231E-1
2.260595083E0,4.290226102E-1,-8.476591706E-1,6.070496440E-1
2.262588156E0,3.693695366E-1,-8.647028804E-1,5.740274191E-1
2.264581229E0,3.065207899E-1,-8.753552437E-1,5.410051942E-1
2.266574302E0,2.479329854E-1,-8.817466497E-1,5.090482235E-1
2.268567374E0,1.840189993E-1,-8.838770986E-1,4.781564772E-1
2.270560447E0,1.222354919E-1,-8.828118443E-1,4.483299553E-1
2.272553520E0,6.471290439E-2,-8.785509467E-1,4.227643609E-1
2.274546593E0,6.125089712E-3,-8.742899895E-1,3.929378390E-1
2.276539666E0,-5.366111174E-2,-8.668333888E-1,3.663070202E-1
2.278532739E0,-1.090532318E-1,-8.572462797E-1,3.407414258E-1
2.280525812E0,-1.623148769E-1,-8.444634676E-1,3.162410557E-1
2.282518885E0,-2.166417688E-1,-8.295502067E-1,2.917406857E-1
2.284511958E0,-2.677729428E-1,-8.135717511E-1,2.672403455E-1
2.286505031E0,-3.178389072E-1,-7.933322787E-1,2.438052148E-1
2.288498104E0,-3.657743931E-1,-7.730928659E-1,2.193048447E-1
2.290491177E0,-4.126446545E-1,-7.496577501E-1,1.937392503E-1
2.292484249E0,-4.563191831E-1,-7.272878289E-1,1.660431921E-1
2.294477322E0,-4.999937415E-1,-6.985265613E-1,1.362166703E-1
2.296470395E0,-5.404726267E-1,-6.687000394E-1,1.095858440E-1
2.298463416E0,-5.777557492E-1,-6.410039663E-1,8.188978583E-2
2.300456437E0,-6.139736772E-1,-6.101121902E-1,5.312849581E-2
2.302449458E0,-6.501916051E-1,-5.760247707E-1,2.649767138E-2
2.304442479E0,-6.832138300E-1,-5.419372916E-1,1.997311832E-3
2.306435499E0,-7.162360549E-1,-5.003932118E-1,-2.143781446E-2
2.308428520E0,-7.439321280E-1,-4.620448351E-1,-4.274247587E-2
2.310421541E0,-7.737586498E-1,-4.226312041E-1,-6.404713541E-2
2.312414562E0,-7.982590199E-1,-3.832175732E-1,-8.002562821E-2
2.314407583E0,-8.216941357E-1,-3.416734934E-1,-9.493889660E-2
2.316400604E0,-8.440639973E-1,-3.043903410E-1,-1.077216864E-1
2.318393624E0,-8.600425124E-1,-2.617810071E-1,-1.183740199E-1
2.320386645E0,-8.749557734E-1,-2.191716880E-1,-1.268958896E-1
2.322379666E0,-8.877385855E-1,-1.818885356E-1,-1.332872808E-1
2.324372687E0,-8.962604403E-1,-1.424749196E-1,-1.396786869E-1
2.326365708E0,-9.015865922E-1,-1.009308323E-1,-1.428743750E-1
2.328358729E0,-9.037170410E-1,-6.045197323E-2,-1.439396143E-1
2.330351749E0,-9.015865922E-1,-2.103835158E-2,-1.439396143E-1
2.332344770E0,-8.930647373E-1,1.731003635E-2,-1.418091506E-1
2.334337791E0,-8.856080770E-1,5.246272683E-2,-1.375482082E-1
2.336330812E0,-8.728253245E-1,8.228924870E-2,-1.332872808E-1
2.338323833E0,-8.525858521E-1,1.089200750E-1,-1.279611140E-1
2.340316854E0,-8.302159905E-1,1.344856620E-1,-1.194392517E-1
2.342309874E0,-8.067808747E-1,1.493989378E-1,-1.119826213E-1
2.344302895E0,-7.748238444E-1,1.632469594E-1,-1.034607589E-1
2.346295916E0,-7.396711707E-1,1.717688292E-1,-9.493889660E-2
2.348288937E0,-7.013227940E-1,1.760297567E-1,-8.428656310E-2
2.350281958E0,-6.565830112E-1,1.749645174E-1,-7.469946891E-2
2.352274979E0,-6.086475253E-1,1.760297567E-1,-6.298190355E-2
2.354267999E0,-5.575163364E-1,1.685731262E-1,-5.446003750E-2
2.356261020E0,-5.021241903E-1,1.547250897E-1,-4.380770773E-2
2.358254041E0,-4.435364008E-1,1.419423074E-1,-3.315537795E-2
2.360247062E0,-3.817528784E-1,1.248985752E-1,-2.250304818E-2
2.362240083E0,-3.220998347E-1,1.057243794E-1,-9.720250964E-3
2.364233104E0,-2.592510879E-1,8.761541545E-2,3.062544856E-3
2.366226124E0,-1.964023411E-1,6.524552405E-2,1.797580719E-2
2.368219145E0,-1.356840581E-1,4.394086078E-2,3.075860441E-2
2.370212166E0,-7.603100687E-2,1.837527007E-2,4.567186534E-2
2.372205187E0,-1.637795754E-2,-1.864157850E-3,6.378082931E-2
2.374198208E0,3.914731368E-2,-2.529928461E-2,8.082455397E-2
2.376191229E0,9.134373069E-2,-4.979964346E-2,1.031944528E-1
2.378184249E0,1.424749196E-1,-7.216953486E-2,1.234338731E-1
2.380177270E0,1.893451661E-1,-9.240896255E-2,1.436733007E-1
2.382170291E0,2.330197245E-1,-1.147788614E-1,1.649779677E-1
2.384163312E0,2.777595222E-1,-1.371487528E-1,1.852173954E-1
2.386156333E0,3.171731234E-1,-1.531272531E-1,2.075872868E-1
2.388149354E0,3.512606025E-1,-1.723014414E-1,2.278267145E-1
2.390142374E0,3.842828274E-1,-1.882799417E-1,2.480661422E-1
2.392135395E0,4.151745737E-1,-1.999974996E-1,2.693707943E-1
2.394128416E0,4.418053925E-1,-2.117150575E-1,2.885449827E-1
2.396121437E0,4.631100595E-1,-2.255630940E-1,3.066539466E-1
2.398114458E0,4.833494723E-1,-2.362154275E-1,3.236976862E-1
2.400107479E0,5.003932118E-1,-2.447372824E-1,3.396761715E-1
2.402100499E0,5.153064728E-1,-2.532591522E-1,3.535242081E-1
2.404093520E0,5.259587765E-1,-2.607157826E-1,3.663070202E-1
2.406086541E0,5.334154367E-1,-2.671071887E-1,3.790898025E-1
2.408079562E0,5.419372916E-1,-2.766942680E-1,3.918725848E-1
2.410072583E0,5.430025458E-1,-2.852161527E-1,4.025249183E-1
2.412065604E0,5.430025458E-1,-2.916075289E-1,4.142425060E-1
2.414058624E0,5.408720970E-1,-2.948032320E-1,4.216991365E-1
2.416051645E0,5.366111398E-1,-3.001294136E-1,4.270252883E-1
2.418044666E0,5.291544795E-1,-3.001294136E-1,4.280905128E-1
2.420037687E0,5.195674300E-1,-3.011946380E-1,4.291557670E-1
2.422030708E0,5.099803209E-1,-3.033251166E-1,4.291557670E-1
2.424023729E0,4.950670600E-1,-3.054555655E-1,4.280905128E-1
2.426016749E0,4.822842479E-1,-3.075860441E-1,4.259600639E-1
2.428009770E0,4.652405083E-1,-3.086512685E-1,4.195686579E-1
2.430002791E0,4.460663199E-1,-3.118469715E-1,4.131772518E-1
2.431995812E0,4.236964285E-1,-3.139774203E-1,4.046553969E-1
2.433988833E0,4.034570158E-1,-3.150426745E-1,3.950682878E-1
2.435981854E0,3.810871243E-1,-3.182383776E-1,3.833507299E-1
2.437974874E0,3.565867543E-1,-3.171731234E-1,3.737636507E-1
2.439967895E0,3.310211599E-1,-3.182383776E-1,3.641765416E-1
2.441960916E0,3.075860441E-1,-3.171731234E-1,3.545894325E-1
2.443953937E0,2.830856740E-1,-3.129121959E-1,3.460675776E-1
2.445946958E0,2.575200796E-1,-3.118469715E-1,3.354152441E-1
2.447939979E0,2.298240215E-1,-3.097164929E-1,3.236976862E-1
2.449932999E0,2.053236663E-1,-3.033251166E-1,3.087844253E-1
2.451926020E0,1.786928326E-1,-2.969337106E-1,2.960016131E-1
2.453919041E0,1.520620137E-1,-2.926727831E-1,2.821536064E-1
2.455912062E0,1.275616586E-1,-2.862813771E-1,2.704360485E-1
2.457905083E0,1.009308323E-1,-2.798899710E-1,2.565880120E-1
2.459898104E0,7.430000603E-2,-2.734985650E-1,2.416747361E-1
2.461891177E0,4.873441160E-2,-2.660419345E-1,2.267614752E-1
2.463884249E0,2.423405088E-2,-2.543243766E-1,2.107829899E-1
2.465877322E0,7.989247679E-4,-2.436720580E-1,1.937392503E-1
2.467870395E0,-2.489982173E-2,-2.362154275E-1,1.777607650E-1
2.469863468E0,-4.513924941E-2,-2.266283184E-1,1.596518010E-1
2.471856541E0,-6.644391268E-2,-2.159759998E-1,1.436733007E-1
2.473849614E0,-8.561810106E-2,-2.095845938E-1,1.266295761E-1
2.475842687E0,-1.005313694E-1,-1.999974996E-1,1.095858440E-1
2.477835760E0,-1.154446304E-1,-1.925408691E-1,9.254211932E-2
2.479828833E0,-1.303578913E-1,-1.829537749E-1,7.549838722E-2
2.481821906E0,-1.420754492E-1,-1.723014414E-1,5.951989442E-2
2.483814979E0,-1.516625583E-1,-1.616491079E-1,4.354140162E-2
2.485808052E0,-1.591191888E-1,-1.520620137E-1,2.969337068E-2
2.487801124E0,-1.623148769E-1,-1.414096802E-1,1.691057347E-2
2.489794197E0,-1.633801162E-1,-1.296921223E-1,6.258244161E-3
2.491787270E0,-1.591191888E-1,-1.147788614E-1,-2.263620263E-3
2.493780343E0,-1.580539495E-1,-9.986559302E-2,-6.524552125E-3
2.495773416E0,-1.505973190E-1,-8.282186836E-2,-9.720250964E-3
2.497766489E0,-1.442059278E-1,-6.471290439E-2,-1.078548469E-2
2.499759562E0,-1.367492825E-1,-4.660394415E-2,-7.589785382E-3
2.501752635E0,-1.250317246E-1,-2.423405088E-2,-5.459319334E-3
2.503745708E0,-1.111836955E-1,-5.059856921E-3,-1.331541280E-4
2.505738781E0,-9.733566642E-2,1.304910425E-2,7.323476952E-3
2.507731854E0,-8.348763734E-2,3.328853101E-2,1.371487509E-2
2.509724927E0,-6.857437640E-2,5.139749497E-2,2.117150649E-2
2.511717999E0,-5.366111174E-2,6.844121963E-2,2.969337068E-2
2.513711072E0,-3.768261895E-2,8.548495173E-2,4.034570232E-2
2.515704145E0,-2.063889056E-2,1.003982127E-1,4.673709720E-2
2.517697218E0,-5.725627299E-3,1.163767055E-1,5.525896326E-2
2.519690291E0,1.251648832E-2,1.259638071E-1,6.271559745E-2
2.521683364E0,2.742975019E-2,1.376813650E-1,6.804175675E-2
2.523676437E0,4.127778113E-2,1.462032348E-1,7.336792350E-2
2.525669510E0,5.725627393E-2,1.536598653E-1,7.549838722E-2
2.527662583E0,6.897383928E-2,1.589860320E-1,7.656362653E-2
2.529655656E0,8.175663650E-2,1.653774232E-1,7.549838722E-2
2.531648677E0,9.134373069E-2,1.675078869E-1,7.336792350E-2
2.533641697E0,9.880036116E-2,1.707035899E-1,7.017222792E-2
2.535634718E0,1.062569916E-1,1.760297567E-1,6.484606117E-2
2.537627739E0,1.126483902E-1,1.770949960E-1,5.951989442E-2
2.539620760E0,1.158440933E-1,1.792254597E-1,5.312849581E-2
2.541613781E0,1.169093251E-1,1.824211627E-1,4.567186534E-2
2.543606802E0,1.190397888E-1,1.824211627E-1,3.821523488E-2
2.545599822E0,1.147788614E-1,1.824211627E-1,3.075860441E-2
2.547592843E0,1.147788614E-1,1.834863871E-1,2.436720580E-2
2.549585864E0,1.115831584E-1,1.866820902E-1,1.691057347E-2
2.551578885E0,1.062569916E-1,1.856168509E-1,1.051917579E-2
2.553571906E0,9.986559302E-2,1.866820902E-1,4.127778113E-3
2.555564927E0,9.560466558E-2,1.898777932E-1,-1.198387123E-3
2.557557947E0,8.814803511E-2,1.898777932E-1,-5.459319334E-3
2.559550968E0,7.856093347E-2,1.909430176E-1,-1.078548469E-2
2.561543989E0,7.110430300E-2,1.941387206E-1,-1.185071748E-2
2.563537010E0,6.364767253E-2,1.930734813E-1,-1.504641678E-2
2.565530031E0,5.512581021E-2,1.941387206E-1,-1.717688330E-2
2.567523052E0,4.553871229E-2,1.930734813E-1,-1.824211515E-2
2.569516072E0,4.021254554E-2,1.941387206E-1,-2.037258074E-2
2.571509093E0,3.169068322E-2,1.930734813E-1,-2.037258074E-2
2.573502114E0,2.529928461E-2,1.930734813E-1,-1.930734888E-2
2.575495135E0,2.103835158E-2,1.941387206E-1,-1.930734888E-2
2.577488156E0,1.145125460E-2,1.898777932E-1,-2.143781446E-2
2.579481177E0,1.038602181E-2,1.856168509E-1,-1.930734888E-2
2.581474197E0,6.125089712E-3,1.856168509E-1,-1.930734888E-2
2.583467218E0,3.994623665E-3,1.834863871E-1,-1.930734888E-2
2.585460239E0,1.864157850E-3,1.781602204E-1,-1.824211515E-2
2.587453260E0,7.989247679E-4,1.781602204E-1,-1.611164957E-2
2.589446281E0,-1.464695437E-3,1.760297567E-1,-1.611164957E-2
2.591439302E0,-1.464695437E-3,1.728340536E-1,-1.504641678E-2
2.593432322E0,3.994623665E-3,1.685731262E-1,-1.291595027E-2
2.595425343E0,3.994623665E-3,1.696383655E-1,-1.078548469E-2
2.597418364E0,7.190322969E-3,1.664426625E-1,-9.720250964E-3
2.599411385E0,1.251648832E-2,1.621817350E-1,-8.655018173E-3
2.601404406E0,1.571218669E-2,1.600512564E-1,-5.459319334E-3
2.603397427E0,2.316881903E-2,1.557903290E-1,-3.328853287E-3
2.605390447E0,2.742975019E-2,1.515294015E-1,-2.263620263E-3
2.607383468E0,3.169068322E-2,1.472684592E-1,1.997311832E-3
2.609376489E0,3.595161438E-2,1.483336985E-1,3.062544856E-3
2.611369510E0,4.234301299E-2,1.430075318E-1,6.258244161E-3
2.613362531E0,4.979964346E-2,1.408770680E-1,7.323476952E-3
2.615355552E0,5.619104207E-2,1.408770680E-1,9.453942999E-3
2.617348572E0,6.364767253E-2,1.376813650E-1,1.158440951E-2
2.619341593E0,7.110430300E-2,1.355509013E-1,1.264964230E-2
2.621334614E0,7.536523789E-2,1.355509013E-1,1.371487509E-2
2.623327635E0,7.962616533E-2,1.344856620E-1,1.478010789E-2
2.625320656E0,8.601756394E-2,1.334204376E-1,1.584534161E-2
2.627313677E0,9.240896255E-2,1.344856620E-1,1.797580719E-2
2.629306697E0,9.560466558E-2,1.344856620E-1,1.797580719E-2
2.631299718E0,1.009308323E-1,1.334204376E-1,1.904104091E-2
2.633292739E0,1.041265279E-1,1.376813650E-1,2.010627277E-2
2.635285760E0,1.073222235E-1,1.419423074E-1,2.010627277E-2
2.637278781E0,1.073222235E-1,1.419423074E-1,2.117150649E-2
2.639271802E0,1.105179265E-1,1.462032348E-1,2.223674022E-2
2.641264822E0,1.105179265E-1,1.515294015E-1,2.436720580E-2
2.643257843E0,1.105179265E-1,1.557903290E-1,2.543243766E-2
2.645250864E0,1.073222235E-1,1.611164957E-1,2.756290510E-2
2.647243885E0,1.073222235E-1,1.664426625E-1,2.969337068E-2
2.649236906E0,1.030612960E-1,1.749645174E-1,3.182383627E-2
2.651229927E0,1.009308323E-1,1.845516264E-1,3.501953557E-2
2.653222947E0,9.773512930E-2,1.909430176E-1,3.715000302E-2
2.655215968E0,9.347419441E-2,1.973344237E-1,4.034570232E-2
2.657208989E0,8.921326697E-2,2.037258148E-1,4.247616604E-2
2.659202010E0,8.708280325E-2,2.122476846E-1,4.460663348E-2
2.661195031E0,7.962616533E-2,2.229000032E-1,4.780233279E-2
2.663188052E0,7.110430300E-2,2.335523367E-1,4.993279651E-2
2.665181072E0,6.258244067E-2,2.420742065E-1,5.099803209E-2
2.667174093E0,5.619104207E-2,2.516613007E-1,5.419373140E-2
2.669167114E0,4.553871229E-2,2.601831555E-1,5.525896326E-2
2.671160135E0,3.808208182E-2,2.697702646E-1,5.632419512E-2
2.673153156E0,2.849498391E-2,2.804225981E-1,5.738943070E-2
2.675146177E0,1.677742042E-2,2.889444530E-1,5.951989442E-2
2.677139197E0,7.190322969E-3,3.006620109E-1,5.951989442E-2
2.679132218E0,-3.595161485E-3,3.113143444E-1,6.058513001E-2
2.681125239E0,-2.063889056E-2,3.230319023E-1,5.951989442E-2
2.683118260E0,-3.022598661E-2,3.304885328E-1,6.058513001E-2
2.685111281E0,-3.874785081E-2,3.400756419E-1,6.058513001E-2
2.687104302E0,-5.259587988E-2,3.485974967E-1,5.845466256E-2
2.689097322E0,-6.537867337E-2,3.581846058E-1,5.845466256E-2
2.691090343E0,-7.816147059E-2,3.656412363E-1,5.738943070E-2
2.693083364E0,-8.881380409E-2,3.709673882E-1,5.738943070E-2
2.695076437E0,-1.015966013E-1,3.805544972E-1,5.312849581E-2
2.697069510E0,-1.143793985E-1,3.869459033E-1,5.206326395E-2
2.699062583E0,-1.260969639E-1,3.933372796E-1,5.099803209E-2
2.701055656E0,-1.378145218E-1,3.975982368E-1,4.673709720E-2
2.703048729E0,-1.474016160E-1,4.018591642E-1,4.354140162E-2
2.705041802E0,-1.569887102E-1,4.039896131E-1,3.928046674E-2
2.707034874E0,-1.697715074E-1,4.071853161E-1,3.715000302E-2
2.709027947E0,-1.782933772E-1,4.061200917E-1,3.182383627E-2
2.711021020E0,-1.900109351E-1,4.071853161E-1,2.649767138E-2
2.713014093E0,-1.942718774E-1,4.061200917E-1,2.223674022E-2
2.715007166E0,-2.027937323E-1,4.029243886E-1,1.797580719E-2
2.717000239E0,-2.102503628E-1,4.018591642E-1,1.371487509E-2
2.718993312E0,-2.166417688E-1,3.997286856E-1,1.051917579E-2
2.720986385E0,-2.219679356E-1,3.922720551E-1,4.127778113E-3
2.722979458E0,-2.272941023E-1,3.880111277E-1,9.320789250E-4
2.724972531E0,-2.283593267E-1,3.805544972E-1,-3.328853287E-3
2.726965604E0,-2.326202542E-1,3.730978668E-1,-8.655018173E-3
2.728958677E0,-2.368811965E-1,3.635107577E-1,-1.185071748E-2
2.730951749E0,-2.368811965E-1,3.549889028E-1,-1.504641678E-2
2.732944822E0,-2.379464209E-1,3.443365693E-1,-1.824211515E-2
2.734937895E0,-2.379464209E-1,3.304885328E-1,-2.037258074E-2
2.736930968E0,-2.347507328E-1,3.187709749E-1,-2.250304818E-2
2.738924041E0,-2.326202542E-1,3.070534170E-1,-2.356828004E-2
2.740917114E0,-2.326202542E-1,2.921401560E-1,-2.569874749E-2
2.742910187E0,-2.304897904E-1,2.782921195E-1,-2.676397935E-2
2.744903260E0,-2.262288630E-1,2.633788586E-1,-2.782921307E-2
2.746896333E0,-2.209026963E-1,2.474003732E-1,-2.782921307E-2
2.748889406E0,-2.198374718E-1,2.292914093E-1,-2.782921307E-2
2.750882479E0,-2.123808414E-1,2.133129090E-1,-2.676397935E-2
2.752875552E0,-2.102503628E-1,1.983996481E-1,-2.463351376E-2
2.754868624E0,-2.059894353E-1,1.813559234E-1,-2.250304818E-2
2.756861697E0,-1.995980442E-1,1.643121988E-1,-1.930734888E-2
2.758854770E0,-1.964023411E-1,1.504641622E-1,-1.611164957E-2
2.760847843E0,-1.932066381E-1,1.312899739E-1,-1.291595027E-2
2.762840916E0,-1.868152469E-1,1.163767055E-1,-8.655018173E-3
2.764833989E0,-1.814890802E-1,1.025286764E-1,-5.459319334E-3
2.766827010E0,-1.782933772E-1,8.761541545E-2,-1.198387123E-3
2.768820031E0,-1.740324497E-1,7.270215452E-2,3.062544856E-3
2.770813052E0,-1.719019860E-1,5.991935730E-2,7.323476952E-3
2.772806072E0,-1.676410437E-1,4.500609636E-2,1.371487509E-2
2.774799093E0,-1.644453406E-1,3.435376659E-2,1.691057347E-2
2.776792114E0,-1.612496525E-1,1.731003635E-2,2.117150649E-2
2.778785135E0,-1.601844132E-1,8.788172156E-3,2.756290510E-2
2.780778156E0,-1.601844132E-1,-2.929390874E-3,3.075860441E-2
2.782771177E0,-1.580539495E-1,-1.251648832E-2,3.608476743E-2
2.784764197E0,-1.559234858E-1,-2.103835158E-2,4.034570232E-2
2.786757218E0,-1.569887102E-1,-3.169068322E-2,4.354140162E-2
2.788750239E0,-1.569887102E-1,-3.914731368E-2,4.993279651E-2
2.790743260E0,-1.569887102E-1,-4.660394415E-2,5.099803209E-2
2.792736281E0,-1.569887102E-1,-5.406057462E-2,5.525896326E-2
2.794729302E0,-1.580539495E-1,-6.045197323E-2,5.951989442E-2
2.796722322E0,-1.569887102E-1,-6.364767253E-2,6.058513001E-2
2.798715343E0,-1.591191888E-1,-6.577813625E-2,6.591129303E-2
2.800708364E0,-1.601844132E-1,-7.110430300E-2,6.804175675E-2
2.802701385E0,-1.601844132E-1,-7.323476672E-2,7.017222792E-2
2.804694406E0,-1.612496525E-1,-7.110430300E-2,7.230269164E-2
2.806687427E0,-1.623148769E-1,-7.323476672E-2,7.549838722E-2
2.808680447E0,-1.633801162E-1,-7.430000603E-2,7.549838722E-2
2.810673468E0,-1.612496525E-1,-7.003907114E-2,7.869409025E-2
2.812666489E0,-1.612496525E-1,-6.684337556E-2,7.975932211E-2
2.814659510E0,-1.633801162E-1,-6.684337556E-2,8.188978583E-2
2.816652531E0,-1.601844132E-1,-6.045197323E-2,8.188978583E-2
2.818645552E0,-1.612496525E-1,-5.725627393E-2,8.188978583E-2
2.820638572E0,-1.601844132E-1,-5.619104207E-2,8.188978583E-2
2.822631593E0,-1.580539495E-1,-5.299534276E-2,8.295502514E-2
2.824624614E0,-1.601844132E-1,-4.553871229E-2,8.295502514E-2
2.826617635E0,-1.559234858E-1,-4.660394415E-2,8.295502514E-2
2.828610656E0,-1.537930220E-1,-4.021254554E-2,8.402025700E-2
2.830603677E0,-1.516625583E-1,-3.701684624E-2,8.295502514E-2
2.832596697E0,-1.484668553E-1,-3.382114694E-2,8.508548886E-2
2.834589718E0,-1.484668553E-1,-2.956021577E-2,8.402025700E-2
2.836582739E0,-1.420754492E-1,-2.529928461E-2,8.508548886E-2
2.838575760E0,-1.420754492E-1,-2.210358530E-2,8.828118443E-2
2.840568781E0,-1.388797611E-1,-2.103835158E-2,8.934641629E-2
2.842561802E0,-1.367492825E-1,-1.890788600E-2,9.360735118E-2
2.844554822E0,-1.356840581E-1,-1.251648832E-2,9.467258304E-2
2.846547843E0,-1.335535944E-1,-1.145125460E-2,9.893351793E-2
2.848540864E0,-1.282274276E-1,-7.190322969E-3,1.010639817E-1
2.850533885E0,-1.260969639E-1,-1.864157850E-3,1.042596847E-1
2.852526906E0,-1.271621883E-1,-7.989247679E-4,1.074553803E-1
2.854519927E0,-1.239664927E-1,1.331541222E-3,1.074553803E-1
2.856512947E0,-1.229012609E-1,5.592473317E-3,1.095858440E-1
2.858505968E0,-1.207707971E-1,6.657706574E-3,1.117163152E-1
2.860498989E0,-1.175750941E-1,7.722939365E-3,1.127815470E-1
2.862492010E0,-1.143793985E-1,1.091863867E-2,1.138467789E-1
2.864485031E0,-1.143793985E-1,1.198387146E-2,1.149120107E-1
2.866478052E0,-1.133141592E-1,1.517957076E-2,1.159772426E-1
2.868471072E0,-1.111836955E-1,1.411433797E-2,1.181077138E-1
2.870464093E0,-1.111836955E-1,1.624480449E-2,1.170424819E-1
2.872457114E0,-1.069227681E-1,1.517957076E-2,1.159772426E-1
2.874450135E0,-1.037270650E-1,1.198387146E-2,1.127815470E-1
2.876443156E0,-1.015966013E-1,9.853405878E-3,1.095858440E-1
2.878436177E0,-9.733566642E-2,7.722939365E-3,1.053249165E-1
2.880429197E0,-9.520520270E-2,2.663082560E-4,9.999874979E-2
2.882422218E0,-8.881380409E-2,-6.125089712E-3,9.573781490E-2
2.884415239E0,-8.242240548E-2,-1.145125460E-2,8.934641629E-2
2.886408260E0,-7.922670245E-2,-2.103835158E-2,8.402025700E-2
2.888401281E0,-7.177007198E-2,-3.062544949E-2,7.975932211E-2
2.890394302E0,-6.963960826E-2,-3.808208182E-2,7.230269164E-2
2.892387322E0,-6.218297780E-2,-4.553871229E-2,6.804175675E-2
2.894380343E0,-5.259587988E-2,-5.406057462E-2,6.271559745E-2
2.896373364E0,-4.833494872E-2,-6.151720881E-2,5.738943070E-2
2.898366385E0,-4.194355011E-2,-7.003907114E-2,5.525896326E-2
2.900359406E0,-3.448691964E-2,-7.749570161E-2,5.312849581E-2
2.902352427E0,-3.022598661E-2,-8.601756394E-2,4.886756465E-2
2.904345447E0,-2.383458801E-2,-9.347419441E-2,4.567186534E-2
2.906338468E0,-1.744319126E-2,-1.009308323E-1,4.460663348E-2
2.908331489E0,-1.318225823E-2,-1.073222235E-1,4.247616604E-2
2.910324510E0,-9.986559860E-3,-1.126483902E-1,4.141093418E-2
2.912317531E0,-4.660394508E-3,-1.179745570E-1,3.821523488E-2
2.914310552E0,-2.529928461E-3,-1.233007237E-1,3.928046674E-2
2.916303572E0,-3.994623839E-4,-1.275616586E-1,3.715000302E-2
2.918296593E0,2.929390874E-3,-1.296921223E-1,3.608476743E-2
2.920289614E0,3.994623665E-3,-1.328878254E-1,3.395430371E-2
2.922282635E0,7.190322969E-3,-1.339530498E-1,3.288906813E-2
2.924275656E0,7.190322969E-3,-1.360835135E-1,3.075860441E-2
2.926268729E0,7.190322969E-3,-1.382139921E-1,2.862813696E-2
2.928261802E0,6.125089712E-3,-1.392792165E-1,2.649767138E-2
2.930254874E0,2.929390874E-3,-1.403444558E-1,2.543243766E-2
2.932247947E0,1.864157850E-3,-1.403444558E-1,2.330197208E-2
2.934241020E0,7.989247679E-4,-1.403444558E-1,2.117150649E-2
2.936234093E0,-2.529928461E-3,-1.392792165E-1,2.010627277E-2
2.938227166E0,-8.921326138E-3,-1.371487528E-1,1.797580719E-2
2.940220239E0,-1.105179265E-2,-1.371487528E-1,1.691057347E-2
2.942213312E0,-1.637795754E-2,-1.339530498E-1,1.478010789E-2
2.944206385E0,-2.170412242E-2,-1.307573467E-1,1.371487509E-2
2.946199458E0,-2.916075476E-2,-1.275616586E-1,1.264964230E-2
2.948192531E0,-3.342168778E-2,-1.233007237E-1,1.264964230E-2
2.950185604E0,-3.661738336E-2,-1.190397888E-1,1.264964230E-2
2.952178677E0,-4.513924941E-2,-1.147788614E-1,1.158440951E-2
2.954171749E0,-5.153064802E-2,-1.094526947E-1,1.264964230E-2
2.956164822E0,-5.579157919E-2,-1.030612960E-1,1.264964230E-2
2.958157895E0,-6.218297780E-2,-9.880036116E-2,1.264964230E-2
2.960150968E0,-6.857437640E-2,-9.240896255E-2,1.158440951E-2
2.962144041E0,-7.283531129E-2,-8.921326697E-2,1.264964230E-2
2.964137114E0,-7.603100687E-2,-8.388710022E-2,1.264964230E-2
2.966130187E0,-8.135717362E-2,-7.536523789E-2,1.371487509E-2
2.968123260E0,-8.242240548E-2,-7.216953486E-2,1.264964230E-2
2.970116333E0,-8.668334037E-2,-6.790860742E-2,1.158440951E-2
2.972109406E0,-8.881380409E-2,-6.364767253E-2,1.264964230E-2
2.974102479E0,-8.987903595E-2,-5.832150951E-2,1.051917579E-2
2.976095552E0,-9.094426781E-2,-5.725627393E-2,1.158440951E-2
2.978088624E0,-9.413997084E-2,-5.406057462E-2,1.051917579E-2
2.980081697E0,-9.094426781E-2,-5.086487532E-2,9.453942999E-3
2.982074770E0,-9.094426781E-2,-4.979964346E-2,8.388710208E-3
2.984067843E0,-9.520520270E-2,-5.086487532E-2,5.193010904E-3
2.986060916E0,-9.413997084E-2,-5.193011090E-2,5.193010904E-3
2.988053989E0,-9.627043456E-2,-5.193011090E-2,1.997311832E-3
2.990047062E0,-9.520520270E-2,-5.619104207E-2,-1.198387123E-3
2.992040135E0,-9.733566642E-2,-6.045197323E-2,-3.328853287E-3
2.994033208E0,-9.840089828E-2,-6.577813625E-2,-6.524552125E-3
2.996026281E0,-1.037270650E-1,-7.003907114E-2,-1.185071748E-2
2.998019302E0,-1.026618332E-1,-7.856093347E-2,-1.717688330E-2
3.000012322E0,-1.047922969E-1,-8.814803511E-2,-2.143781446E-2
3.002005343E0,-1.090532318E-1,-9.560466558E-2,-2.569874749E-2
3.003998364E0,-1.133141592E-1,-1.051917598E-1,-3.102491237E-2
3.005991385E0,-1.186403260E-1,-1.158440933E-1,-3.741630912E-2
3.007984406E0,-1.250317246E-1,-1.275616586E-1,-4.167724028E-2
3.009977427E0,-1.292926520E-1,-1.360835135E-1,-4.806863889E-2
3.011970447E0,-1.367492825E-1,-1.478010863E-1,-5.019910634E-2
3.013963468E0,-1.420754492E-1,-1.605838835E-1,-5.446003750E-2
3.015956489E0,-1.495320797E-1,-1.733666807E-1,-5.872096866E-2
3.017949510E0,-1.580539495E-1,-1.882799417E-1,-5.978620425E-2
3.019942531E0,-1.644453406E-1,-1.978670359E-1,-6.298190355E-2
3.021935552E0,-1.750976741E-1,-2.085193694E-1,-6.511236727E-2
3.023928572E0,-1.814890802E-1,-2.202369273E-1,-6.617759913E-2
3.025921593E0,-1.921414137E-1,-2.340849638E-1,-6.617759913E-2
3.027914614E0,-1.995980442E-1,-2.489982247E-1,-6.404713541E-2
3.029907635E0,-2.081198990E-1,-2.596505582E-1,-6.298190355E-2
3.031900656E0,-2.198374718E-1,-2.734985650E-1,-5.978620425E-2
3.033893677E0,-2.294245660E-1,-2.852161527E-1,-5.872096866E-2
3.035886697E0,-2.379464209E-1,-3.001294136E-1,-5.552527308E-2
3.037879718E0,-2.464682907E-1,-3.097164929E-1,-5.232957378E-2
3.039872739E0,-2.581858635E-1,-3.214340508E-1,-4.806863889E-2
3.041865760E0,-2.667077184E-1,-3.320863843E-1,-4.487293959E-2
3.043858781E0,-2.762948275E-1,-3.427387178E-1,-4.061200842E-2
3.045851802E0,-2.858819067E-1,-3.512606025E-1,-3.741630912E-2
3.047844822E0,-2.944037914E-1,-3.587172329E-1,-3.102491237E-2
3.049837843E0,-3.007951677E-1,-3.672390878E-1,-2.250304818E-2
3.051830864E0,-3.103822768E-1,-3.693695366E-1,-1.824211515E-2
3.053823885E0,-3.167736828E-1,-3.746957183E-1,-1.078548469E-2
3.055816906E0,-3.242303133E-1,-3.789566457E-1,-6.524552125E-3
3.057809927E0,-3.295564651E-1,-3.810871243E-1,-1.331541280E-4
3.059802947E0,-3.327521682E-1,-3.842828274E-1,7.323476952E-3
3.061795968E0,-3.359478712E-1,-3.853480518E-1,1.371487509E-2
3.063788989E0,-3.402087986E-1,-3.842828274E-1,2.330197208E-2
3.065782010E0,-3.402087986E-1,-3.853480518E-1,2.862813696E-2
3.067775031E0,-3.423392773E-1,-3.842828274E-1,3.395430371E-2
3.069768052E0,-3.423392773E-1,-3.853480518E-1,4.034570232E-2
3.071761072E0,-3.434045017E-1,-3.832175732E-1,4.886756465E-2
3.073754093E0,-3.402087986E-1,-3.821523488E-1,4.993279651E-2
3.075747114E0,-3.402087986E-1,-3.810871243E-1,5.525896326E-2
3.077740135E0,-3.370130956E-1,-3.821523488E-1,6.058513001E-2
3.079733156E0,-3.306216896E-1,-3.810871243E-1,6.165036187E-2
3.081726177E0,-3.274259865E-1,-3.832175732E-1,6.484606117E-2
3.083719197E0,-3.220998347E-1,-3.842828274E-1,6.484606117E-2
3.085712218E0,-3.125127256E-1,-3.853480518E-1,6.697652489E-2
3.087705239E0,-3.029256463E-1,-3.864132762E-1,6.484606117E-2
3.089698260E0,-2.944037914E-1,-3.864132762E-1,6.378082931E-2
3.091691281E0,-2.848166823E-1,-3.874785006E-1,6.165036187E-2
3.093684302E0,-2.752295732E-1,-3.896089792E-1,5.738943070E-2
3.095677322E0,-2.624467909E-1,-3.928046823E-1,5.206326395E-2
3.097670343E0,-2.507292330E-1,-3.970656097E-1,4.780233279E-2
3.099663364E0,-2.379464209E-1,-4.013265371E-1,4.354140162E-2
3.101656385E0,-2.240983993E-1,-4.066527188E-1,3.821523488E-2
3.103649406E0,-2.134460658E-1,-4.119788706E-1,3.182383627E-2
3.105642427E0,-2.006632686E-1,-4.151745737E-1,2.543243766E-2
3.107635447E0,-1.910761744E-1,-4.215659797E-1,1.904104091E-2
3.109628468E0,-1.782933772E-1,-4.279573560E-1,1.264964230E-2
3.111621489E0,-1.676410437E-1,-4.343487620E-1,8.388710208E-3
3.113614510E0,-1.569887102E-1,-4.428706169E-1,9.320789250E-4
3.115607531E0,-1.474016160E-1,-4.492620230E-1,-6.524552125E-3
3.117600552E0,-1.367492825E-1,-4.545882046E-1,-9.720250964E-3
3.119593572E0,-1.303578913E-1,-4.609795809E-1,-1.398118306E-2
3.121586593E0,-1.207707971E-1,-4.705666900E-1,-2.143781446E-2
3.123579614E0,-1.175750941E-1,-4.769580960E-1,-2.569874749E-2
3.125572635E0,-1.111836955E-1,-4.844147265E-1,-2.995967865E-2
3.127565656E0,-1.069227681E-1,-4.918713570E-1,-3.315537795E-2
3.129558677E0,-1.047922969E-1,-4.950670600E-1,-3.635107726E-2
3.131551697E0,-1.026618332E-1,-5.035889149E-1,-3.741630912E-2
3.133544718E0,-1.005313694E-1,-5.121107697E-1,-4.061200842E-2
3.135537739E0,-1.026618332E-1,-5.185021758E-1,-4.167724028E-2
3.137530760E0,-1.026618332E-1,-5.280892849E-1,-4.061200842E-2
3.139523781E0,-1.069227681E-1,-5.344806910E-1,-4.061200842E-2
3.141516802E0,-1.111836955E-1,-5.430025458E-1,-4.167724028E-2
3.143509822E0,-1.133141592E-1,-5.483286977E-1,-4.061200842E-2
3.145502843E0,-1.197055578E-1,-5.525896549E-1,-3.848154470E-2
3.147495864E0,-1.292926520E-1,-5.611115098E-1,-3.848154470E-2
3.149488885E0,-1.378145218E-1,-5.685681105E-1,-3.954677656E-2
3.151481958E0,-1.484668553E-1,-5.760247707E-1,-3.528584540E-2
3.153475031E0,-1.601844132E-1,-5.813509226E-1,-3.209014609E-2
3.155468104E0,-1.708367467E-1,-5.866770744E-1,-2.995967865E-2
3.157461177E0,-1.846847683E-1,-5.930684805E-1,-2.463351376E-2
3.159454249E0,-1.964023411E-1,-5.994598866E-1,-2.250304818E-2
3.161447322E0,-2.113156021E-1,-6.047860384E-1,-1.824211515E-2
3.163440395E0,-2.240983993E-1,-6.079817414E-1,-1.398118306E-2
3.165433468E0,-2.379464209E-1,-6.111774445E-1,-1.078548469E-2
3.167426541E0,-2.549901605E-1,-6.175688505E-1,-5.459319334E-3
3.169419614E0,-2.699034214E-1,-6.196992993E-1,-1.198387123E-3
3.171412687E0,-2.826862037E-1,-6.239602566E-1,3.062544856E-3
3.173405760E0,-2.944037914E-1,-6.282211542E-1,7.323476952E-3
3.175398833E0,-3.082517982E-1,-6.346125603E-1,1.158440951E-2
3.177391906E0,-3.189041317E-1,-6.388735175E-1,1.691057347E-2
3.179384979E0,-3.338173926E-1,-6.410039663E-1,2.117150649E-2
3.181378052E0,-3.444697261E-1,-6.431344151E-1,2.756290510E-2
3.183371124E0,-3.561872840E-1,-6.452649236E-1,3.075860441E-2
3.185364197E0,-3.689700961E-1,-6.473953724E-1,3.715000302E-2
3.187357270E0,-3.785571754E-1,-6.484606266E-1,4.034570232E-2
3.189350343E0,-3.902747631E-1,-6.463301182E-1,4.567186534E-2
3.191343416E0,-3.977313936E-1,-6.420692205E-1,4.993279651E-2
3.193336489E0,-4.073184729E-1,-6.378082633E-1,5.099803209E-2
3.195329562E0,-4.158403277E-1,-6.324821115E-1,5.206326395E-2
3.197322635E0,-4.211665094E-1,-6.271559596E-1,5.099803209E-2
3.199315708E0,-4.286231399E-1,-6.207645535E-1,5.419373140E-2
3.201308781E0,-4.339492917E-1,-6.133078933E-1,5.206326395E-2
3.203301854E0,-4.424711764E-1,-6.111774445E-1,4.993279651E-2
3.205294927E0,-4.446016252E-1,-6.058512926E-1,4.780233279E-2
3.207287999E0,-4.467321038E-1,-6.005251408E-1,4.567186534E-2
3.209281072E0,-4.488625526E-1,-5.951989293E-1,4.247616604E-2
3.211274145E0,-4.499278069E-1,-5.888075829E-1,4.247616604E-2
3.213267218E0,-4.467321038E-1,-5.813509226E-1,3.821523488E-2
3.215260291E0,-4.435364008E-1,-5.770899653E-1,3.501953557E-2
3.217253364E0,-4.392754734E-1,-5.685681105E-1,3.288906813E-2
3.219246437E0,-4.328840673E-1,-5.621767044E-1,2.756290510E-2
3.221239510E0,-4.254274368E-1,-5.525896549E-1,2.436720580E-2
3.223232531E0,-4.158403277E-1,-5.451329947E-1,2.010627277E-2
3.225225552E0,-4.030575454E-1,-5.344806910E-1,1.584534161E-2
3.227218572E0,-3.956009150E-1,-5.238283277E-1,1.158440951E-2
3.229211593E0,-3.838833570E-1,-5.131760240E-1,7.323476952E-3
3.231204614E0,-3.700353205E-1,-5.057193637E-1,4.127778113E-3
3.233197635E0,-3.593829870E-1,-4.950670600E-1,3.062544856E-3
3.235190656E0,-3.444697261E-1,-4.844147265E-1,9.320789250E-4
3.237183677E0,-3.306216896E-1,-4.726971686E-1,-1.198387123E-3
3.239176697E0,-3.189041317E-1,-4.620448351E-1,-3.328853287E-3
3.241169718E0,-3.039908707E-1,-4.481967986E-1,-5.459319334E-3
3.243162739E0,-2.890776098E-1,-4.364792407E-1,-5.459319334E-3
3.245155760E0,-2.752295732E-1,-4.247616827E-1,-4.394086078E-3
3.247148781E0,-2.603163123E-1,-4.119788706E-1,-5.459319334E-3
3.249141802E0,-2.485987544E-1,-3.938699067E-1,-3.328853287E-3
3.251134822E0,-2.336854935E-1,-3.757609427E-1,-1.198387123E-3
3.253127843E0,-2.198374718E-1,-3.608476818E-1,-2.263620263E-3
3.255120864E0,-2.059894353E-1,-3.469996452E-1,-1.198387123E-3
3.257113885E0,-1.910761744E-1,-3.320863843E-1,-1.198387123E-3
3.259106906E0,-1.761629134E-1,-3.214340508E-1,9.320789250E-4
3.261099927E0,-1.601844132E-1,-3.086512685E-1,-1.331541280E-4
3.263092947E0,-1.452711523E-1,-2.958684862E-1,-1.198387123E-3
3.265085968E0,-1.282274276E-1,-2.830856740E-1,-2.263620263E-3
3.267078989E0,-1.111836955E-1,-2.692376375E-1,-2.263620263E-3
3.269072010E0,-9.413997084E-2,-2.553896308E-1,-3.328853287E-3
3.271065031E0,-7.816147059E-2,-2.436720580E-1,-4.394086078E-3
3.273058052E0,-6.537867337E-2,-2.308892608E-1,-5.459319334E-3
3.275051072E0,-4.726971686E-2,-2.170412242E-1,-8.655018173E-3
3.277044093E0,-2.809552103E-2,-2.042584270E-1,-1.078548469E-2
3.279037114E0,-1.211702544E-2,-1.925408691E-1,-1.398118306E-2
3.281030135E0,1.864157850E-3,-1.808233112E-1,-1.398118306E-2
3.283023156E0,1.784265228E-2,-1.712362021E-1,-1.717688330E-2
3.285016177E0,3.488638252E-2,-1.605838835E-1,-2.250304818E-2
3.287009197E0,5.086487532E-2,-1.509967744E-1,-2.463351376E-2
3.289002218E0,6.045197323E-2,-1.456706226E-1,-2.889444493E-2
3.290995239E0,7.536523789E-2,-1.371487528E-1,-3.209014609E-2
3.292988260E0,8.495233208E-2,-1.328878254E-1,-3.528584540E-2
3.294981281E0,9.880036116E-2,-1.307573467E-1,-3.954677656E-2
3.296974302E0,1.073222235E-1,-1.286268830E-1,-4.274247587E-2
3.298967322E0,1.179745570E-1,-1.275616586E-1,-4.593817517E-2
3.300960343E0,1.222354919E-1,-1.264964193E-1,-4.913387448E-2
3.302953364E0,1.307573467E-1,-1.275616586E-1,-5.126433820E-2
3.304946385E0,1.318225861E-1,-1.328878254E-1,-5.446003750E-2
3.306939406E0,1.371487528E-1,-1.360835135E-1,-5.552527308E-2
3.308932427E0,1.382139921E-1,-1.414096802E-1,-5.552527308E-2
3.310925447E0,1.371487528E-1,-1.488663107E-1,-5.659050494E-2
3.312918468E0,1.371487528E-1,-1.552577168E-1,-5.659050494E-2
3.314911489E0,1.360835135E-1,-1.627143472E-1,-5.552527308E-2
3.316904510E0,1.318225861E-1,-1.723014414E-1,-5.446003750E-2
3.318897531E0,1.286268830E-1,-1.818885356E-1,-5.126433820E-2
3.320890552E0,1.254311949E-1,-1.882799417E-1,-4.593817517E-2
3.322883572E0,1.190397888E-1,-1.957365721E-1,-4.274247587E-2
3.324876593E0,1.115831584E-1,-2.063889056E-1,-3.848154470E-2
3.326869614E0,1.062569916E-1,-2.127802968E-1,-3.315537795E-2
3.328862635E0,1.009308323E-1,-2.202369273E-1,-2.569874749E-2
3.330855656E0,9.666989744E-2,-2.276935577E-1,-2.037258074E-2
3.332848677E0,9.027849883E-2,-2.340849638E-1,-1.398118306E-2
3.334841697E0,8.388710022E-2,-2.404763550E-1,-6.524552125E-3
3.336834718E0,8.069140464E-2,-2.458025217E-1,-1.331541280E-4
3.338827739E0,7.430000603E-2,-2.489982247E-1,8.388710208E-3
3.340820760E0,6.897383928E-2,-2.511286736E-1,1.371487509E-2
3.342813781E0,6.577813625E-2,-2.543243766E-1,1.797580719E-2
3.344806802E0,6.364767253E-2,-2.585853040E-1,2.330197208E-2
3.346799822E0,6.364767253E-2,-2.585853040E-1,2.756290510E-2
3.348792843E0,6.258244067E-2,-2.596505582E-1,3.075860441E-2
3.350785864E0,5.938674137E-2,-2.639114857E-1,3.501953557E-2
3.352778885E0,6.258244067E-2,-2.649767101E-1,3.501953557E-2
3.354771906E0,6.364767253E-2,-2.671071887E-1,3.608476743E-2
3.356764927E0,6.471290439E-2,-2.681724131E-1,3.715000302E-2
3.358757947E0,7.110430300E-2,-2.692376375E-1,3.395430371E-2
3.360750968E0,7.536523789E-2,-2.681724131E-1,3.182383627E-2
3.362743989E0,7.856093347E-2,-2.671071887E-1,3.075860441E-2
3.364737010E0,8.388710022E-2,-2.681724131E-1,2.756290510E-2
3.366730031E0,9.027849883E-2,-2.639114857E-1,2.436720580E-2
3.368723052E0,9.453943372E-2,-2.585853040E-1,1.904104091E-2
3.370716124E0,1.009308323E-1,-2.521939278E-1,1.584534161E-2
3.372709197E0,1.094526947E-1,-2.436720580E-1,1.158440951E-2
3.374702270E0,1.137136221E-1,-2.319544852E-1,9.453942999E-3
3.376695343E0,1.179745570E-1,-2.234326303E-1,6.258244161E-3
3.378688416E0,1.233007237E-1,-2.042584270E-1,1.997311832E-3
3.380681489E0,1.286268830E-1,-1.882799417E-1,-1.331541280E-4
3.382674562E0,1.307573467E-1,-1.680405140E-1,-2.263620263E-3
3.384667635E0,1.382139921E-1,-1.467358470E-1,-3.328853287E-3
3.386660708E0,1.414096802E-1,-1.211702600E-1,-6.524552125E-3
3.388653781E0,1.424749196E-1,-9.453943372E-2,-8.655018173E-3
3.390646854E0,1.467358470E-1,-7.003907114E-2,-1.185071748E-2
3.392639927E0,1.509967744E-1,-3.808208182E-2,-1.398118306E-2
3.394632999E0,1.520620137E-1,-8.255556226E-3,-1.611164957E-2
3.396626072E0,1.541924775E-1,1.837527007E-2,-2.143781446E-2
3.398619145E0,1.573881805E-1,5.139749497E-2,-2.356828004E-2
3.400612218E0,1.616491079E-1,8.441971987E-2,-2.676397935E-2
3.402605291E0,1.637795717E-1,1.153114736E-1,-3.209014609E-2
3.404598364E0,1.669752747E-1,1.451379955E-1,-3.741630912E-2
3.406591437E0,1.723014414E-1,1.728340536E-1,-4.487293959E-2
3.408584510E0,1.754971445E-1,1.994648874E-1,-5.126433820E-2
3.410577583E0,1.786928326E-1,2.250304818E-1,-5.872096866E-2
3.412570656E0,1.850842386E-1,2.516613007E-1,-6.617759913E-2
3.414563729E0,1.872147024E-1,2.729659677E-1,-7.363422960E-2
3.416556802E0,1.904104054E-1,2.921401560E-1,-8.109086752E-2
3.418549874E0,1.957365721E-1,3.091838956E-1,-8.961272985E-2
3.420542947E0,2.031932026E-1,3.251623809E-1,-9.706936032E-2
3.422536020E0,2.053236663E-1,3.358147144E-1,-1.055912226E-1
3.424529093E0,2.106498331E-1,3.464670479E-1,-1.130478531E-1
3.426522166E0,2.149107605E-1,3.560541272E-1,-1.194392517E-1
3.428515239E0,2.213021666E-1,3.645760119E-1,-1.268958896E-1
3.430508312E0,2.244978547E-1,3.656412363E-1,-1.311568171E-1
3.432501385E0,2.287587970E-1,3.699021637E-1,-1.343525201E-1
3.434494458E0,2.298240215E-1,3.699021637E-1,-1.386134475E-1
3.436487531E0,2.330197245E-1,3.688369393E-1,-1.396786869E-1
3.438480604E0,2.351501882E-1,3.677717149E-1,-1.407439113E-1
3.440473677E0,2.362154275E-1,3.624455333E-1,-1.418091506E-1
3.442466749E0,2.383458912E-1,3.571193814E-1,-1.407439113E-1
3.444459770E0,2.404763550E-1,3.517931998E-1,-1.375482082E-1
3.446452791E0,2.404763550E-1,3.443365693E-1,-1.343525201E-1
3.448445812E0,2.404763550E-1,3.368799388E-1,-1.322220564E-1
3.450438833E0,2.415415943E-1,3.240971565E-1,-1.279611140E-1
3.452431854E0,2.404763550E-1,3.155752718E-1,-1.247654185E-1
3.454424874E0,2.404763550E-1,3.027924895E-1,-1.194392517E-1
3.456417895E0,2.404763550E-1,2.910749316E-1,-1.141130850E-1
3.458410916E0,2.372806519E-1,2.782921195E-1,-1.109173894E-1
3.460403937E0,2.340849638E-1,2.633788586E-1,-1.045259908E-1
3.462396958E0,2.319544852E-1,2.463351339E-1,-1.002650559E-1
3.464389979E0,2.298240215E-1,2.324871123E-1,-9.600412846E-2
3.466382999E0,2.244978547E-1,2.133129090E-1,-9.280842543E-2
3.468376020E0,2.191716880E-1,1.952039450E-1,-8.641702682E-2
3.470369041E0,2.138455361E-1,1.760297567E-1,-8.535179496E-2
3.472362062E0,2.085193694E-1,1.568555683E-1,-8.215609938E-2
3.474355083E0,2.021279633E-1,1.366161406E-1,-7.789516449E-2
3.476348104E0,1.946713328E-1,1.142462417E-1,-7.682993263E-2
3.478341124E0,1.861494780E-1,9.187635034E-2,-7.363422960E-2
3.480334145E0,1.765623689E-1,6.631075591E-2,-7.150376588E-2
3.482327166E0,1.691057384E-1,4.394086078E-2,-6.830807030E-2
3.484320187E0,1.605838835E-1,1.944050193E-2,-6.617759913E-2
3.486313208E0,1.520620137E-1,-5.059856921E-3,-6.511236727E-2
3.488306229E0,1.403444558E-1,-2.742975019E-2,-6.191666797E-2
3.490299249E0,1.318225861E-1,-5.299534276E-2,-5.872096866E-2
3.492292270E0,1.201050207E-1,-7.856093347E-2,-5.659050494E-2
3.494285291E0,1.062569916E-1,-1.030612960E-1,-5.339480564E-2
3.496278312E0,9.666989744E-2,-1.275616586E-1,-5.019910634E-2
3.498271333E0,8.282186836E-2,-1.499315500E-1,-4.593817517E-2
3.500264354E0,6.897383928E-2,-1.723014414E-1,-4.380770773E-2
3.502257374E0,5.619104207E-2,-1.936061084E-1,-3.848154470E-2
3.504250395E0,4.447348043E-2,-2.106498331E-1,-3.528584540E-2
3.506243416E0,3.169068322E-2,-2.298240215E-1,-3.102491237E-2
3.508236437E0,1.997311972E-2,-2.458025217E-1,-2.676397935E-2
3.510229458E0,5.059856921E-3,-2.607157826E-1,-2.143781446E-2
3.512222479E0,-8.921326138E-3,-2.734985650E-1,-1.717688330E-2
3.514215499E0,-2.170412242E-2,-2.830856740E-1,-1.398118306E-2
3.516208520E0,-3.555215150E-2,-2.926727831E-1,-9.720250964E-3
3.518201541E0,-4.513924941E-2,-2.979989350E-1,-6.524552125E-3
3.520194562E0,-5.792204663E-2,-3.043903410E-1,-2.263620263E-3
3.522187583E0,-6.750914454E-2,-3.022598624E-1,-1.331541280E-4
3.524180604E0,-7.603100687E-2,-3.033251166E-1,4.127778113E-3
3.526173624E0,-8.881380409E-2,-3.022598624E-1,5.193010904E-3
3.528166645E0,-9.413997084E-2,-2.990641594E-1,8.388710208E-3
3.530159666E0,-1.015966013E-1,-2.916075289E-1,8.388710208E-3
3.532152687E0,-1.069227681E-1,-2.852161527E-1,1.158440951E-2
3.534145708E0,-1.133141592E-1,-2.777595222E-1,1.371487509E-2
3.536138729E0,-1.133141592E-1,-2.681724131E-1,1.264964230E-2
3.538131749E0,-1.154446304E-1,-2.564548552E-1,1.371487509E-2
3.540124770E0,-1.154446304E-1,-2.479329854E-1,1.264964230E-2
3.542117791E0,-1.143793985E-1,-2.340849638E-1,1.371487509E-2
3.544110812E0,-1.133141592E-1,-2.223673910E-1,1.264964230E-2
3.546103833E0,-1.111836955E-1,-2.063889056E-1,1.264964230E-2
3.548096854E0,-1.069227681E-1,-1.946713328E-1,1.051917579E-2
3.550089874E0,-1.005313694E-1,-1.786928326E-1,9.453942999E-3
3.552082895E0,-9.520520270E-2,-1.659100503E-1,9.453942999E-3
3.554075916E0,-8.774857223E-2,-1.509967744E-1,7.323476952E-3
3.556068937E0,-7.922670245E-2,-1.350182891E-1,5.193010904E-3
3.558061958E0,-7.070484012E-2,-1.211702600E-1,5.193010904E-3
3.560054979E0,-6.431344151E-2,-1.083874628E-1,4.127778113E-3
3.562047999E0,-5.259587988E-2,-9.347419441E-2,1.997311832E-3
3.564041020E0,-4.513924941E-2,-8.175663650E-2,9.320789250E-4
3.566034041E0,-3.661738336E-2,-7.110430300E-2,-1.331541280E-4
3.568027062E0,-2.489982173E-2,-6.258244067E-2,-3.328853287E-3
3.570020083E0,-1.424749196E-2,-4.979964346E-2,-2.263620263E-3
3.572013104E0,-6.790860556E-3,-4.340824485E-2,-6.524552125E-3
3.574006124E0,2.929390874E-3,-3.808208182E-2,-7.589785382E-3
3.575999145E0,1.571218669E-2,-3.062544949E-2,-8.655018173E-3
3.577992166E0,2.529928461E-2,-2.529928461E-2,-1.185071748E-2
3.579985187E0,3.382114694E-2,-1.997311972E-2,-1.398118306E-2
3.581978208E0,4.447348043E-2,-1.571218669E-2,-1.504641678E-2
3.583971229E0,5.193011090E-2,-1.251648832E-2,-1.824211515E-2
3.585964249E0,5.938674137E-2,-1.038602181E-2,-1.824211515E-2
3.587957270E0,6.684337556E-2,-9.320789017E-3,-2.037258074E-2
3.589950291E0,7.430000603E-2,-7.190322969E-3,-2.037258074E-2
3.591943364E0,8.069140464E-2,-8.255556226E-3,-2.250304818E-2
3.593936437E0,8.708280325E-2,-8.255556226E-3,-2.250304818E-2
3.595929510E0,9.347419441E-2,-7.190322969E-3,-2.356828004E-2
3.597922583E0,9.560466558E-2,-9.320789017E-3,-2.356828004E-2
3.599915656E0,9.880036116E-2,-1.038602181E-2,-2.463351376E-2
3.601908729E0,1.019960642E-1,-9.320789017E-3,-2.569874749E-2
3.603901802E0,1.041265279E-1,-1.251648832E-2,-2.569874749E-2
3.605894874E0,1.051917598E-1,-1.145125460E-2,-2.782921307E-2
3.607887947E0,1.051917598E-1,-1.145125460E-2,-2.676397935E-2
3.609881020E0,1.041265279E-1,-1.145125460E-2,-2.782921307E-2
3.611874093E0,1.030612960E-1,-1.358172111E-2,-2.676397935E-2
3.613867166E0,1.019960642E-1,-1.251648832E-2,-2.676397935E-2
3.615860239E0,9.986559302E-2,-1.038602181E-2,-2.676397935E-2
3.617853312E0,9.666989744E-2,-9.320789017E-3,-2.782921307E-2
3.619846385E0,9.453943372E-2,-8.255556226E-3,-2.889444493E-2
3.621839458E0,9.240896255E-2,-5.059856921E-3,-2.782921307E-2
3.623832531E0,8.921326697E-2,-3.994623665E-3,-2.889444493E-2
3.625825604E0,8.601756394E-2,-2.929390874E-3,-2.889444493E-2
3.627818677E0,8.495233208E-2,1.331541222E-3,-2.995967865E-2
3.629811749E0,8.282186836E-2,3.462007269E-3,-2.995967865E-2
3.631804822E0,7.856093347E-2,7.722939365E-3,-3.209014609E-2
3.633797895E0,7.749570161E-2,1.304910425E-2,-3.315537795E-2
3.635790968E0,7.323476672E-2,1.731003635E-2,-3.315537795E-2
3.637784041E0,7.003907114E-2,2.370143496E-2,-3.528584540E-2
3.639777114E0,7.003907114E-2,3.009283356E-2,-3.528584540E-2
3.641770187E0,6.790860742E-2,3.754946589E-2,-3.741630912E-2
3.643763260E0,6.684337556E-2,4.287562892E-2,-3.848154470E-2
3.645756333E0,6.364767253E-2,5.139749497E-2,-4.061200842E-2
3.647749406E0,6.471290439E-2,5.778888986E-2,-4.167724028E-2
3.649742479E0,6.258244067E-2,6.631075591E-2,-4.380770773E-2
3.651735552E0,6.151720881E-2,7.483261824E-2,-4.593817517E-2
3.653728624E0,6.258244067E-2,8.335448056E-2,-4.700340703E-2
3.655721697E0,6.151720881E-2,9.081111848E-2,-4.806863889E-2
3.657714770E0,6.258244067E-2,9.826774895E-2,-5.019910634E-2
3.659707843E0,6.258244067E-2,1.057243794E-1,-5.339480564E-2
3.661700916E0,6.258244067E-2,1.153114736E-1,-5.552527308E-2
3.663693989E0,6.258244067E-2,1.195724085E-1,-5.765573680E-2
3.665687010E0,6.471290439E-2,1.259638071E-1,-5.872096866E-2
3.667680031E0,6.790860742E-2,1.323551983E-1,-6.298190355E-2
3.669673052E0,6.790860742E-2,1.366161406E-1,-6.404713541E-2
3.671666072E0,6.790860742E-2,1.419423074E-1,-6.830807030E-2
3.673659093E0,7.216953486E-2,1.462032348E-1,-7.043853402E-2
3.675652114E0,7.430000603E-2,1.493989378E-1,-7.256899774E-2
3.677645135E0,7.643046975E-2,1.515294015E-1,-7.576470077E-2
3.679638156E0,7.643046975E-2,1.547250897E-1,-7.896039635E-2
3.681631177E0,8.069140464E-2,1.568555683E-1,-8.215609938E-2
3.683624197E0,8.282186836E-2,1.547250897E-1,-8.535179496E-2
3.685617218E0,8.495233208E-2,1.557903290E-1,-8.748225868E-2
3.687610239E0,8.921326697E-2,1.568555683E-1,-9.174319357E-2
3.689603260E0,9.027849883E-2,1.557903290E-1,-9.387365729E-2
3.691596281E0,9.453943372E-2,1.536598653E-1,-9.493889660E-2
3.693589302E0,9.560466558E-2,1.536598653E-1,-9.600412846E-2
3.695582322E0,9.773512930E-2,1.504641622E-1,-9.706936032E-2
3.697575343E0,9.986559302E-2,1.472684592E-1,-1.013302878E-1
3.699568364E0,1.041265279E-1,1.462032348E-1,-1.002650559E-1
3.701561385E0,1.051917598E-1,1.440727711E-1,-1.013302878E-1
3.703554406E0,1.094526947E-1,1.430075318E-1,-1.013302878E-1
3.705547427E0,1.126483902E-1,1.376813650E-1,-1.023955271E-1
3.707540447E0,1.126483902E-1,1.355509013E-1,-1.013302878E-1
3.709533468E0,1.158440933E-1,1.334204376E-1,-1.002650559E-1
3.711526489E0,1.179745570E-1,1.302247345E-1,-9.919982404E-2
3.713519510E0,1.179745570E-1,1.291595101E-1,-9.813459218E-2
3.715512531E0,1.201050207E-1,1.248985752E-1,-9.706936032E-2
3.717505552E0,1.211702600E-1,1.248985752E-1,-9.387365729E-2
3.719498572E0,1.243659556E-1,1.227681041E-1,-9.280842543E-2
3.721491593E0,1.254311949E-1,1.195724085E-1,-9.067796171E-2
3.723484614E0,1.254311949E-1,1.185071766E-1,-8.854749799E-2
3.725477635E0,1.243659556E-1,1.163767055E-1,-8.535179496E-2
3.727470656E0,1.264964193E-1,1.163767055E-1,-8.215609938E-2
3.729463677E0,1.243659556E-1,1.142462417E-1,-8.109086752E-2
3.731456697E0,1.254311949E-1,1.153114736E-1,-7.789516449E-2
3.733449718E0,1.264964193E-1,1.153114736E-1,-7.363422960E-2
3.735442739E0,1.264964193E-1,1.163767055E-1,-7.043853402E-2
3.737435760E0,1.264964193E-1,1.163767055E-1,-6.830807030E-2
3.739428781E0,1.286268830E-1,1.206376404E-1,-6.511236727E-2
3.741421802E0,1.275616586E-1,1.238333359E-1,-6.191666797E-2
3.743414822E0,1.296921223E-1,1.259638071E-1,-5.978620425E-2
3.745407843E0,1.296921223E-1,1.280942708E-1,-5.659050494E-2
3.747400864E0,1.318225861E-1,1.334204376E-1,-5.232957378E-2
3.749393885E0,1.318225861E-1,1.366161406E-1,-5.232957378E-2
3.751386906E0,1.318225861E-1,1.408770680E-1,-5.019910634E-2
3.753379927E0,1.339530498E-1,1.430075318E-1,-4.913387448E-2
3.755372947E0,1.339530498E-1,1.483336985E-1,-4.593817517E-2
3.757365968E0,1.350182891E-1,1.525946259E-1,-4.487293959E-2
3.759358989E0,1.382139921E-1,1.589860320E-1,-4.380770773E-2
3.761352010E0,1.392792165E-1,1.632469594E-1,-4.274247587E-2
3.763345031E0,1.403444558E-1,1.685731262E-1,-4.380770773E-2
3.765338052E0,1.414096802E-1,1.749645174E-1,-4.487293959E-2
3.767331072E0,1.403444558E-1,1.781602204E-1,-4.380770773E-2
3.769324093E0,1.414096802E-1,1.856168509E-1,-4.487293959E-2
3.771317114E0,1.424749196E-1,1.920082569E-1,-4.593817517E-2
3.773310135E0,1.424749196E-1,1.994648874E-1,-4.593817517E-2
3.775303156E0,1.424749196E-1,2.015953511E-1,-4.806863889E-2
3.777296177E0,1.424749196E-1,2.079867423E-1,-4.806863889E-2
3.779289197E0,1.414096802E-1,2.154433727E-1,-5.126433820E-2
3.781282218E0,1.392792165E-1,2.207695395E-1,-5.126433820E-2
3.783275239E0,1.403444558E-1,2.239652425E-1,-5.232957378E-2
3.785268260E0,1.403444558E-1,2.324871123E-1,-5.126433820E-2
3.787261281E0,1.382139921E-1,2.356828004E-1,-5.232957378E-2
3.789254302E0,1.382139921E-1,2.410089672E-1,-5.126433820E-2
3.791247322E0,1.371487528E-1,2.442046702E-1,-5.019910634E-2
3.793240343E0,1.360835135E-1,2.495308369E-1,-5.126433820E-2
3.795233364E0,1.350182891E-1,2.505960763E-1,-5.019910634E-2
3.797226385E0,1.328878254E-1,2.559222281E-1,-4.806863889E-2
3.799219406E0,1.318225861E-1,2.580527067E-1,-4.806863889E-2
3.801212427E0,1.296921223E-1,2.601831555E-1,-4.700340703E-2
3.803205447E0,1.296921223E-1,2.601831555E-1,-4.593817517E-2
3.805198468E0,1.307573467E-1,2.623136342E-1,-4.593817517E-2
3.807191489E0,1.307573467E-1,2.623136342E-1,-4.487293959E-2
3.809184562E0,1.286268830E-1,2.612484097E-1,-4.380770773E-2
3.811177635E0,1.307573467E-1,2.623136342E-1,-4.487293959E-2
3.813170708E0,1.328878254E-1,2.601831555E-1,-4.380770773E-2
3.815163781E0,1.350182891E-1,2.580527067E-1,-4.487293959E-2
3.817156854E0,1.360835135E-1,2.569874525E-1,-4.700340703E-2
3.819149927E0,1.371487528E-1,2.559222281E-1,-4.593817517E-2
3.821142999E0,1.382139921E-1,2.505960763E-1,-4.700340703E-2
3.823136072E0,1.392792165E-1,2.463351339E-1,-4.913387448E-2
3.825129145E0,1.424749196E-1,2.463351339E-1,-4.806863889E-2
3.827122218E0,1.446053833E-1,2.388785034E-1,-4.913387448E-2
3.829115291E0,1.446053833E-1,2.356828004E-1,-4.913387448E-2
3.831108364E0,1.478010863E-1,2.335523367E-1,-5.019910634E-2
3.833101437E0,1.509967744E-1,2.292914093E-1,-4.913387448E-2
3.835094510E0,1.509967744E-1,2.250304818E-1,-5.019910634E-2
3.837087583E0,1.552577168E-1,2.207695395E-1,-4.913387448E-2
3.839080656E0,1.541924775E-1,2.165086120E-1,-4.700340703E-2
3.841073729E0,1.541924775E-1,2.111824453E-1,-4.700340703E-2
3.843066802E0,1.541924775E-1,2.069215178E-1,-4.380770773E-2
3.845059874E0,1.531272531E-1,2.047910541E-1,-4.380770773E-2
3.847052947E0,1.520620137E-1,1.994648874E-1,-4.061200842E-2
3.849046020E0,1.531272531E-1,1.962691844E-1,-3.848154470E-2
3.851039093E0,1.499315500E-1,1.920082569E-1,-3.528584540E-2
3.853032166E0,1.467358470E-1,1.877473146E-1,-3.315537795E-2
3.855025239E0,1.456706226E-1,1.824211627E-1,-2.995967865E-2
3.857018312E0,1.414096802E-1,1.792254597E-1,-2.676397935E-2
3.859011385E0,1.371487528E-1,1.738992929E-1,-2.356828004E-2
3.861004458E0,1.339530498E-1,1.685731262E-1,-2.143781446E-2
3.862997531E0,1.307573467E-1,1.632469594E-1,-1.930734888E-2
3.864990604E0,1.264964193E-1,1.600512564E-1,-1.504641678E-2
3.866983677E0,1.211702600E-1,1.525946259E-1,-1.291595027E-2
3.868976749E0,1.147788614E-1,1.451379955E-1,-9.720250964E-3
3.870969822E0,1.115831584E-1,1.398118287E-1,-7.589785382E-3
3.872962895E0,1.051917598E-1,1.334204376E-1,-6.524552125E-3
3.874955968E0,9.880036116E-2,1.238333359E-1,-6.524552125E-3
3.876949041E0,9.666989744E-2,1.163767055E-1,-5.459319334E-3
3.878942114E0,9.134373069E-2,1.089200750E-1,-4.394086078E-3
3.880935187E0,8.388710022E-2,1.025286764E-1,-5.459319334E-3
3.882928208E0,8.282186836E-2,9.294158220E-2,-5.459319334E-3
3.884921229E0,7.856093347E-2,8.548495173E-2,-6.524552125E-3
3.886914249E0,7.110430300E-2,7.696308941E-2,-5.459319334E-3
3.888907270E0,6.790860742E-2,7.163692266E-2,-6.524552125E-3
3.890900291E0,6.364767253E-2,6.311506033E-2,-7.589785382E-3
3.892893312E0,5.938674137E-2,5.565842614E-2,-7.589785382E-3
3.894886333E0,5.725627393E-2,5.033225939E-2,-8.655018173E-3
3.896879354E0,5.193011090E-2,4.500609636E-2,-8.655018173E-3
3.898872374E0,4.979964346E-2,3.861469775E-2,-9.720250964E-3
3.900865395E0,4.660394415E-2,3.648423031E-2,-9.720250964E-3
3.902858416E0,4.447348043E-2,3.115806542E-2,-1.185071748E-2
3.904851437E0,4.021254554E-2,2.902759984E-2,-1.185071748E-2
3.906844458E0,3.701684624E-2,2.370143496E-2,-1.078548469E-2
3.908837479E0,3.488638252E-2,2.157096937E-2,-1.185071748E-2
3.910830499E0,3.275591508E-2,1.624480449E-2,-1.291595027E-2
3.912823520E0,2.956021577E-2,1.411433797E-2,-1.398118306E-2
3.914816541E0,2.636451647E-2,1.411433797E-2,-1.398118306E-2
3.916809562E0,2.210358530E-2,9.853405878E-3,-1.398118306E-2
3.918802583E0,2.316881903E-2,9.853405878E-3,-1.611164957E-2
3.920795604E0,1.997311972E-2,7.722939365E-3,-1.611164957E-2
3.922788624E0,1.784265228E-2,7.722939365E-3,-1.717688330E-2
3.924781645E0,1.571218669E-2,6.657706574E-3,-1.824211515E-2
3.926774666E0,1.571218669E-2,6.657706574E-3,-1.824211515E-2
3.928767687E0,1.464695390E-2,6.657706574E-3,-1.930734888E-2
3.930760708E0,1.358172111E-2,6.657706574E-3,-1.930734888E-2
3.932753729E0,1.251648832E-2,6.657706574E-3,-2.037258074E-2
3.934746749E0,1.145125460E-2,7.722939365E-3,-2.250304818E-2
3.936739770E0,1.145125460E-2,8.788172156E-3,-2.250304818E-2
3.938732791E0,1.251648832E-2,9.853405878E-3,-2.356828004E-2
3.940725812E0,1.464695390E-2,8.788172156E-3,-2.356828004E-2
3.942718833E0,1.464695390E-2,1.091863867E-2,-2.463351376E-2
3.944711854E0,1.251648832E-2,1.304910425E-2,-2.463351376E-2
3.946704874E0,1.997311972E-2,1.304910425E-2,-2.356828004E-2
3.948697895E0,1.890788600E-2,1.624480449E-2,-2.356828004E-2
3.950690916E0,2.103835158E-2,1.731003635E-2,-2.356828004E-2
3.952683937E0,2.210358530E-2,1.837527007E-2,-2.463351376E-2
3.954676958E0,2.210358530E-2,1.944050193E-2,-2.463351376E-2
3.956669979E0,2.636451647E-2,2.157096937E-2,-2.250304818E-2
3.958662999E0,2.742975019E-2,2.263620123E-2,-2.037258074E-2
3.960656020E0,3.062544949E-2,2.583190054E-2,-1.930734888E-2
3.962649041E0,3.169068322E-2,2.796236612E-2,-1.717688330E-2
3.964642062E0,3.488638252E-2,2.902759984E-2,-1.717688330E-2
3.966635083E0,3.701684624E-2,3.115806542E-2,-1.398118306E-2
3.968628104E0,4.127778113E-2,3.009283356E-2,-1.291595027E-2
3.970621124E0,4.127778113E-2,3.115806542E-2,-1.078548469E-2
3.972614145E0,4.447348043E-2,3.115806542E-2,-9.720250964E-3
3.974607166E0,4.447348043E-2,3.328853101E-2,-9.720250964E-3
3.976600187E0,4.873441160E-2,3.115806542E-2,-8.655018173E-3
3.978593208E0,5.086487532E-2,3.328853101E-2,-6.524552125E-3
3.980586229E0,4.979964346E-2,3.115806542E-2,-6.524552125E-3
3.982579249E0,5.299534276E-2,3.115806542E-2,-6.524552125E-3
3.984572270E0,5.832150951E-2,3.115806542E-2,-8.655018173E-3
3.986565291E0,5.619104207E-2,2.902759984E-2,-5.459319334E-3
3.988558312E0,5.619104207E-2,2.689713426E-2,-6.524552125E-3
3.990551333E0,5.832150951E-2,2.476666868E-2,-7.589785382E-3
3.992544354E0,5.938674137E-2,2.050573565E-2,-7.589785382E-3
3.994537374E0,5.725627393E-2,1.944050193E-2,-8.655018173E-3
3.996530395E0,5.938674137E-2,1.517957076E-2,-9.720250964E-3
3.998523416E0,5.832150951E-2,1.198387146E-2,-1.291595027E-2
4.000516437E0,5.832150951E-2,8.788172156E-3,-1.291595027E-2
4.002509458E0,5.832150951E-2,2.396774245E-3,-1.504641678E-2
4.004502479E0,5.725627393E-2,2.663082560E-4,-1.824211515E-2
4.006495499E0,5.619104207E-2,-3.994623665E-3,-1.930734888E-2
4.008488520E0,5.299534276E-2,-3.994623665E-3,-2.143781446E-2
4.010481541E0,5.086487532E-2,-9.320789017E-3,-2.356828004E-2
4.012474562E0,5.086487532E-2,-1.358172111E-2,-2.569874749E-2
4.014467583E0,4.766917601E-2,-1.358172111E-2,-2.676397935E-2
4.016460604E0,4.234301299E-2,-1.677742042E-2,-2.889444493E-2
4.018453624E0,4.021254554E-2,-1.997311972E-2,-2.995967865E-2
4.020446645E0,3.808208182E-2,-1.997311972E-2,-3.102491237E-2
4.022439718E0,3.808208182E-2,-2.103835158E-2,-3.315537795E-2
4.024432791E0,3.382114694E-2,-2.210358530E-2,-3.315537795E-2
4.026425864E0,3.062544949E-2,-2.210358530E-2,-3.315537795E-2
4.028418937E0,2.742975019E-2,-2.316881903E-2,-3.422060981E-2
4.030412010E0,2.742975019E-2,-2.103835158E-2,-3.209014609E-2
4.032405083E0,2.529928461E-2,-1.997311972E-2,-3.315537795E-2
4.034398156E0,2.423405088E-2,-1.997311972E-2,-3.209014609E-2
4.036391229E0,2.210358530E-2,-1.784265228E-2,-3.209014609E-2
4.038384302E0,2.210358530E-2,-1.464695390E-2,-3.102491237E-2
4.040377374E0,2.316881903E-2,-1.145125460E-2,-3.102491237E-2
4.042370447E0,2.103835158E-2,-1.038602181E-2,-3.102491237E-2
4.044363520E0,2.423405088E-2,-7.190322969E-3,-2.995967865E-2
4.046356593E0,2.529928461E-2,-2.929390874E-3,-2.995967865E-2
