Time (s),Acceleration x (m/s^2),Acceleration y (m/s^2),Acceleration z (m/s^2),Absolute acceleration (m/s^2)
30.00065871,2.645448761,-5.048701172,-2.245929565,6.126335143
30.01074071,2.115251312,-3.866459656,-2.383643188,5.010544205
30.02082271,1.977537689,-2.981200562,-2.439776459,4.330210303
30.03090471,2.564916229,-2.40923996,-2.590662689,4.369755784
30.04098671,3.300336914,-1.81362854,-2.811603241,4.699636689
30.05106871,3.868405609,-1.542841644,-2.478396149,4.846376973
30.06115071,4.218377838,-1.841620331,-1.671274567,4.896880201
30.07123271,4.993765411,-2.032623138,-0.518821106,5.416495652
30.08131471,5.594316559,-2.308798828,0.385897522,6.064309251
30.09139671,5.796396332,-3.339106293,0.9461824036,6.755967911
30.10147871,5.362598419,-5.494923248,2.302212524,8.015723662
30.11156071,3.508404236,-8.271499329,5.018014984,10.29111635
30.12164271,0.9264234924,-11.05585922,8.439899139,13.93994911
30.13172471,-0.7650590515,-14.55064178,10.84599564,18.16430877
30.14180671,-3.479963379,-19.81669098,18.47143845,27.31309987
30.15188871,-7.882009277,-26.06365036,27.56472885,38.74602195
30.16197071,-8.904532928,-29.69659561,17.77074554,35.73482748
30.17205271,-7.065606995,-25.03648636,6.287375336,26.76339926
30.18213471,-6.297105103,-15.76147385,2.92057663,17.22229248
30.19221671,-4.860692139,-8.916358337,1.744921417,10.30400528
30.20229871,-4.02977005,-4.836741943,1.562450867,6.486476084
30.21238071,-5.280269623,-3.359613647,-0.4447251892,6.274235543
30.22246271,-3.768413544,-5.066364441,-9.132209473,11.10253301
30.23254471,2.79064682,-8.992400208,-15.81880463,18.40884437
30.24262671,9.714498596,-12.02524338,-13.28607147,20.38375962
30.25270871,11.89606201,-12.0926033,-6.323450317,18.10340769
30.26279071,12.52954468,-11.96641571,12.1921463,21.18567974
30.27287271,9.959389343,-14.89477615,33.59688492,38.07616668
30.28295471,6.965764618,-14.02253998,9.222471771,18.17161219
30.29303671,4.218078461,-10.54212753,-7.733368378,13.73803571
30.30311821,-2.231559448,-8.055498505,-8.457113342,11.89090744
30.31320021,-4.964576111,-6.431824951,-8.714877319,11.91488459
30.32328221,-2.255509644,-6.307583313,-8.573122101,10.87986
30.33336421,0.9044192505,-7.262297974,-6.621330872,9.869192903
30.34344621,2.116748199,-8.193062439,-4.523144073,9.595088711
30.35352821,2.786754913,-9.40045166,-3.840413818,10.53011266
30.36361021,2.658621368,-10.1138681,-3.665427704,11.08124342
30.37369221,1.678609314,-10.46069687,-3.206631775,11.06916418
30.38377421,0.7334747314,-11.48322052,-1.539997559,11.60921751
30.39385621,0.5972579956,-12.67055145,1.288370819,12.74988198
30.40393821,0.2640509033,-13.35178482,3.430266724,13.78791538
30.41402021,-0.3844006348,-12.74838959,3.260669403,13.16439007
30.42410221,-0.2148033142,-11.50297943,2.006128235,11.67857983
30.43418421,0.3064128113,-9.855205994,1.381028137,9.956214778
30.44426621,0.833915863,-8.330326996,1.475332031,8.500962776
30.45434821,1.036594391,-7.424560547,1.713337097,7.689873292
30.46443021,1.235979767,-6.919211426,0.6069877625,7.05489666
30.47451221,1.382375336,-6.647376709,-1.162482605,6.88839201
30.48459421,1.382075958,-6.678511963,-2.217788086,7.17155771
30.49467621,1.804796906,-7.101681976,-2.317630463,7.685218912
30.50475821,2.132615204,-7.557334442,-1.999242554,8.102982307
30.51484021,2.026186523,-7.941735077,-1.240769806,8.28951733
30.52492221,1.934876404,-8.074059906,-0.4059558105,8.312580236
30.53500421,1.639989624,-8.331823883,-0.1178050232,8.492510419
30.54508621,1.302142181,-8.577612762,0.1660047913,8.67747501
30.55516821,1.053209839,-8.568781128,0.5754034424,8.652418743
30.56525021,0.7054829407,-8.358318787,0.5620811462,8.406850441
30.57533221,0.3772155762,-8.142467651,0.3576063538,8.159041203
30.58541421,0.03218307495,-8.25847641,0.1044827271,8.259200022
30.59549621,-0.2748284912,-8.874744873,0.1001417542,8.879563933
30.60557821,-0.5993536377,-9.931247864,0.4490661621,9.959446236
30.61566021,-0.7774832153,-10.96215408,0.9960287476,11.03473496
30.62574221,-0.9505233765,-11.8683696,1.521735535,12.00322334
30.63582421,-1.060694275,-12.660672,2.1459375,12.88498101
30.64590621,-1.255888367,-13.19191727,2.36478241,13.46091128
30.65598821,-1.82650177,-13.15419571,1.413809967,13.35544204
30.66607021,-2.734064484,-13.04761734,0.07544311523,13.33120844
30.67615221,-3.832180939,-13.22140594,0.4899311829,13.77429557
30.68623421,-4.532275085,-13.21017929,2.531385956,14.19359959
30.69631621,-4.632117462,-13.14012497,4.822820892,14.74377827
30.70639821,-4.479434967,-12.69450165,6.01778595,14.74548939
30.71648021,-4.713548126,-12.35425919,4.786745911,14.06265239
30.72656221,-5.393434296,-12.14095276,2.23605011,13.47188879
30.73664421,-5.807622986,-11.44205612,1.472487946,12.91577926
30.74672621,-6.016289062,-11.02801712,2.034718781,12.72607466
30.75680821,-5.198090515,-11.77182037,2.048490143,13.03043406
30.76689021,-2.890938263,-14.05457336,0.8560697937,14.37433171
30.77697221,0.2377056885,-15.95756607,-2.905158691,16.22160183
30.78705421,3.288212128,-16.62562683,-7.750881958,18.63598609
30.79713621,5.565576324,-17.38454865,-8.842711487,20.28279364
30.80721821,7.034920807,-17.56911484,-5.910010071,19.82655104
30.81730021,6.197562103,-16.08016113,-0.8053253174,17.25195371
30.82738221,4.63241684,-14.52714066,3.309767303,15.60293758
30.83746421,4.799469452,-13.95203659,4.97520401,15.57070605
30.84754621,5.727838898,-13.65924545,3.494632874,15.21826481
30.85762821,6.24127121,-13.49563568,0.9222322083,14.89752198
30.86771021,5.521867218,-12.57190659,-1.162183228,13.78022215
30.87779221,2.89483017,-10.65319656,-2.470462646,11.31255163
30.88787421,-0.6114784241,-9.585616608,-2.507585449,9.927030593
30.89795621,-3.411106567,-9.901010742,-1.682351532,10.60641167
30.90803821,-3.746109924,-9.817185059,-0.9117539978,10.54712081
30.91812021,-2.099234619,-9.213939514,-0.9689350891,9.499594863
30.92820221,-0.5352868652,-8.898096313,-0.8792715454,8.957442073
30.93828421,0.996328125,-8.30053894,-1.198856964,8.445642335
30.94836621,2.315834198,-7.622748413,-1.505718842,8.107809237
30.95844821,2.931803284,-6.907386017,-1.516795807,7.655594138
30.96853021,3.116369476,-6.011199646,-1.921703796,7.038410714
30.97861221,3.047213287,-5.221142578,-1.850601654,6.322227861
30.98869421,2.678230591,-4.162693634,-1.807940369,5.269685547
30.99877621,2.219284973,-3.392994232,-1.734293518,4.409694962
31.00885821,2.452050934,-2.856509857,-1.762884064,4.156917436
31.01894021,2.630928955,-2.078278198,-2.009870453,3.909041657
31.02902221,3.115022278,-1.627116394,-2.001787262,4.044505383
31.03910421,3.738625488,-1.515897675,-1.712438965,4.382660552
31.04918621,4.136647797,-1.216969299,-1.309925995,4.506525866
31.05926821,4.320016479,-1.390159149,-0.5733078003,4.574250395
31.06935021,4.938230896,-1.816622314,-0.03053649902,5.261860269
31.07943221,4.82192276,-2.655777283,0.7839198303,5.560451634
31.08951421,3.878135376,-4.389172668,2.325863342,6.301937083
31.09959621,1.960772552,-6.732399902,5.319637756,8.80161254
31.10967821,-0.2647993469,-9.856403503,9.258696442,13.52561527
31.11976021,-1.353036346,-14.11609543,12.25995529,18.74570247
31.12984221,-4.645888824,-20.28147446,22.43399826,30.59749609
31.13992421,-9.782606964,-27.95526672,26.79083817,39.93676685
31.15000621,-10.62625259,-31.20096725,12.38090378,35.20943595
31.16008821,-8.970545654,-24.63068024,4.342020721,26.57055216
31.17017021,-6.408473511,-14.74314148,4.028273163,16.57274081
31.18025221,-3.655099182,-8.836424561,4.522994385,10.57826201
31.19033421,-1.764380951,-6.312822418,3.06682251,7.236723522
31.20041621,0.7119195557,-7.688012695,-1.312171326,7.831613004
31.21049821,5.60943512,-12.69989044,-7.869136047,15.95858019
31.22058021,9.195228424,-15.81670898,-12.79928375,22.32805799
31.23066221,9.858349457,-14.31742676,-12.13586334,21.2003524
31.24074421,8.510851593,-10.15548157,-5.69835022,14.42357778
31.25082621,8.15085022,-8.420738983,17.8921431,21.38864159
31.26090821,6.762337646,-8.110733643,21.39530823,23.85943052
31.27099021,6.928641815,-5.052593079,1.388213196,8.686881494
31.28107221,3.73144043,-2.54021759,-6.480024719,7.897282662
31.29115421,-2.30041626,-2.792892151,-8.269553375,9.026498466
31.30123621,-2.229164429,-5.489235077,-9.668244781,11.3391284
31.31131808,1.692680054,-8.864116974,-9.508975983,13.10947595
31.32140008,2.757715302,-10.76710968,-7.238048401,13.26367178
31.33148208,2.685265961,-11.25734024,-5.203928375,12.68933541
31.34156508,1.738634491,-11.95444061,-4.508474579,12.8941011
31.35164708,0.3150947571,-12.79389496,-3.898942108,13.37851944
31.36172908,-0.8765771484,-13.57991043,-1.999242554,13.75424755
31.37181108,-1.747765503,-13.75250153,0.8342152405,13.88819274
31.38189308,-1.705104218,-12.84029846,3.10424469,13.31979655
31.39197508,-0.5379812622,-11.47319138,3.130440216,11.90475536
31.40205708,1.029409332,-10.04037094,2.22781723,10.33595191
31.41213908,1.767823792,-8.840166779,1.653012543,9.165489627
31.42222108,2.23605011,-7.574997711,0.868793335,7.945773233
31.43230308,2.886746979,-6.490802307,-0.1389111328,7.10514736
31.44238508,3.297941895,-5.864654388,-1.505569153,6.894732069
31.45246708,3.1253508,-6.163133698,-2.067799988,7.213032052
31.46254908,2.479593658,-7.303761749,-2.090103607,7.991361179
31.47263108,2.299069061,-8.312514038,-1.785187683,8.807411836
31.48271308,2.019450531,-8.998836823,-0.7511380005,9.253186095
31.49279508,1.691183167,-9.139244843,0.8312214661,9.331496446
31.50287708,1.063238983,-8.808582458,1.85224823,9.063797525
31.51295908,0.01347198486,-8.233628082,1.850901031,8.439114143
31.52304108,-0.8405021667,-7.545658722,1.219963074,7.689715166
31.53312308,-1.379680939,-7.165299683,0.1552272034,7.298570718
31.54320508,-1.172811127,-7.357799377,-0.877325592,7.502159543
31.55328708,-0.5876779175,-8.219707031,-1.795965271,8.434123563
31.56336908,-0.02844085693,-9.340725861,-1.9083815,9.533723744
31.57345108,0.1188528442,-10.7084317,-0.9632469177,10.75232441
31.58353308,0.02993774414,-11.83858154,0.5490582275,11.85134482
31.59361508,-0.2603086853,-12.3262674,2.290387115,12.53995621
31.60369708,-0.8096662903,-12.40784775,3.579207001,12.93912547
31.61377908,-1.550625458,-12.52445526,3.157533875,13.00909063
31.62386108,-2.156116333,-12.87951691,1.395697632,13.13311712
31.63394308,-3.120710449,-13.06168808,0.3043171692,13.43276361
31.64402508,-4.539011078,-13.14716034,0.5430706787,13.91924467
31.65410708,-5.661077728,-13.20703583,1.884431305,14.49222818
31.66418908,-6.141428833,-12.82308426,3.423231354,14.62419745
31.67427108,-5.511987762,-12.0156633,4.855453033,14.08309617
31.68435308,-4.141288147,-11.48232239,5.439089355,13.3632963
31.69443508,-3.360362091,-11.31916168,4.269870758,12.55576564
31.70451708,-3.355272675,-10.94119766,3.226540375,11.89025752
31.71459908,-3.657494202,-10.88237,3.51259552,12.00589721
31.72468108,-3.304228821,-11.87839874,5.154082031,13.36333964
31.73476308,-1.231638794,-13.88273071,4.080215149,14.52223474
31.74484508,0.6011499023,-15.6837854,-2.981050873,15.9758934
31.75492708,1.807341614,-17.24818222,-10.30696655,20.17423687
31.76500908,3.845652924,-18.61199615,-11.01469482,21.96631397
31.77509108,6.54079834,-19.11779434,-6.697073364,21.28668352
31.78517308,7.824828186,-18.61109802,-0.7292834473,20.20229591
31.79525508,6.921307068,-16.91258011,5.312452698,19.03055467
31.80533708,7.057374115,-14.89732086,7.398065643,18.06842753
31.81541908,8.0396315,-14.05666901,4.584067383,16.82971455
31.82550108,8.249944153,-13.54518265,0.6225553894,15.8720234
31.83558308,6.233188019,-12.05862396,-1.6217276,13.67088312
31.84566508,1.604812775,-9.86149292,-2.193089447,10.22908148
31.85574708,-2.613864441,-8.59542572,-1.181942139,9.061490928
31.86582908,-3.923940125,-8.295299835,-0.453407135,9.187757261
31.87591108,-2.822680206,-8.394842834,-0.9216334534,8.904511103
31.88599308,-0.1860630798,-8.215815125,-1.18059494,8.302291373
31.89607508,1.58550293,-7.828570404,-1.179547119,8.074135589
31.90615708,2.279010773,-7.773035889,-1.078656921,8.171748759
31.91623908,3.133733368,-7.576494598,-1.287023621,8.299396666
31.92632108,3.036286011,-7.270830231,-1.210382996,7.971764672
31.93640308,2.451601868,-6.798861694,-1.399589539,7.361638604
31.94648508,1.992805939,-5.736221466,-1.663640442,6.296285551
31.95656708,1.188678131,-4.470753021,-1.636696472,4.907072816
31.96664908,0.5930667114,-3.204386444,-1.792821808,3.719412674
31.97673108,0.840352478,-2.092199249,-1.999990997,3.013876901
31.98681308,1.42638382,-1.129700775,-2.296524353,2.929986134
31.99689508,2.006427612,-0.4888833618,-2.099683685,2.945068808
32.00697708,2.583327942,-0.4785548401,-1.537003784,3.04384274
32.01705908,2.983595581,-0.4757107544,-1.170416107,3.240064379
32.02714108,3.289559326,-0.937350769,-0.6262976074,3.477366204
32.03722308,3.618874512,-1.391805725,0.1184037781,3.879097236
32.04730508,3.539240112,-2.258054352,1.059646454,4.329882289
32.05738708,3.230282593,-3.947141876,2.186802521,5.549482848
32.06746908,2.648741913,-6.369404755,3.880231018,7.914628444
32.07755108,1.382824402,-10.18541931,8.131690063,13.10646227
32.08763308,-0.543968811,-15.42721893,13.04058197,20.20771546
32.09771508,-4.667444,-23.35772736,24.30001785,34.02733208
32.10779708,-10.61831909,-33.30574036,30.86042542,46.63032166
32.11787908,-11.9201619,-36.11225418,12.12149323,39.91385423
32.12796108,-9.244326324,-26.13490219,3.761527863,27.9756997
32.13804308,-6.478228455,-12.37102432,3.782633972,14.4678266
32.14812508,-3.950884094,-4.586911469,2.967578888,6.742089172
32.15820708,-0.5406756592,-1.623224487,0.6749464417,1.839222826
32.16828908,4.481530609,-4.032314758,-4.339925079,7.428231863
32.17837108,10.42851379,-9.584868164,-11.03669907,17.95640064
32.18845308,13.40597214,-13.48111588,-12.39796829,22.6973609
32.19853508,12.95016998,-13.68663849,-9.389524384,21.0521767
32.20861808,12.1496347,-12.2837558,3.435954895,17.61561994
32.21870008,7.064110107,-11.68679718,19.59664856,23.88538287
32.22878108,0.9318122864,-9.880353699,6.628366241,11.93419048
32.23886408,-1.289867706,-6.805597687,-3.044668579,7.566368041
32.24894608,-4.05087616,-4.430636444,-3.786675568,7.097820004
32.25902808,-3.919898529,-4.479285278,-7.097490692,9.263043518
32.26911008,-0.07873626709,-6.951693878,-8.823850708,11.23354746
32.27919208,3.780238953,-9.585017853,-8.963659973,13.65686545
32.28927408,4.886438599,-10.61981598,-7.356601868,13.81221795
32.29935608,4.424199829,-10.5532045,-5.850284271,12.85182848
32.30943783,3.128344574,-10.51488419,-4.074077911,11.70245445
32.31951983,1.698667603,-11.08175537,-1.375489655,11.29525323
32.32960183,0.08382568359,-12.17208801,1.538800049,12.26925666
32.33968383,-1.206042023,-12.78326706,2.99781601,13.18534622
32.34976583,-1.409468994,-12.47550705,2.523452454,12.80596311
32.35984783,-0.563278656,-11.48576523,1.696122894,11.62398032
32.36992983,0.537532196,-10.16655853,0.9339079285,10.22350416
32.38001183,1.087488556,-8.66098938,0.216000824,8.731667925
32.39009383,1.770667877,-7.15512085,-1.016536102,7.440723402
32.40017583,2.083367615,-6.575675812,-2.289638672,7.267900539
32.41025783,2.131268005,-6.827901306,-2.259551239,7.501207327
32.42033983,1.949545898,-7.546257477,-1.62876297,7.962386572
32.43042183,1.667981415,-8.398734741,-0.6991960144,8.591261975
32.44050383,1.233135681,-9.245224457,-0.01766326904,9.327116964
32.45058583,0.8448431396,-9.418264618,0.5373825073,9.471338253
32.46066783,0.3841012573,-8.998088379,1.263073425,9.094420417
32.47074983,-0.06930587769,-8.41759552,1.80898819,8.610061319
32.48083183,-0.5971083069,-7.821834412,1.446741486,7.976884907
32.49091383,-0.9530680847,-7.38788681,0.2751278687,7.454187121
32.50099583,-0.6258485413,-7.183262329,-0.8514294434,7.260569963
32.51107783,-0.03293151855,-7.466772766,-1.548679504,7.625758207
32.52115983,0.3787124634,-8.084538116,-1.518292694,8.234585138
32.53124183,0.2649490356,-9.20271286,-0.6364764404,9.228500649
32.54132383,-0.03143463135,-10.48494644,0.7988887024,10.51538459
32.55140583,-0.2616558838,-11.43067978,2.310146027,11.6647194
32.56148783,-0.6051914978,-11.74083481,3.559897156,12.28357955
32.57156983,-1.298549652,-11.67557053,3.538491669,12.26890792
32.58165183,-1.957180023,-11.99994598,2.178869019,12.35219525
32.59173383,-2.87956192,-12.56472153,0.8050259399,12.9155786
32.60181583,-4.528981934,-12.98429901,0.8431965637,13.7773248
32.61189783,-6.028563538,-13.19565948,1.688638458,14.60549579
32.62197983,-6.69168457,-13.34864136,2.599045258,15.15651361
32.63206183,-6.208190002,-13.15853668,4.276307373,15.16494364
32.64214383,-4.771926727,-12.12882797,5.895041199,14.30493843
32.65222583,-3.42368042,-11.27665009,4.947511597,12.78132606
32.66230783,-2.594853973,-10.88266937,4.547543335,12.07666801
32.67238983,-2.039359131,-10.6912175,5.694009247,12.28343839
32.68247183,-2.078876953,-11.68769531,3.767216034,12.45455209
32.69255383,-2.28634552,-13.39384735,-0.5848338318,13.6001674
32.70263583,-1.934427338,-14.94881378,-4.723876648,15.79633037
32.71271783,-1.32100296,-16.42369675,-7.583979034,18.13834617
32.72279983,0.05358856201,-17.94498322,-9.067394257,20.10579352
32.73288183,2.258802795,-19.06076294,-7.710166626,20.68481432
32.74296383,5.715115356,-19.46926346,-3.387306061,20.57154845
32.75304583,7.977959747,-19.03052582,3.285218353,20.89500931
32.76312783,8.679550781,-17.89588531,7.327262878,21.19636984
32.77320983,9.88604187,-16.38372986,6.402036896,20.17787165
32.78329183,10.16236725,-14.66560272,2.51686615,18.01910726
32.79337383,8.509654083,-12.57295441,-0.4776567078,15.18952109
32.80345583,4.333338776,-9.74443634,-2.356250153,10.92171137
32.81353783,-0.3159928894,-7.77168869,-1.411414948,7.905130534
32.82361983,-2.512076111,-7.377707977,-0.5089416504,7.810257549
32.83370183,-3.332669678,-7.284601593,-1.090781708,8.084671439
32.84378383,-2.179318085,-7.215146027,-1.377734985,7.661978412
32.85386583,0.1127156067,-7.248975677,-1.679357758,7.441814003
32.86394783,1.754950562,-6.934629364,-1.712289276,7.355329391
32.87402983,2.949167175,-6.66249527,-1.592987366,7.458152519
32.88411283,3.624862061,-6.546486511,-1.681303711,7.669608384
32.89419483,3.813769226,-6.152206421,-1.801653442,7.459251617
32.90427683,3.187621307,-5.662275238,-1.656305695,6.705642328
32.91435883,2.164798279,-4.740641785,-1.579365692,5.445588316
32.92444083,1.244811401,-3.876937866,-1.450034637,4.322360824
32.93452283,0.9777667236,-2.922672272,-1.648970947,3.495303443
32.94460483,1.310973816,-1.83114212,-2.012415161,3.020190158
32.95468683,1.766925659,-0.9198371887,-2.099384308,2.894052731
32.96476883,2.176623688,-0.4619393921,-1.643582153,2.76630457
32.97485083,2.710413666,-0.6382727051,-0.943787384,2.94014777
32.98493283,2.978206787,-1.128054199,-0.2948867798,3.198308953
32.99501483,3.488495636,-1.835483093,0.4959187317,3.972975632
33.00509683,3.848946075,-3.108735352,1.501078491,5.170286067
33.01517883,3.80628479,-4.9647258,2.600542145,6.774889343
33.02526083,2.5812323,-7.382198639,4.326902161,8.93765625
33.03534283,1.153950348,-11.16857483,8.459957428,14.05843323
33.04542483,-0.9702822876,-15.93885498,13.33681595,20.80526869
33.05550683,-5.699697418,-22.34448441,23.56624374,32.97166023
33.06558883,-12.07868225,-29.47625381,25.04771301,40.52322829
33.07567083,-15.05524246,-31.71035797,13.76507538,37.70523078
33.08575283,-12.19768478,-23.30174377,6.439159698,27.07799023
33.09583483,-8.14261734,-12.18900284,4.288282471,15.27296218
33.10591683,-3.712280273,-6.058201904,1.859582977,7.344445792
33.11599883,0.3471281433,-4.069138184,-1.703008575,4.424773634
33.12608083,4.489015045,-7.183711395,-6.22720047,10.51356225
33.13616283,9.922416229,-13.79546219,-11.31167725,20.41379835
33.14624483,12.41323654,-18.07506271,-13.99514694,26.01269827
33.15632683,10.08961853,-16.51410873,-10.38166122,21.96121762
33.16640883,7.542964325,-13.30493225,2.363734589,15.47594179
33.17649083,0.8225395203,-10.33944901,20.41739182,22.90088788
33.18657283,1.547631683,-7.044051819,12.36847961,14.31758073
33.19665483,4.778213654,-2.856958923,-0.1835183716,5.570208165
33.20673683,3.039728851,0.1681004333,-8.100405121,8.65359881
33.21681883,1.313518524,-1.404978333,-8.258326721,8.479342856
33.22690083,5.193001099,-6.675667877,-8.463849335,11.965306
33.23698283,8.208181,-11.33577713,-8.31580719,16.27964151
33.24706483,7.076384583,-12.71171585,-6.717580719,16.02463196
33.25714683,4.971761169,-12.43030106,-4.655019836,14.17391982
33.26722883,1.507814484,-11.82181641,-3.134032745,12.32278414
33.27731083,-2.464624786,-12.47715363,-1.001417542,12.75760852
33.28739283,-4.657265167,-13.68678818,1.135538635,14.50199081
33.29747483,-5.829028473,-13.9161113,2.158661041,15.24124483
33.30755742,-5.393733673,-13.05360489,1.92709259,14.25491667
33.31763942,-3.224444733,-11.23623413,1.204844513,11.75166591
33.32772142,-0.872535553,-9.445657654,0.9060658264,9.529046232
33.33780342,0.7506889343,-7.868387604,0.245489502,7.907927823
33.34788542,1.851350098,-6.502777405,-1.20873642,6.868380806
33.35796742,2.128274231,-5.916147308,-1.932032318,6.577469046
33.36804942,2.326611786,-6.372697906,-2.130369873,7.110757822
33.37813142,2.913690948,-7.681426392,-1.136287079,8.293675583
33.38821342,2.298769684,-8.713530121,-0.05628295898,9.011832056
33.39829542,1.451082458,-9.338181152,0.5652246094,9.467140349
33.40837742,0.6671626282,-9.374106445,0.8002359009,9.431826712
33.41845942,-0.04251159668,-8.858428802,0.8536747742,8.899569018
33.42854142,-0.6572831726,-8.307424622,0.7131170654,8.363842476
33.43862342,-0.9883946228,-7.916886749,0.2240840149,7.98149318
33.44870642,-0.8655001831,-7.673193512,-0.4463717651,7.734742206
33.45878842,-0.4611909485,-7.711813202,-1.025367737,7.793339396
33.46887042,0.1386117554,-7.869435425,-0.7598199463,7.907246896
33.47895242,0.6143225098,-8.176297302,0.1272354126,8.200330394
33.48903442,0.6596781921,-8.716523895,1.186732178,8.821638022
33.49911642,0.5418731689,-9.339827728,2.162403259,9.602187062
33.50919842,-0.02784210205,-9.997709656,2.575244751,10.3240912
33.51928042,-1.010698242,-10.61038559,2.385888519,10.92219105
33.52936242,-1.986968079,-11.28787674,1.634151764,11.57733369
33.53944442,-2.998714142,-12.10802124,0.7891589355,12.49876941
33.54952642,-4.093986511,-12.84254379,0.3836521912,13.48476346
33.55960842,-5.101391602,-13.06962158,0.7444020081,14.04967398
33.56969042,-5.786816254,-12.91693909,1.657353516,14.25066238
33.57977242,-5.614225159,-12.42012222,2.92282196,13.93993717
33.58985442,-4.340673523,-11.63680115,4.365222473,13.16479224
33.59993642,-3.41080719,-11.13818802,5.598058777,12.92405123
33.61001842,-3.499422913,-10.94778397,5.241500244,12.63223097
33.62010042,-3.550915833,-10.81965042,5.398224335,12.60216904
33.63018242,-3.775149536,-11.03954315,6.27165802,13.24601681
33.64026442,-3.66827179,-12.43958176,2.880909119,13.28529448
33.65034642,-3.195854187,-14.07582916,-1.019978943,14.47006592
33.66042842,-2.156116333,-15.98600693,-2.765349426,16.36607505
33.67051042,-0.5279521179,-17.64979706,-4.936734009,18.33481422
33.68059242,1.838027802,-18.69567215,-6.556066589,19.89694731
33.69067442,4.553081818,-19.20491318,-6.392456818,20.74663222
33.70075642,8.040080566,-19.37645645,-4.113296356,21.37777273
33.71083842,9.561067657,-19.04444687,1.082997894,21.33724105
33.72092042,8.476423187,-17.60533951,5.140610046,20.20454407
33.73100242,8.254135437,-15.55250839,5.18701355,18.35528204
33.74108442,7.974965973,-13.87195313,3.305426331,16.33881908
33.75116642,6.304888916,-12.54047195,1.365011444,14.10242239
33.76124842,2.933150482,-11.06364304,-0.5450166321,11.45882246
33.77133042,-0.759969635,-9.536967773,-0.7682025146,9.597991626
33.78141242,-2.838397522,-8.76038269,-0.6917115784,9.234677595
33.79149442,-2.995570679,-8.338859253,-1.204545135,8.942088476
33.80157642,-1.318009186,-7.989934845,-1.147214355,8.178771779
33.81165842,1.158590698,-7.457042999,-1.21577179,7.643816046
33.82174042,3.278482361,-6.824159088,-1.657503204,7.750155529
33.83182242,4.35968399,-6.083648987,-1.671873322,7.668949726
33.84190442,4.412224731,-5.772446136,-1.249751129,7.372295393
33.85198642,3.651207275,-5.541626129,-1.651216278,6.838673111
33.86206842,2.718796234,-5.391488342,-1.899699554,6.329996675
33.87215042,1.659000092,-4.88973175,-1.799707489,5.468153705
33.88223242,0.8870553589,-4.126468964,-1.691482544,4.547056907
33.89231442,0.9970765686,-3.236868896,-1.824256439,3.846997984
33.90239642,1.465452576,-2.30161377,-2.233056335,3.525835758
33.91247842,2.247276764,-1.469494171,-2.61625946,3.748930452
33.92256042,2.50279541,-1.118923187,-2.491718445,3.704677418
33.93264242,3.154091034,-0.9466314697,-1.875899048,3.78990747
33.94272442,3.580853577,-1.086740112,-0.8131091309,3.82944681
33.95280642,4.024530945,-1.651066589,0.3017724609,4.360497314
33.96288942,4.4497966,-2.627935181,1.127754822,5.289476726
33.97297142,4.271068268,-3.98770752,1.77740387,6.107618188
33.98305342,3.718118134,-5.896687775,2.793790283,7.510032844
33.99313542,2.263892212,-8.611292725,5.29224472,10.3579643
34.00321742,0.6050418091,-12.74883865,8.746611328,15.47262655
34.01329942,-1.411564636,-17.89768158,11.27186005,21.19845158
34.02338142,-5.315296783,-23.79631531,20.95178055,32.14800321
34.03346342,-11.12486572,-30.05929138,24.85671021,40.56081456
34.04354542,-13.61224319,-29.98295013,14.04858582,35.7999054
34.05362742,-10.33630554,-20.56797867,7.142546997,24.10180359
34.06370942,-6.288572845,-11.62273041,4.636907501,14.0048178
34.07379142,-3.607797546,-7.073989563,2.698438568,8.386841013
34.08387342,-1.91661438,-4.270319824,-0.4474195862,4.702044913
34.09395542,-0.1484912109,-2.567610626,-4.661755829,5.3241564
34.10403742,2.738854523,-2.989882507,-7.853418732,8.83837696
34.11411942,7.062762909,-6.916217651,-9.417516174,13.65306916
34.12420142,10.85018692,-12.09889023,-8.011340332,18.11880997
34.13428342,11.33667526,-14.60812225,-5.405409393,19.26488755
34.14436542,10.90467361,-14.79837662,-0.6047424316,18.3921062
34.15444742,8.08992691,-15.44742691,18.25693451,25.24649626
34.16452942,0.7752378845,-13.68139938,19.7208902,24.01447882
34.17461142,-0.6231541443,-10.36564453,3.207529907,10.86844772
34.18469342,-1.578317871,-7.750881958,-3.994443512,8.861311269
34.19477542,-2.559677124,-5.626349945,-8.310119019,10.35692226
34.20485742,-1.538800049,-4.751868439,-8.939260712,10.24004596
34.21493942,1.029409332,-5.86091217,-7.250921631,9.380076734
34.22502142,2.677332458,-7.750432892,-6.566993866,10.50536661
34.23510342,3.14046936,-8.946146393,-7.182064819,11.8944583
34.24518542,2.704725494,-9.416468353,-6.734794922,11.88877113
34.25526742,2.075583801,-9.819729767,-4.607718201,11.04383121
34.26534942,1.233584747,-10.98131424,-0.9596543884,11.09197594
34.27543142,-0.3005749512,-12.5252037,2.422861633,12.76092989
34.28551342,-1.482816467,-13.19266571,3.445834351,13.71564609
34.29559542,-1.490749969,-12.66920425,2.422711945,12.98462957
34.30567729,-1.075663147,-11.49399811,1.005309448,11.58791141
34.31575929,-0.4909790039,-9.74219101,-0.1887574768,9.756381267
34.32584129,0.5260061646,-8.261021118,-0.8750802612,8.323876372
34.33592329,1.770518188,-7.352260895,-1.425036621,7.69553145
34.34600529,2.706222382,-7.023544464,-1.366358643,7.649885774
34.35608729,3.05978714,-7.397616577,-0.8458909607,8.050003719
34.36616929,2.863994293,-8.169411621,-0.2544708252,8.660629593
34.37625129,2.386786652,-8.800349579,-0.1962419128,9.120384538
34.38633329,1.410367126,-9.271569672,0.07185058594,9.378502125
34.39641529,-0.04610412598,-9.355395355,0.1868115234,9.357373904
34.40649729,-0.9401948547,-8.85633316,0.242795105,8.90940811
34.41658029,-1.362317047,-8.316405945,0.4219725037,8.437806372
34.42666229,-1.428180084,-7.890391846,0.3115022278,8.024650489
34.43674429,-1.101559296,-7.589517517,-0.4171824646,7.680380865
34.44682629,-0.7092251587,-7.608977051,-1.337618408,7.758141214
34.45690829,-0.2812651062,-7.921976166,-1.630110168,8.092841009
34.46699029,0.01466949463,-8.606203308,-1.299597473,8.703786772
34.47707229,0.2333647156,-9.6122612,-0.6489006042,9.636965106
34.48715429,0.3802093506,-10.71232361,0.3402424622,10.72446741
34.49723629,0.4456233215,-11.53995255,1.620230713,11.66165651
34.50731829,0.2676434326,-11.75700119,2.582130432,12.04018719
34.51740029,-0.2071691895,-11.73155411,2.138003998,11.92658132
34.52748229,-0.6936575317,-11.63829803,0.6358776855,11.67627862
34.53756429,-1.313518524,-11.62407761,-0.5270539856,11.70992301
34.54764629,-2.602039032,-11.80310532,-0.7123686218,12.10749236
34.55772829,-3.825444946,-11.871064,-0.4159849548,12.47915193
34.56781029,-4.709057465,-11.88513474,0.5986051941,12.79804587
34.57789229,-5.075495453,-12.24468704,2.419119415,13.47386929
34.58797429,-4.286186829,-12.70602768,4.106260986,14.02411909
34.59805629,-3.767365723,-13.2459549,4.42405014,14.46445938
34.60813829,-4.205504608,-13.43186829,3.839216309,14.58906908
34.61822029,-4.439617767,-12.6446553,3.544479218,13.8622093
34.62830229,-4.247267761,-11.74113419,3.954776001,13.09709008
34.63838429,-3.928580475,-12.31998047,4.258943481,13.61448724
34.64846629,-3.171903992,-14.14603317,3.622017975,14.94289944
34.65854829,-0.8852590942,-15.70489151,2.097138977,15.86900416
34.66863029,1.45093277,-17.05972412,-1.710193634,17.20651491
34.67871229,3.55944809,-18.03524551,-7.095844116,19.70509465
34.68879429,5.680387573,-18.69582184,-8.536298676,21.32296772
34.69887629,8.096064148,-18.28417786,-5.830375671,20.82908291
34.70895829,8.031997375,-16.7946254,-0.8972341919,18.63806463
34.71904029,6.57822052,-15.09880188,4.368964691,17.03920937
34.72912229,6.528972931,-13.96580795,6.123765564,16.58830263
34.73920429,7.059469757,-12.93759613,3.898942108,15.24530277
34.74928629,6.502627716,-11.98063614,0.1490899658,13.63238927
34.75936829,3.492088165,-10.81710571,-2.611319733,11.66290901
34.76945029,-0.1462458801,-9.10331955,-1.981130219,9.317547511
34.77953229,-2.377955017,-8.121361542,-1.363215179,8.571437393
34.78961429,-2.552791443,-7.567213898,-1.880539398,8.204626667
34.79969629,-0.9592053223,-7.17727478,-2.357896729,7.615315168
34.80977829,0.5462141418,-6.960525513,-2.092648315,7.288788807
34.81986029,1.608554993,-6.810537415,-1.759740601,7.215785198
34.82994229,2.267335052,-6.857389984,-1.336570587,7.345136253
34.84002429,2.437680817,-6.7934729,-1.312770081,7.336002119
34.85010629,2.055076447,-6.946604462,-1.192719727,7.341745916
34.86018829,1.621577911,-6.631210327,-0.8821156311,6.883356253
34.87027129,0.8858578491,-5.878874817,-0.7475454712,5.992056197
34.88035329,0.5084925842,-4.829257507,-0.9563612366,4.949234243
34.89043529,1.280437317,-3.700754242,-1.371448059,4.149213354
34.90051729,2.023791504,-2.410138092,-1.83697998,3.64403528
34.91059929,2.846929779,-1.622326355,-1.964814148,3.820660493
34.92068129,3.567082214,-1.19227066,-1.968256989,4.244952347
34.93076329,3.902085571,-1.055305481,-1.649719391,4.365949557
34.94084529,3.819457397,-1.341061249,-1.21801712,4.227323715
34.95092729,3.566333771,-1.579365692,-0.6310876465,3.95112695
34.96100929,2.704575806,-1.982627106,0.1279838562,3.355878484
34.97109129,1.867965546,-2.712509308,1.43566452,3.592789256
34.98117329,1.189725952,-4.095932465,3.087778931,5.265594869
34.99125529,-0.3670367432,-6.38512207,6.313121796,8.986657144
35.00133729,-2.205214233,-10.01282822,10.80887283,14.89803446
35.01141929,-4.589755554,-15.40102341,17.00433929,23.39668637
35.02150129,-9.51750824,-24.05692337,26.67423065,37.15956278
35.03158329,-11.46959885,-32.3641983,20.29374893,39.88520121
35.04166529,-8.273594971,-33.41740814,8.34275116,35.42283215
35.05174729,-4.694088593,-23.09113174,5.933960266,24.2991094
35.06182929,-1.997745667,-12.68761597,5.889203339,14.12973116
35.07191129,-1.190175018,-6.341263275,5.516777802,8.488991331
35.08199329,-1.625320129,-1.93412796,4.178261261,4.882661534
35.09207529,-0.8150550842,-0.7454498291,-1.310973816,1.714252777
35.10215729,2.46073288,-4.071084137,-8.120164032,9.410950869
35.11223929,7.952213287,-9.660161591,-11.89291855,17.26261654
35.12232129,12.8876001,-14.692397,-12.0952977,22.98375497
35.13240329,13.35582642,-15.94199844,-8.159681854,22.34067639
35.14248529,11.2220137,-16.06145004,8.264164581,21.26499907
35.15256729,3.509452057,-16.47159714,24.55014771,29.77145476
35.16264929,1.226399689,-13.07860291,5.219496002,14.13495839
35.17273129,1.665736084,-7.021149445,-6.727909241,9.865899806
35.18281329,-0.4659809875,-2.948418732,-5.441783752,6.206715855
35.19289529,-0.7887098694,-2.311942291,-5.70882843,6.209497762
35.20297729,1.397344208,-4.311933289,-7.137008514,8.454716438
35.21305929,4.084556122,-6.738836517,-7.336244202,10.76642909
35.22314129,5.117108917,-8.134983215,-6.533912659,11.62130673
35.23322329,4.483626251,-9.241631927,-5.045258331,11.44400702
35.24330529,2.488275604,-10.6487059,-3.074456635,11.35952184
35.25338729,0.2074685669,-12.41802658,-1.057251434,12.46467841
35.26346929,-1.529669037,-13.97389114,0.4305047607,14.06395589
35.27355229,-2.75442215,-14.29632065,1.207987976,14.6092731
35.28363429,-3.233875122,-13.34175568,1.238374786,13.78382984
35.29371629,-1.793869629,-11.45762375,0.9482780457,11.63590742
35.30379829,-0.2140548706,-9.576335907,0.9086105347,9.621725521
35.31387992,0.6387217712,-8.087980957,0.74065979,8.146899925
35.32396192,1.51410141,-6.803651733,-0.1390608215,6.971478889
35.33404392,2.435136108,-6.352938995,-0.757275238,6.845669254
35.34412592,2.817740479,-6.944359131,-1.731150055,7.691597081
35.35420792,2.657573547,-7.896229706,-2.024539948,8.573908253
35.36428992,1.778302002,-8.658444672,-1.638492737,8.989754201
35.37437192,1.185384979,-8.788973236,-0.9991722107,8.924658716
35.38445392,0.2697390747,-8.773405609,-0.2348616028,8.780692747
35.39453592,-0.6253994751,-8.586743774,0.3885919189,8.6182537
35.40461792,-1.246008911,-8.343798981,0.9482780457,8.489449387
35.41469992,-1.444795532,-8.21401886,1.007854156,8.400792222
35.42478192,-1.28941864,-8.106093292,0.5885760498,8.229080791
35.43486392,-0.8882528687,-8.047115936,-0.433049469,8.107564363
35.44494592,-0.1175056458,-8.082741852,-1.43925705,8.210723736
35.45502792,0.5240602112,-8.296647034,-1.554217987,8.457220859
35.46510992,0.5435197449,-9.132808228,-0.6743476868,9.173785731
35.47519192,0.1866618347,-10.5783522,0.808768158,10.61086631
35.48527392,-0.09624984741,-11.74801987,2.130220184,11.93997793
35.49535592,-0.2637515259,-12.29273712,2.670895844,12.58231439
35.50543792,-0.5866300964,-12.40066269,2.050735474,12.58276941
35.51551992,-0.9187893677,-12.15397568,0.7032376099,12.20892468
35.52560192,-1.914818115,-11.64653091,0.1255888367,11.80355808
35.53568392,-3.576362915,-11.37948624,0.3788621521,11.93426224
35.54576592,-4.92251358,-11.82690582,1.117725677,12.8590883
35.55584792,-5.542374573,-12.28315704,2.248324585,13.66194812
35.56592992,-4.911885681,-12.15427505,3.799997864,13.64891962
35.57601192,-3.342249756,-11.60327087,5.46782959,13.25532681
35.58609392,-2.438728638,-11.22665405,5.531447296,12.75076734
35.59617592,-2.353555756,-11.37649246,4.162094879,12.34045539
35.60625792,-2.546354828,-11.37110367,4.878355408,12.6326669
35.61633992,-2.66071701,-11.65296753,5.716612244,13.24955557
35.62642192,-2.481389923,-13.27274918,3.108136597,13.85581754
35.63650392,-1.842219086,-15.08009079,-1.613794098,15.27767131
35.64658592,-0.6801855469,-16.74073746,-5.915847931,17.76829198
35.65666792,0.9886940002,-18.21636887,-8.620872803,20.17753846
35.66675092,2.860551453,-18.7733606,-8.441396027,20.78169843
35.67683292,5.526657257,-18.61558868,-5.738017731,20.24867724
35.68691492,6.82984726,-18.09347443,-0.01541793823,19.33961913
35.69699692,6.565496979,-16.90719131,5.436694336,18.93453232
35.70707892,7.93904068,-15.54696991,5.035827942,18.16854984
35.71716092,8.801696777,-14.60393097,2.451751556,17.22660012
35.72724292,7.562872925,-13.00720139,0.1130149841,15.04649817
35.73732492,4.401147766,-10.21550674,-1.607058105,11.23874172
35.74740692,0.4144880676,-7.856711884,-1.0776091,7.941093335
35.75748892,-1.734742584,-7.065157928,-0.6709048462,7.305881309
35.76757092,-2.152374115,-7.154671783,-1.241069183,7.573790027
35.77765292,-1.245260468,-7.594157867,-1.364113312,7.815543006
35.78773492,1.038690033,-7.703131256,-1.642234955,7.944434768
35.79781692,2.379751282,-7.392976227,-1.494492188,7.90903411
35.80789892,2.892135773,-7.100634155,-1.275497589,7.772409461
35.81798092,2.569257202,-7.234904938,-1.430575104,7.809704038
35.82806292,2.173480225,-7.404502258,-1.515149231,7.864244857
35.83814492,1.332229614,-7.210505676,-0.9882449341,7.398841524
35.84822692,0.1586700439,-6.387666779,-0.5200186157,6.410763014
35.85830892,-0.3674858093,-4.94826004,-0.8078700256,5.02722361
35.86839092,-0.2859054565,-3.508853302,-1.470392303,3.81521257
35.87847292,0.7671546936,-2.16000824,-2.135608978,3.132888065
35.88855492,1.630708923,-1.346300354,-2.258653107,3.094066918
35.89863692,2.257754974,-1.266965332,-1.785936127,3.145191016
35.90871892,2.927312622,-1.349294128,-1.112187195,3.409796796
35.91880092,3.028951263,-1.833836517,-0.2894979858,3.552648479
35.92888292,2.924169159,-2.394121399,0.6021977234,3.826907974
35.93896492,2.966231689,-2.879112854,1.235530701,4.314435928
35.94904692,2.895578613,-3.58399704,2.291734314,5.146013647
35.95912892,2.327210541,-5.216651917,3.654949493,6.78144689
35.96921092,0.8051756287,-7.714507599,6.68120636,10.23720927
35.97929292,-1.044228516,-11.01200043,11.2260553,15.76004074
35.98937492,-3.077600098,-15.97807343,17.48708542,23.88657801
35.99945692,-7.821085968,-22.92198349,24.95864822,34.77816605
36.00953892,-11.77197006,-29.76470398,17.44023285,36.45104394
36.01962192,-11.74906769,-30.24984512,6.311774597,33.05952541
36.02970392,-8.326884155,-20.43969543,4.711153107,22.56796652
36.03978592,-4.583768005,-11.2923674,5.02430191,13.18226461
36.04986792,-3.343297577,-5.83995575,4.133354645,7.897299694
36.05994992,-3.995191956,-2.622845764,-0.06750961304,4.77968997
36.07003192,-3.215613098,-2.171085205,-6.211483154,7.323680874
36.08011392,1.5726297,-5.797144775,-10.80168777,12.35947048
36.09019592,10.15952316,-11.56554932,-12.73132507,19.97659831
36.10027792,15.6545961,-15.780634,-11.91791656,25.22164792
36.11035992,14.7880481,-16.42654083,-4.333039398,22.52316231
36.12044192,11.74143356,-17.89049652,22.67439835,31.17786824
36.13052392,2.257754974,-17.78391815,26.37185944,31.88793145
36.14060592,0.6620732117,-12.56397308,0.3379971313,12.58594465
36.15068792,1.692680054,-5.855822754,-8.790320435,10.69698833
36.16076992,-0.8514294434,-1.259929962,-6.18394043,6.368161025
36.17085192,-1.21098175,-0.2252815247,-5.022206268,5.17105254
36.18093392,1.825753326,-3.062331848,-6.846313019,7.719018947
36.19101592,5.862558746,-6.996301117,-8.98626297,12.80901037
36.20109792,7.009623413,-9.143585815,-8.788673859,14.49071324
36.21117992,5.842650146,-10.26325745,-6.925498352,13.690637
36.22126192,3.618275757,-11.62198196,-4.591102753,13.00925089
36.23134392,0.6143225098,-13.47093704,-1.421294403,13.55963181
36.24142592,-1.802551575,-14.57983109,1.748513947,14.79452492
36.25150792,-3.489393768,-14.88100479,3.824097748,15.75575755
36.26158992,-4.205055542,-13.99065628,3.524570618,15.02809214
36.27167192,-2.858605499,-11.53905441,1.646875305,12.00139994
36.28175392,-1.139131165,-9.11963562,0.02424957275,9.190536529
36.29183592,0.6712042236,-7.262597351,-1.550026703,7.456434682
36.30191792,1.991758118,-6.281387787,-2.851719818,7.180197689
36.31200017,2.549947357,-6.05984848,-2.366578674,6.987466619
36.32208217,3.300187225,-6.500532074,-2.10147995,7.587118751
36.33216417,3.899391174,-7.644602966,-1.725162506,8.753364594
36.34224617,3.23881485,-8.547675018,-0.6475534058,9.163623479
36.35232817,2.081870728,-9.036259003,-0.02559677124,9.273015566
36.36241117,1.041683807,-9.008416901,0.403560791,9.077419321
36.37249317,-0.5240602112,-8.688382416,0.5915698242,8.724252573
36.38257517,-1.618883514,-8.26670929,0.1794767761,8.425644084
36.39265717,-1.829495544,-7.80566803,-0.1025367737,8.017856392
36.40273917,-1.478924561,-7.539970551,-0.3388952637,7.691113298
36.41282117,-0.7978408813,-7.485334167,-0.9354048157,7.585628507
36.42290317,-0.01272354126,-7.691904602,-1.31172226,7.802959284
36.43298517,0.3950285339,-8.297245789,-1.134341125,8.383738129
36.44306717,0.3679348755,-9.27875473,-0.3728746033,9.293530055
36.45314917,0.1419049072,-10.32687515,0.6938072205,10.35112824
36.46323117,-0.03966751099,-11.17725677,1.89670578,11.33711318
36.47331317,-0.3724255371,-11.62452667,2.330653381,11.86171431
36.48339517,-1.002165985,-11.73709259,1.62412262,11.89123431
36.49347717,-1.825453949,-11.70401138,0.2941383362,11.84916377
36.50355917,-2.768642578,-11.81448166,-0.6366261292,12.15124074
36.51364117,-3.818858643,-11.97000824,-0.4998106384,12.57436238
36.52372317,-4.436773682,-11.81493073,0.6027964783,12.63490848
36.53380517,-4.36447403,-11.42259659,2.033670959,12.3959737
36.54388717,-3.464246063,-11.43876297,3.374133453,12.41898046
36.55396917,-2.237097931,-11.57483002,4.6873526,12.68670846
36.56405117,-1.943109283,-11.93528046,4.731959839,12.98530081
36.57413317,-2.326761475,-12.40694962,3.480113068,13.09417446
36.58421517,-2.793191528,-12.44601837,4.184548187,13.42444545
36.59429717,-2.840493164,-12.19274506,4.403243408,13.27102053
36.60437917,-2.844684448,-13.20464081,3.757486267,14.02046617
36.61446117,-3.060834961,-15.15268982,2.127376099,15.60443682
36.62454317,-2.193688202,-16.73205551,-2.524350586,17.06300957
36.63462517,-0.07125183105,-17.71775574,-7.667804718,19.30593625
36.64470717,2.2839505,-18.12939972,-9.390871582,20.54458647
36.65478917,4.96113327,-18.63385071,-6.421496429,20.32409535
36.66487117,8.142168274,-18.69013367,-1.61005188,20.45014102
36.67495317,8.589138794,-18.19152054,3.922892303,20.4961901
36.68503517,7.146738281,-16.95030167,6.678362274,19.57010775
36.69511717,6.807244263,-15.07799515,4.880900116,17.24841147
36.70519917,6.489754486,-13.53141129,1.805545349,15.11542254
36.71528217,4.282743988,-12.11236221,-0.8461903381,12.87506321
36.72536417,1.13493988,-10.21820114,-0.9316625977,10.32316416
36.73544617,-1.274000702,-8.555758209,-0.2649490356,8.65414781
36.74552817,-2.139650574,-7.938741302,-0.5544470215,8.240699579
36.75561017,-1.560804291,-7.769593048,-0.889151001,7.974539214
36.76569217,0.4252656555,-7.607031097,-1.3350737,7.734998046
36.77577417,2.324516144,-7.447163544,-1.668879547,7.978018494
36.78585617,3.156486053,-7.262597351,-1.595382385,8.077992909
36.79593817,3.495531006,-7.112160187,-1.562750244,8.077360204
36.80602017,2.942880249,-6.870263214,-1.819316711,7.692267162
36.81610217,2.235451355,-6.80170578,-1.771865387,7.37563226
36.82618417,1.562151489,-6.48346756,-1.152603149,6.767877281
36.83626617,0.553099823,-5.789959717,-0.7714956665,5.867261584
36.84634817,0.2589614868,-4.675976257,-1.209335175,4.836766128
36.85643017,0.4215234375,-3.695814514,-1.601819,4.050006301
36.86651217,1.30932724,-2.743494873,-1.998344421,3.637922809
36.87659417,2.021246796,-2.014211426,-2.145039368,3.569829151
36.88667617,2.496508484,-1.605860596,-1.90134613,3.525118434
36.89675817,3.03284317,-1.162033539,-1.558409271,3.602374092
36.90684017,3.184028778,-1.064885559,-1.099014587,3.532683623
36.91692217,3.129392395,-1.449435883,-0.3243754578,3.46398334
36.92700417,2.999312897,-2.022294617,0.4680766296,3.647553852
36.93708617,2.842588806,-2.738854523,1.246907043,4.139615005
36.94716817,2.814297638,-3.858675842,2.289039917,5.296164102
36.95725017,2.374512177,-5.329816589,3.593427429,6.852588828
36.96733217,1.321601715,-7.685467987,6.296057281,10.02264369
36.97741417,0.2713856506,-11.28458359,10.38240967,15.33655461
36.98749617,-1.565444641,-16.02941666,15.19505173,22.14232175
36.99757817,-6.732848969,-24.19418793,27.62610123,37.33485575
37.00766017,-10.78836548,-33.50317978,24.43518677,42.8477565
37.01774217,-9.318871307,-34.3456279,7.667505341,36.40404039
37.02782417,-7.336094513,-22.86854462,3.310366058,24.24349684
37.03790717,-4.74468338,-11.32050888,4.625680847,13.11727354
37.04798917,-3.717220001,-5.040318604,4.914580078,7.960881453
37.05807117,-3.675007782,-1.580263824,2.919977875,4.952694897
37.06815317,-2.036365356,-1.015188904,-3.572770386,4.235809321
37.07823517,2.904410248,-4.153712311,-10.38121216,11.55242359
37.08831717,9.933044128,-9.081165619,-11.89845703,17.96402556
37.09839917,14.32057022,-13.10973816,-9.832153931,21.76270243
37.10848117,14.46876205,-13.8855748,-5.214256897,20.7205873
37.11856317,13.67660934,-15.07500137,14.43343552,24.95254236
37.12864517,4.412524109,-16.93458435,25.88537109,31.24584697
37.13872717,-1.227148132,-14.06684784,2.750679932,14.38569918
37.14880917,-3.666774902,-8.835227051,-7.948022003,12.43694211
37.15889117,-3.632496185,-5.048401794,-6.109844513,8.718462547
37.16897317,-1.630110168,-3.562591553,-6.162385254,7.302349605
37.17905517,1.006806335,-4.408183136,-6.492448883,7.911866408
37.18913717,3.280128937,-6.265969849,-6.779851227,9.797346919
37.19921917,4.408183136,-8.109985199,-6.286626892,11.16806233
37.20930117,3.713777161,-9.490414581,-5.81645462,11.73419167
37.21938317,2.106569366,-10.67145859,-5.002746735,11.97268298
37.22946517,0.3044668579,-12.4523053,-2.64904129,12.7345996
37.23954717,-1.460812225,-14.08690613,0.05643264771,14.16255914
37.24962917,-2.468666382,-14.29946411,2.168540497,14.67213534
37.25971117,-2.374362488,-13.2803833,2.910547485,13.80135734
37.26979317,-1.249900818,-11.33158585,2.06166275,11.58522952
37.27987517,0.08232879639,-9.389674072,1.187181244,9.464785075
37.28995717,0.6170169067,-7.927215271,0.6691085815,7.97929559
37.30003917,0.7903564453,-6.694528656,-0.1260379028,6.742200145
37.31012104,0.9964778137,-5.967640228,-1.437011719,6.218577056
37.32020304,1.874252472,-6.081553345,-2.610870667,6.878572457
37.33028504,2.73571106,-6.731801147,-2.850971375,7.805722226
37.34036704,2.520758057,-7.606282654,-2.179467773,8.304205968
37.35045004,2.341430969,-8.358917542,-1.236877899,8.768333273
37.36053204,2.245480499,-8.743617554,-0.3580554199,9.034447093
37.37061404,1.755699005,-8.750353546,0.3549119568,8.931804335
37.38069604,1.169667664,-8.409063263,1.233135681,8.579107821
37.39077804,0.4978646851,-8.105644226,1.768572235,8.311268574
37.40086004,-0.1228944397,-8.075257416,1.611848145,8.235468403
37.41094204,-0.3890409851,-8.079149323,0.87522995,8.13572579
37.42102404,-0.5581892395,-8.222551117,-0.3872447205,8.2505685
37.43110604,-0.5068460083,-8.708889771,-1.066532135,8.788580358
37.44118804,-0.5176235962,-9.688003693,-0.9725276184,9.750444077
37.45127004,-0.7955955505,-10.94823303,-0.3707789612,10.98336268
37.46135204,-0.9505233765,-11.66494263,0.7104226685,11.7251474
37.47143404,-1.300345917,-11.97120575,1.751358032,12.1683163
37.48151604,-1.888921967,-11.82121765,2.384990387,12.20644879
37.49159804,-2.197879486,-11.97375046,2.406096497,12.40929791
37.50168004,-2.592009888,-12.44347366,1.482068024,12.79668229
37.51176204,-3.185974731,-12.73551636,1.250200195,13.18737322
37.52184404,-3.715274048,-12.64989441,1.89206543,13.3192718
37.53192604,-4.04144577,-12.51891678,2.799478455,13.44967066
37.54200804,-3.782184906,-12.62250137,3.918401642,13.74723008
37.55209004,-2.786156158,-12.7018364,4.385580139,13.7234335
37.56217204,-2.473755798,-13.31256638,3.764671326,14.05406139
37.57225404,-2.993475037,-13.88243134,3.349434814,14.59114479
37.58233604,-3.772006073,-13.61763199,3.375929718,14.52807049
37.59241804,-4.190236359,-13.07920166,3.692371674,14.22171598
37.60250004,-3.591182098,-13.71343277,4.05087616,14.74328406
37.61258204,-2.47944397,-15.33830383,0.9144483948,15.56429962
37.62266404,-0.9476792908,-17.07095078,-4.615651703,17.70931103
37.63274604,1.429527283,-18.68654114,-8.955427094,20.77089412
37.64282804,4.09293869,-19.44950455,-9.851164398,22.18289463
37.65291104,6.776558075,-19.36463104,-7.718549194,21.92000631
37.66299304,7.267836456,-17.56207947,-2.356250153,19.15202331
37.67307504,5.778433685,-15.33201691,3.924688568,16.84827049
37.68315704,5.832621002,-13.85039795,6.367009735,16.32151354
37.69323904,6.287525024,-12.56711655,4.032913513,14.61950001
37.70332104,6.033203888,-11.20255417,-0.1904040527,12.72529067
37.71340304,4.033063202,-10.1152153,-1.385818176,10.97741643
37.72348504,0.5360353088,-9.002429352,-0.7602690125,9.050363366
37.73356704,-2.26523941,-7.611970825,-2.155517578,8.229195918
37.74364904,-2.750530243,-6.887327728,-2.511627045,7.830004487
37.75373104,-1.749561768,-6.758146362,-2.196681976,7.318396022
37.76381304,-0.06735992432,-6.994953918,-2.257904663,7.350649709
37.77389504,1.257984009,-7.050787811,-2.251018982,7.507544138
37.78397704,2.131417694,-7.013365631,-2.207010498,7.655137765
37.79405904,2.849324799,-7.037914581,-1.960922241,7.841945517
37.80414104,3.115621033,-6.833140411,-1.764680328,7.714466862
37.81422304,2.423011322,-6.253695374,-1.506467285,6.873800504
37.82430504,1.807191925,-5.498815155,-1.305285645,5.933521836
37.83438704,1.819616089,-4.600682831,-1.658101959,5.217910245
37.84446904,2.170187073,-3.511847076,-1.913770294,4.550307523
37.85455104,2.71460495,-2.53437973,-2.086810455,4.259922362
37.86463304,3.251538391,-1.660197601,-1.963916016,4.145566801
37.87471504,3.616928558,-1.145418091,-1.551074524,4.098778718
37.88479704,3.852538605,-1.065184937,-1.052910461,4.133435991
37.89487904,3.933969269,-1.537901917,-0.286204834,4.233576469
37.90496104,3.845802612,-2.115999756,0.528999939,4.421254758
37.91504304,3.578907623,-2.814597015,1.298998718,4.734758051
37.92512604,3.04227356,-4.126319275,2.045795746,5.519711895
37.93520804,1.670376434,-5.859564972,3.41904007,6.986737013
37.94529004,0.162412262,-8.152347107,6.548582153,10.45806241
37.95537204,-0.6430627441,-11.40283768,9.714498596,14.99365598
37.96545404,-2.508782959,-15.4263208,13.83348312,20.87176611
37.97553604,-7.039860535,-21.90874054,25.53075851,34.3710951
37.98561804,-11.38906631,-28.93348251,22.18970627,38.20000401
37.99570004,-10.95152618,-30.23083466,7.411687317,32.99655131
38.00578204,-8.890761566,-22.54821075,2.422412567,24.35847968
38.01586404,-5.926775208,-13.57152786,2.859204254,15.08270804
38.02594604,-3.76182724,-7.896978149,3.491190033,9.418174766
38.03602804,-2.650687866,-4.510570221,1.587598572,5.467344795
38.04611004,0.3317102051,-3.948638763,-2.57539444,4.725932317
38.05619204,6.423442383,-7.72842865,-7.301965485,12.42207396
38.06627404,11.26647125,-11.53576126,-9.60986618,18.77116646
38.07635604,12.22148529,-12.17059113,-7.884254608,18.96442622
38.08643804,11.78918427,-11.17171829,-2.583777008,16.44591314
38.09652004,11.64233963,-12.44137802,17.7075769,24.5741783
38.10660204,6.508914642,-14.76993576,24.55089615,29.38134568
38.11668404,2.125430145,-10.86395828,2.063908081,11.26067313
38.12676604,-0.6276448059,-6.287824402,-7.357949066,9.698973563
38.13684804,-3.845952301,-4.140539703,-7.221283264,9.169642857
38.14693004,-3.195704498,-3.793561249,-8.333171082,9.697699442
38.15701204,0.2206411743,-5.617518311,-8.431965637,10.13426065
38.16709404,2.304757233,-8.482410736,-7.77168869,11.73295968
38.17717604,2.894081726,-9.733359375,-6.926097107,12.29165631
38.18725804,2.609373779,-10.08797195,-6.13005249,12.08939838
38.19734004,1.666035461,-10.59212357,-4.677622833,11.69824393
38.20742204,-0.1142124939,-11.68544998,-1.854194183,11.8321943
38.21750404,-1.829645233,-13.16003357,1.373543701,13.35742144
38.22758704,-2.640958099,-13.58499985,3.468437347,14.26733816
38.23766904,-2.22781723,-12.7495871,3.325035553,13.36304614
38.24775104,-0.8885522461,-11.2778476,1.957778778,11.48095245
38.25783304,0.4638853455,-9.786498871,0.6553372192,9.819379646
38.26791504,1.453926544,-8.538544006,0.2174977112,8.664175748
38.27799704,1.762285309,-7.257358246,-0.07649093628,7.468651088
38.28807904,2.205064545,-6.487060089,-0.7095245361,6.888227879
38.29816104,3.279679871,-6.636599121,-1.878443756,7.637362038
38.30824304,3.756887512,-7.381899261,-2.346670074,8.608919847
38.31832492,3.3721875,-8.116122437,-1.753603363,8.962043109
38.32840692,2.838846588,-8.656648407,-1.434616699,9.222512492
38.33848892,2.155218201,-8.801547089,-0.7451504517,9.09216398
38.34857092,1.380878448,-8.655899963,0.6069877625,8.786345293
38.35865292,0.5917195129,-8.341254272,1.719025269,8.537078112
38.36873492,-0.433049469,-8.177195435,1.921404419,8.411055342
38.37881692,-1.057401123,-8.161478119,1.513802032,8.367760681
38.38889892,-1.111139374,-8.149203644,0.7378157043,8.25763421
38.39898092,-0.7619155884,-8.205336914,-0.3712280273,8.248992635
38.40906292,-0.246537323,-8.381670227,-1.560205536,8.52920968
38.41914492,-0.04565505981,-8.874894562,-1.98098053,9.093410896
38.42922692,-0.1442999268,-9.956096191,-1.515897675,10.0718727
38.43930892,-0.3209326172,-11.19297409,-0.3432362366,11.20283347
38.44939092,-0.5252577209,-11.90115143,1.146166534,11.96774827
38.45947292,-0.7595205688,-12.11475723,2.716999969,12.43890281
38.46955492,-1.298250275,-11.88648193,3.673660583,12.50878446
38.47963692,-1.911524963,-12.0926033,3.041225739,12.61483398
38.48971892,-2.342628479,-12.4987088,1.265917511,12.77920878
38.49980092,-3.257076874,-12.4973616,-0.4403842163,12.922327
38.50988392,-4.077221375,-12.73416916,-0.3658392334,13.37597236
38.51996592,-4.456682281,-13.06872345,1.377585297,13.87628519
38.53004792,-4.104913788,-13.25598404,3.639381866,14.34630721
38.54012992,-3.217409363,-13.26945602,5.415737915,14.68878495
38.55021192,-2.569706268,-13.23278229,5.276976471,14.47606293
38.56029392,-3.58743988,-12.67953278,3.456761627,13.62312289
38.57037592,-4.932093658,-11.57812317,2.334545288,12.79955412
38.58045792,-5.669460297,-11.06558899,2.659818878,12.71474247
38.59053992,-5.193001099,-12.47520767,3.960913239,14.08143816
38.60062192,-2.233804779,-14.62803085,3.301534424,15.16144122
38.61070392,0.9476792908,-16.26218262,-0.2993774414,16.29252302
38.62078592,3.14166687,-17.89648407,-6.326593781,19.24006241
38.63086792,5.351671143,-19.20311691,-9.687704315,22.16419857
38.64094992,8.362360382,-19.33244797,-7.737709351,22.43980306
38.65103192,9.743089142,-18.03734116,-2.521057434,20.65500406
38.66111392,8.205935669,-16.17506378,4.1233255,18.6003194
38.67119592,7.323670349,-14.67937408,7.132068787,17.88816861
38.68127792,7.698341217,-13.85653519,4.774321747,16.55482326
38.69135992,7.91568924,-12.8889473,1.094823303,15.16514875
38.70144192,5.775140533,-11.13863708,-2.157912598,12.73098861
38.71152392,1.360969849,-9.413474579,-2.199526062,9.762359217
38.72160592,-1.607806549,-8.637937317,-0.9343569946,8.835837594
38.73168792,-2.63976059,-7.870483246,-1.510957947,8.437762524
38.74176992,-1.437760162,-6.981032867,-2.136956177,7.441005032
38.75185192,0.3391946411,-6.857090607,-1.590742035,7.047354455
38.76193392,1.986968079,-6.8731073,-1.240021362,7.261218843
38.77201592,2.801125031,-6.735543365,-1.550775146,7.457797893
38.78209892,3.115171967,-6.861730957,-1.253493347,7.639299292
38.79218092,2.725532227,-6.781048737,-1.061742096,7.385014838
38.80226292,2.174677734,-6.494394836,-1.063089294,6.930840237
38.81234492,1.015488281,-5.915249176,-0.8099656677,6.056189697
38.82242692,0.0477507019,-4.953349457,-0.956660614,5.045111545
38.83250892,-0.1513352966,-3.802692261,-1.503174133,4.091809291
38.84259092,0.3673361206,-2.749781799,-1.877246246,3.349670019
38.85267292,1.34794693,-1.39000946,-2.288890228,2.998016962
38.86275492,2.202669525,-0.5031037903,-2.240840149,3.182173948
38.87283692,2.638114014,-0.3132984924,-1.844614105,3.234254581
38.88291892,3.221001892,-0.5228627014,-1.418749695,3.558242444
38.89300092,3.504662018,-0.659229126,-0.7232958984,3.638735475
38.90308292,3.750899963,-1.151705017,0.07679031372,3.924483626
38.91316492,3.666475525,-1.976190491,1.082997894,4.303632892
38.92324692,3.300486603,-3.604803772,2.485581207,5.483241376
38.93332892,2.624043274,-6.278394012,4.954696655,8.417413702
38.94341092,0.8250842285,-10.18616776,9.429191895,13.90497887
38.95349292,-1.208886108,-15.04027359,13.43426331,20.20273907
38.96357492,-5.600902863,-22.6046434,24.00408325,33.44452166
38.97365692,-10.78597046,-32.83496933,29.43104782,45.39448144
38.98373892,-9.509125671,-36.49470886,12.63926651,39.77484511
38.99382092,-7.090305634,-26.93154556,4.41117691,28.19643705
39.00390292,-5.066065063,-13.53904541,4.053720245,15.0134411
39.01398492,-2.261946259,-6.377637634,3.081042938,7.435286696
39.02406692,-0.6743476868,-2.31912735,2.545606384,3.509018143
39.03414892,0.8415499878,-0.3712280273,0.4501139832,1.024021107
39.04423092,2.962489471,-1.604962463,-4.708608398,5.789925857
39.05431392,6.176605682,-6.248605957,-9.936187592,13.26361029
39.06439592,8.91486145,-12.50499573,-13.59338242,20.50925933
39.07447792,9.503287811,-16.34885239,-14.05442368,23.56107549
39.08455992,7.679929504,-15.33052002,-6.780000916,18.43839943
39.09464192,2.63272522,-14.4403212,16.23224487,21.88469538
39.10472392,-1.426832886,-15.84155731,28.24551315,32.41604238
39.11480592,3.120710449,-12.59900024,9.094038849,15.84850729
39.12488792,4.201013947,-6.200705566,-4.426744537,8.700191659
39.13496992,1.358724518,-3.121159515,-9.143735504,9.756826739
39.14505192,-0.2338137817,-3.507805481,-7.88635025,8.63445936
39.15513392,1.323847046,-5.405409393,-7.525151367,9.359429727
39.16521592,3.690126343,-8.086633759,-7.698640594,11.75924083
39.17529792,4.396956482,-10.1405127,-6.889722748,13.02426595
39.18537992,3.67051712,-11.19611755,-6.48227005,13.44788345
39.19546192,2.774929504,-11.75999496,-5.555397491,13.29887802
39.20554392,1.39000946,-12.55888367,-2.818039856,12.94600455
39.21562592,-0.5276527405,-13.1529982,0.8598120117,13.19162824
39.22570792,-1.741478577,-12.70692581,3.576662292,13.31507508
39.23578992,-1.552571411,-11.43202698,3.709885254,12.11878572
39.24587192,-0.4632865906,-9.949809265,2.213896179,10.20365989
39.25595392,0.5528004456,-8.362210693,0.5011578369,8.395434187
39.26603592,1.579066315,-6.951544189,-0.5484594727,7.149701031
39.27611792,2.518512726,-6.143075409,-1.331331482,6.771464047
39.28619992,2.95096344,-5.944737854,-1.747166748,6.862993882
39.29628292,2.717149658,-6.614295502,-1.798509979,7.373360522
39.30636492,2.28514801,-7.547904053,-1.608255615,8.048555345
39.31644754,1.605710907,-8.558302917,-1.035995636,8.769044606
39.32652954,0.7789801025,-9.006470947,-0.04326004028,9.040199132
39.33661154,-0.1703457642,-8.839568024,0.6807843018,8.867381112
39.34669354,-1.019230499,-8.733289032,1.255139923,8.881697155
39.35677554,-1.748214569,-8.607251129,1.355581055,8.886991964
39.36685754,-2.129322052,-8.448880463,0.9077124023,8.760224613
39.37693954,-2.030228119,-8.417146454,0.1601669312,8.660013515
39.38702154,-1.27894043,-8.456364899,-0.9503736877,8.605173215
39.39710354,-0.5297483826,-8.556656342,-1.98562088,8.799982465
39.40718554,0.02380050659,-8.893455963,-2.228565674,9.168458452
39.41726754,0.3504212952,-9.859247589,-1.334774323,9.955359391
39.42734954,0.4218228149,-11.1690239,0.4528083801,11.18615504
39.43743154,0.3010240173,-12.31983078,2.607278137,12.59629887
39.44751354,-0.0008981323242,-13.28891556,4.523443451,14.03769276
39.45759554,-0.5519023132,-13.40327774,5.139711914,14.36555216
39.46767754,-1.215173035,-12.9380452,3.02820282,13.34315073
39.47775954,-2.157912598,-12.66396515,0.1140628052,12.84700784
39.48784154,-3.960314484,-12.776082,-1.094972992,13.42055617
39.49792354,-5.550457764,-13.33412155,-0.3709286499,14.44797449
39.50800554,-6.131848755,-13.57212662,1.746717682,14.99510629
39.51808754,-5.669609985,-13.12306046,4.369862823,14.94840775
39.52816954,-4.29307251,-12.69824387,5.743705902,14.58307328
39.53825154,-3.097359009,-12.95720535,4.166435852,13.95858127
39.54833454,-3.456162872,-12.53478378,1.952090607,13.14825175
39.55841554,-4.250710602,-11.56599838,1.46260849,12.40887113
39.56849854,-4.50832489,-11.61524597,3.104095001,12.84034026
39.57858054,-3.192411346,-13.46345261,4.790039062,14.64242195
39.58866254,-0.3067121887,-15.37961792,0.9999206543,15.41514064
39.59874454,1.759291534,-17.18621109,-6.247857513,18.37108276
39.60882654,3.700903931,-18.80569336,-11.17246674,22.18501309
39.61890854,6.676715698,-19.43887665,-9.629026337,22.69728191
39.62899054,8.806636505,-18.90059601,-4.517156525,21.33527781
39.63907254,7.538174286,-17.04370743,2.375559998,18.78710515
39.64915454,6.529421997,-14.50738174,6.351741486,17.13015168
39.65923654,6.629264374,-12.97711395,5.023852844,15.41401084
39.66931854,6.586752777,-12.00264038,1.433718567,13.7660538
39.67940054,4.937033386,-10.72729248,-2.360740814,12.04251634
39.68948254,0.3126997375,-9.365873566,-3.089724884,9.867308074
39.69956454,-3.437900848,-8.608748016,-1.628313904,9.411753865
39.70964654,-4.68615509,-7.978259125,-1.813179474,9.428694925
39.71972854,-3.238066406,-7.472011871,-2.255359955,8.450010887
39.72981054,-0.8175997925,-7.198231201,-1.263372803,7.353850195
39.73989254,0.6289920044,-7.209008789,-0.8812174988,7.289854796
39.74997454,1.264570312,-7.288194122,-1.599873047,7.568124299
39.76005654,2.044747925,-7.450157318,-2.00552948,7.981728299
39.77013854,2.859353943,-7.278464355,-1.951940918,8.059902089
39.78022054,2.928809509,-6.525829468,-1.821562042,7.381223724
39.79030254,2.359842682,-5.433101807,-1.694626007,6.161104611
39.80038554,2.018851776,-4.193978577,-2.029180298,5.077675795
39.81046754,1.954635315,-2.965333557,-2.399659882,4.286276924
39.82054954,2.13890213,-2.070344696,-2.526895294,3.904667631
39.83063154,2.411185913,-1.354084167,-2.567460938,3.773488718
39.84071354,2.654579773,-1.247505798,-2.298320618,3.726304087
39.85079554,3.179388428,-1.36201767,-1.966311035,3.97869099
39.86087754,3.484603729,-1.720821533,-1.424138489,4.139065152
39.87095954,3.543880463,-2.305655365,-0.615819397,4.272513186
39.88104154,3.967948608,-2.588716736,0.2929408264,4.746776256
39.89112354,4.176315308,-3.419189758,1.146765289,5.517928849
39.90120554,4.157454529,-5.3203862,2.456242218,7.184988748
39.91128754,3.361409912,-7.847580872,5.331313477,10.06511329
39.92136954,1.723665619,-10.87443649,9.947414246,14.83830996
39.93145154,0.1657054138,-14.84942047,13.96446075,20.38477154
39.94153354,-3.282374268,-21.1846962,22.32652176,30.9522036
39.95161554,-8.614735565,-30.94769394,32.59666489,45.76588239
39.96169754,-8.266260223,-35.39704147,15.44518158,39.49474949
39.97177954,-6.153852997,-27.58164368,2.277813263,28.35146218
39.98186154,-5.496569824,-14.68835541,1.442999268,15.74935908
39.99194354,-4.567152557,-6.231541443,1.938468933,7.965466279
