Time (s),Acceleration x (m/s^2),Acceleration y (m/s^2),Acceleration z (m/s^2),Absolute acceleration (m/s^2)
60.00968175,-0.02814147949,-6.222111053,3.250789948,7.02019182
60.01976375,-0.3320095825,-3.719465332,-8.225245514,9.033233999
60.02984675,-1.669328613,-3.383264465,-7.653733978,8.533040506
60.03992875,-0.2424957275,-5.889353027,-5.371130676,7.974479795
60.05001075,2.070195007,-9.044342194,-7.297325134,11.80410044
60.06009375,3.034938812,-10.79659836,-7.665409698,13.58439898
60.07017575,2.633922729,-11.76643158,-5.961802368,13.45100548
60.08025775,1.943708038,-12.89972488,-3.281176758,13.45165506
60.09034075,1.127605133,-13.97538803,-0.5764512634,14.03264979
60.10042275,0.4079017639,-14.24692337,0.8663983154,14.27907054
60.11050512,0.07694000244,-13.72585693,2.034718781,13.87606388
60.12058812,-0.09131011963,-12.64450562,2.702779541,12.93046314
60.13067012,0.1872605896,-10.95856155,2.526446228,11.24758056
60.14075213,0.757275238,-9.105415192,1.162931671,9.210562506
60.15083513,1.776505737,-7.432943115,-0.8771759033,7.692467326
60.16091713,2.896177368,-6.134543152,-2.991529083,7.414156006
60.17099912,3.618425446,-5.155878296,-3.847449188,7.380985636
60.18108212,3.050805817,-5.111720123,-2.1260289,6.321162681
60.19116412,2.1061203,-6.123166809,-0.5321434021,6.497083276
60.20124612,1.831890564,-7.31304245,0.3104544067,7.545382353
60.21132912,1.298399963,-8.18707489,0.3115022278,8.2952439
60.22141113,0.8295748901,-8.479866028,0.7900570679,8.556898534
60.23149313,0.2877017212,-8.467441864,1.592238922,8.620647817
60.24157613,0.006885681152,-8.193810883,1.910028076,8.413488661
60.25165812,0.05703140259,-8.00220932,1.029259644,8.068332046
60.26174012,0.12753479,-7.859705658,-0.6779402161,7.889920221
60.27182312,0.1872605896,-8.003855896,-2.118694153,8.281644803
60.28190512,0.08068222046,-8.330027618,-2.409539337,8.671894231
60.29198713,-0.310304718,-9.191785583,-1.380579071,9.300065043
60.30207013,-0.6438111877,-10.39378601,0.03532653809,10.41376629
60.31215212,-0.6225553894,-11.58635605,1.424737244,11.69021377
60.32223412,-0.3074606323,-12.1616098,2.596650238,12.43952883
60.33231712,0.02245330811,-11.9346817,3.728746033,12.50362661
60.34239912,-0.1392105103,-11.79831528,4.568499756,12.65269983
60.35248112,-0.5411247253,-12.3023172,4.246968384,13.02599574
60.36256412,-1.348994751,-12.72788223,2.73795639,13.08874242
60.37264613,-2.864742737,-12.98010773,1.82410675,13.41705307
60.38272812,-4.035458221,-13.07920166,2.002685394,13.83333611
60.39281112,-4.227957916,-13.24625427,3.075654144,14.24073484
60.40289312,-3.774401093,-13.41345657,4.081113281,14.51972474
60.41297512,-3.70913681,-13.39264984,3.797153778,14.40621888
60.42305812,-4.271816711,-13.27469513,2.155816956,14.11075815
60.43314012,-4.709057465,-12.68971161,0.6984475708,13.55329598
60.44322213,-3.865561523,-12.61935791,2.387385406,13.41232154
60.45330513,-1.564845886,-13.17694839,5.648952942,14.42190629
60.46338712,1.598675537,-14.19932236,5.57306076,15.33738978
60.47346912,3.899690552,-15.30103134,-1.504371643,15.86166071
60.48355212,5.416486359,-16.87246353,-9.567953339,20.13862163
60.49363412,6.741081848,-18.32968323,-11.02098175,22.42501974
60.50371613,7.642357635,-18.12775314,-6.195915527,20.6254802
60.51379913,9.521100769,-17.17049377,-0.3046165466,19.63593664
60.52388113,10.2054776,-15.95157852,3.088227997,19.1870212
60.53396312,9.392069092,-14.99491791,3.811823273,18.09940666
60.54404612,9.362131348,-14.11474823,2.379152527,17.10368345
60.55412812,8.42807373,-13.1663205,0.9428892517,15.66120884
60.56421012,5.979914703,-12.11026657,-0.5694158936,13.51821626
60.57429312,2.600392456,-10.7509433,-1.804946594,11.20725903
60.58437513,0.3839515686,-9.629325714,-1.705852661,9.786790374
60.59445713,-0.8952882385,-9.021439819,-1.087638245,9.130765269
60.60454013,-1.29645401,-8.476273499,-0.9596543884,8.628380031
60.61462212,-0.9225315857,-8.04666687,-1.031804352,8.164835116
60.62470412,0.1502874756,-8.027656403,-0.8360115051,8.072469813
60.63478612,0.9611512756,-7.691455536,-1.017134857,7.817727506
60.64486912,1.313368835,-7.143445129,-1.429227905,7.402461646
60.65495113,1.457818451,-6.68704422,-1.770667877,7.069445506
60.66503413,1.489702148,-5.877527618,-2.065105591,6.40540432
60.67511612,1.275796967,-5.036726074,-2.128274231,5.614785717
60.68519812,0.6515950012,-4.06599472,-1.900148621,4.535135488
60.69528012,0.2583627319,-3.130290527,-1.798959045,3.619630331
60.70536312,0.1678010559,-2.06989563,-2.117646332,2.965982316
60.71544512,0.2341131592,-1.109043732,-2.408192139,2.661611607
60.72552812,0.6385720825,-0.3254232788,-2.637066193,2.732726243
60.73561013,1.225950623,-0.03517684937,-2.587519226,2.863467842
60.74569212,1.80315033,-0.1514849854,-2.141596527,2.803700144
60.75577512,2.271676025,-0.2820135498,-1.476230164,2.723839038
60.76585712,2.774630127,-0.5578898621,-0.5078938293,2.875372947
60.77593912,3.223396912,-1.414857788,0.509690094,3.556950126
60.78602212,3.306773529,-2.971470795,1.467099152,4.681534981
60.79610412,3.066972198,-5.420378265,2.780617676,6.820458464
60.80618613,2.80352005,-9.368118896,5.220843201,11.08506112
60.81626913,2.246827698,-14.60228439,11.62078445,18.79674375
60.82635112,1.439855804,-20.97079102,22.48444336,30.77982218
60.83643312,1.645528107,-29.60528549,30.38666061,42.4562108
60.84651512,1.749861145,-36.28709061,27.2336174,45.40357778
60.85659812,-0.4757107544,-28.88887527,11.90848618,31.25068733
60.86668013,-2.028282166,-15.11571671,5.651347961,16.26457973
60.87676313,-2.333946533,-6.794221344,3.785478058,8.120258261
60.88684513,-2.31792984,-1.432670746,1.144220581,2.955433124
60.89692712,-0.2345622253,1.460961914,-3.792513428,4.07094427
60.90700912,5.26425293,-1.520538025,-9.042845306,10.57343114
60.91709212,9.497449951,-9.20855072,-11.06154739,17.24403644
60.92717412,10.72863968,-14.90645187,-13.83198624,22.99195207
60.93725712,10.64586182,-16.1853923,-12.86200333,23.25365407
60.94733913,8.214467926,-14.86708374,-4.915178833,17.68238234
60.95742113,1.972597961,-12.65124161,17.59605881,21.7615795
60.96750413,-2.532882843,-10.61981598,17.53438705,20.65552508
60.97758612,1.490749969,-6.13244751,-3.661835175,7.296457002
60.98766812,1.564845886,-3.662882996,-6.060896301,7.252580124
60.99775112,1.353635101,-3.46230011,-5.553900604,6.683237386
61.00783312,1.622176666,-5.784271545,-6.434369659,8.802861317
61.01791513,1.810185699,-8.309220886,-9.231602783,12.5515901
61.02799813,1.385069733,-9.879455566,-9.330996094,13.6597785
61.03808012,0.8693920898,-11.16378479,-6.414311371,12.90462412
61.04816212,0.3948788452,-12.93819489,-2.032024384,13.10274549
61.05824412,-0.7512876892,-14.44286591,1.324894867,14.5229527
61.06832712,-1.745370483,-15.02979538,1.991758118,15.26132916
61.07840912,-1.933678894,-14.60153595,1.841320953,14.84366629
61.08849113,-1.533411255,-13.1025531,1.745071106,13.3068975
61.09857413,-0.8307723999,-10.93730576,1.471440125,11.06706718
61.10865612,0.2014810181,-8.887468414,0.2001338196,8.89200444
61.11873746,1.452878723,-7.157815247,-1.83697998,7.53124632
61.12882046,2.716101837,-5.976172485,-2.803220673,7.137919368
61.13890246,3.342848511,-5.337750092,-2.450853424,6.758172439
61.14898446,3.257076874,-5.673501892,-0.7964936829,6.590263702
61.15906746,3.010240173,-7.003336487,0.5786965942,7.644812463
61.16914946,2.491568756,-8.492140503,0.9458830261,8.900508968
61.17923246,1.817670135,-8.973689117,1.111139374,9.223104239
61.18931446,0.8912466431,-8.880732422,1.107097778,8.993741959
61.19939646,-0.1374142456,-8.699459381,0.7631130981,8.73394629
61.20947946,-0.398770752,-8.189020844,0.3496728516,8.206177648
61.21956146,-0.1342707825,-7.673343201,-0.5346881104,7.693121336
61.22964346,0.1691482544,-7.383845215,-1.587299194,7.554422547
61.23972646,0.3770658875,-7.507188721,-2.009271698,7.780567712
61.24980846,0.2854563904,-8.21401886,-1.397942963,8.337015995
61.25989046,-0.3632945251,-9.146429901,-0.413739624,9.162987686
61.26997346,-0.9018745422,-10.25652145,0.7210505676,10.32131406
61.28005546,-0.7135661316,-11.44983994,1.95403656,11.63727932
61.29013746,-0.1815724182,-11.81627792,2.698887634,12.12193825
61.30022046,-0.2076182556,-11.79127991,2.928809509,12.15135023
61.31030246,-0.5140310669,-11.8405275,2.863694916,12.19274653
61.32038446,-0.8916957092,-12.43284576,2.332299957,12.68110398
61.33046746,-1.691033478,-12.95900162,1.77381134,13.18869682
61.34054946,-2.588866425,-13.12156357,1.909279633,13.51010764
61.35063146,-3.155138855,-13.35687424,2.656226349,13.97914622
61.36071446,-3.322640533,-13.72091721,3.804338837,14.62109787
61.37079646,-2.790347443,-13.73184448,4.450545044,14.70227679
61.38087846,-2.07573349,-13.55566086,4.287683716,14.36832775
61.39096146,-1.677262115,-13.73513763,4.154011688,14.44724981
61.40104346,-2.022294617,-13.16826645,4.335883484,14.01045333
61.41112546,-2.150278473,-12.04066132,5.093607788,13.24937971
61.42120846,-1.768272858,-11.89770859,5.904022522,13.39924403
61.43129046,-0.8363108826,-12.8742778,4.85814743,13.78579128
61.44137246,0.4311035156,-14.77951584,-0.4019142151,14.79126342
61.45145546,1.043629761,-17.52256165,-9.364676056,19.89538859
61.46153746,2.508932648,-19.13890045,-13.12695236,23.3432888
61.47161946,4.663103027,-18.4534758,-8.963809662,21.03865924
61.48170246,7.931705933,-17.67464539,-1.590292969,19.43795463
61.49178446,10.21116577,-16.57308609,5.29224472,20.17282685
61.50186646,9.097032623,-15.15523453,7.224726105,19.09538697
61.51194946,8.400231628,-13.71612717,3.05858963,16.37226333
61.52203146,7.510631561,-11.87690186,-1.613195343,14.14470867
61.53211346,5.281018066,-10.75498489,-2.031575317,12.15261907
61.54219646,2.193987579,-9.613907776,-0.918639679,9.903772164
61.55227846,0.2212399292,-8.464897156,-0.9273216248,8.518412784
61.56236046,-1.077010345,-7.696245575,-1.009949799,7.836590192
61.57244346,-1.945204926,-7.287595367,-0.8937913513,7.595507318
61.58252546,-1.937421112,-7.432044983,-0.6385720825,7.706923348
61.59260746,-0.7131170654,-7.588170319,-0.9151968384,7.676356557
61.60269046,0.1185534668,-7.568561096,-1.343755646,7.687837877
61.61277246,0.7813751221,-7.429500275,-1.492246857,7.618058945
61.62285446,0.9523196411,-7.105424194,-1.663490753,7.359427095
61.63293746,1.122216339,-6.605912933,-1.845961304,6.950181892
61.64301946,1.199455719,-5.813161469,-2.050436096,6.279795257
61.65310146,0.840352478,-4.755760345,-2.029180298,5.238417837
61.66318446,0.7936495972,-3.649860077,-2.138602753,4.30406552
61.67326646,0.9318122864,-2.424208832,-2.31673233,3.480274599
61.68334846,1.086291046,-1.286125488,-2.485581207,3.002042796
61.69343146,1.310225372,-0.5649252319,-2.681523743,3.037499074
61.70351346,1.281784515,-0.1692979431,-2.561772766,2.869549275
61.71359546,1.981429596,-0.200433197,-2.014510803,2.832753164
61.72367846,2.920127563,-0.3658392334,-1.309776306,3.2212571
61.73376046,3.690575409,-0.7265890503,-0.5948629761,3.808167598
61.74384246,4.141288147,-1.74462204,0.02215393066,4.493825138
61.75392546,4.157604218,-3.601211243,1.1174263,5.612756612
61.76400746,3.634741516,-6.360423431,2.799478455,7.842411092
61.77408946,3.050207062,-10.20338196,5.857918396,12.15433974
61.78417246,3.099005585,-14.93339584,11.97659454,19.39198195
61.79425446,3.198099518,-20.60644867,20.03748184,28.91978987
61.80433646,2.946472778,-27.83177353,27.13377502,38.98116297
61.81441946,-0.08277786255,-34.67569153,28.5236348,44.8999797
61.82450146,-3.183879089,-29.35216187,13.40522369,32.42509082
61.83458346,-3.617826691,-16.60736481,4.372407532,17.55024739
61.84466646,-2.973416748,-7.859555969,3.702700195,9.182800005
61.85474846,-2.27811264,-3.3522789,2.335892487,4.678030006
61.86483046,1.414259033,-3.69985611,-4.972210236,6.357038499
61.87491346,6.048023071,-7.957901459,-11.17845428,14.99548662
61.88499546,7.796986084,-12.16041229,-13.33472031,19.65918067
61.89507746,8.753347321,-12.56951157,-12.85511765,19.99669373
61.90516046,9.879156189,-11.41645935,-9.335786133,17.75077953
61.91524246,8.495433655,-9.638307037,-2.416425018,13.07319645
61.92532446,2.368524628,-8.181386719,18.28118408,20.16796194
61.93540746,-0.6441105652,-7.021149445,13.58949051,15.30965938
61.94548946,1.307680664,-5.083728333,-5.177134094,7.372722693
61.95557146,-0.2987786865,-4.464765472,-9.207502899,10.23726082
61.96565446,-0.1172062683,-5.647755432,-7.562872925,9.439699445
61.97573646,1.551673279,-7.87467453,-6.485114136,10.31866727
61.98581846,2.394720154,-10.04022125,-6.881938934,12.40571686
61.99590146,2.129920807,-11.2565918,-6.457122345,13.15073574
62.00598346,1.350491638,-12.19229599,-4.666545868,13.12450226
62.01606546,0.6679110718,-12.97157547,-2.340682526,13.19797977
62.02614846,0.02380050659,-13.28622116,-0.2249821472,13.28814721
62.03623046,-0.3939807129,-13.03025345,1.741927643,13.15207351
62.04631246,-0.7596702576,-12.14229996,3.111579437,12.55764603
62.05639546,-0.9346563721,-10.76246933,2.775228882,11.15375381
62.06647746,-0.2583627319,-9.060957642,1.001118164,9.119755603
62.07655946,1.47428421,-7.423512726,-1.87095932,7.796316047
62.08664246,2.550097046,-6.432872772,-4.322112122,8.158768304
62.09672446,2.895428925,-5.92527832,-4.878505096,8.203184979
62.10680646,2.618355103,-6.634503479,-2.243534546,7.47702261
62.11689021,2.416724396,-7.898624725,0.796942749,8.2984304
62.12697221,1.944755859,-9.231902161,1.841021576,9.612463436
62.13705421,1.561552734,-9.856403503,1.940414886,10.16623563
62.14713721,1.046174469,-9.676477661,2.946622467,10.16913393
62.15721921,0.5625302124,-9.05646698,3.426524506,9.699335265
62.16730121,0.1296304321,-8.394992523,2.435136108,8.742001566
62.17738421,0.07140151978,-8.1192659,0.4218228149,8.13052959
62.18746621,0.2583627319,-8.114475861,-1.749412079,8.304933017
62.19754821,0.2877017212,-8.084538116,-3.160677338,8.685183364
62.20763121,0.3053649902,-8.310717773,-2.882406006,8.801678367
62.21771321,0.05957611084,-9.124425659,-1.055904236,9.185511781
62.22779521,-0.1724414062,-10.38300842,1.185983734,10.45194515
62.23787821,-0.1658551025,-11.36331985,3.02700531,11.76075283
62.24796021,-0.04236190796,-11.55671768,4.00641861,12.23155379
62.25804221,0.07050338745,-11.33652557,4.163442078,12.0770871
62.26812521,0.04221221924,-11.60222305,3.529061279,12.12714456
62.27820721,-0.329614563,-12.28225891,2.063758392,12.45879723
62.28828921,-1.463057556,-12.5969046,1.055305481,12.72541601
62.29837221,-2.860102386,-12.64106277,1.723066864,13.07461713
62.30845421,-3.728296967,-12.62324982,2.713706818,13.43915321
62.31853621,-3.941453705,-12.87442749,3.510799255,13.91444041
62.32861921,-3.707789612,-13.15748886,3.859573975,14.20434892
62.33870121,-3.825444946,-13.28158081,3.489842834,14.25529449
62.34878321,-3.880231018,-13.35133575,2.755769348,14.17422393
62.35886621,-3.885919189,-12.93220734,2.397264862,13.71456282
62.36894821,-2.937790833,-12.97142578,3.772455139,13.82461282
62.37903021,-1.075962524,-13.35417984,4.927902374,14.27501441
62.38911321,0.6035449219,-14.01146301,2.74618927,14.29079836
62.39919521,1.880090332,-15.68827606,-3.891008606,16.27257489
62.40927721,3.27039917,-18.0514119,-8.760532379,20.32968051
62.41936021,4.759352875,-19.31523376,-8.703650665,21.71366459
62.42944221,7.261699219,-19.29906738,-5.173990631,21.25926754
62.43952421,10.37163208,-18.03165298,-0.5114863586,20.80800038
62.44960721,10.57206528,-15.72584793,3.077899475,19.19750824
62.45968921,9.492061157,-13.90084305,3.900139618,17.27841866
62.46977121,9.155261536,-12.57744507,2.753074951,15.79842903
62.47985421,7.961793365,-10.98086517,0.06062393188,13.56367313
62.48993621,5.506149902,-9.820627899,-1.810036011,11.40344902
62.50001821,2.437082062,-8.687035217,-1.54104538,9.153074385
62.51010121,0.1625619507,-7.774832153,-0.9419911194,7.833376582
62.52018321,-1.496737518,-6.927294617,-1.281485138,7.20207179
62.53026521,-2.424059143,-6.37224884,-1.506916351,6.982292954
62.54034821,-1.158590698,-6.490802307,-1.257984009,6.712329757
62.55043021,0.2968327332,-6.552174683,-0.9151968384,6.622438221
62.56051221,1.092278595,-6.501579895,-1.068029022,6.678645046
62.57059521,1.657952271,-6.521189117,-1.271306305,6.847695449
62.58067721,1.828597412,-6.474785614,-1.263971558,6.845746222
62.59075921,1.669328613,-6.138584747,-1.147214355,6.464130374
62.60084221,1.163680115,-5.454357605,-1.111139374,5.686721287
62.61092421,0.6113287354,-4.662953339,-0.9304650879,4.794019393
62.62100621,0.435743866,-3.748205566,-1.093027039,3.928565361
62.63108921,0.6447093201,-2.612217865,-1.602268066,3.131548377
62.64117121,1.142574005,-1.645827484,-2.178270264,2.959575106
62.65125321,1.54329071,-0.9662406921,-2.697390747,3.254425316
62.66133621,2.159259796,-0.8774752808,-2.579436035,3.476471774
62.67141821,2.826272736,-1.274150391,-2.012265472,3.696009892
62.68150021,3.331621857,-1.621428223,-1.368603973,3.949912722
62.69158321,3.67994751,-1.980381775,-0.3977229309,4.1978696
62.70166521,3.855532379,-2.596650238,0.7018904114,4.701103332
62.71174721,3.645369415,-3.931274872,2.17991684,5.787545051
62.72183021,3.494333496,-6.385870514,3.888463898,8.252869821
62.73191221,3.075953522,-10.2439476,7.080575867,12.8271005
62.74199421,2.171085205,-15.30207916,15.00509674,21.54112731
62.75207721,0.6816824341,-22.15138596,26.00961273,34.17087276
62.76215921,0.7261399841,-30.53036179,29.55783417,42.50053918
62.77224121,-0.06122268677,-35.02626251,22.80866913,41.79806456
62.78232421,-2.780767365,-25.85423584,9.372310181,27.64080998
62.79240621,-2.799777832,-13.46360229,4.131109314,14.35873974
62.80248821,-2.048939209,-5.751789093,2.809507599,6.721202467
62.81257121,-0.5528004456,-1.573527832,0.5511538696,1.756516086
62.82265321,4.343667297,-3.172802124,-4.119433594,6.775238154
62.83273521,9.476643219,-9.763297119,-9.337133331,16.50184221
62.84281821,10.70873108,-15.42602142,-14.87666382,23.95734093
62.85290021,9.1371492,-14.03960449,-14.46052917,22.12927685
62.86298221,7.456743622,-9.848170624,-7.10946579,14.25250834
62.87306521,4.547094269,-7.338489532,5.630092163,10.30666933
62.88314721,0.1103205872,-5.976022797,20.41799057,21.27485271
62.89322921,1.504371643,-4.05551651,2.381547546,4.93782512
62.90331221,0.4113446045,-3.148552551,-7.114555206,7.790987315
62.91339421,-1.366957397,-3.706741791,-7.729925537,8.681028513
62.92347621,-0.06930587769,-7.401209106,-7.3575,10.43625919
62.93355921,1.146765289,-11.06034988,-8.711135101,14.12551893
62.94364121,1.208137665,-12.31998047,-8.170908508,14.83257433
62.95372321,0.5797444153,-12.57415192,-5.747298431,13.83751565
62.96380621,0.1919009399,-13.39893677,-1.955383759,13.54222501
62.97388821,-0.1025367737,-14.46472046,1.492396545,14.54186712
62.98397021,-0.552052002,-14.82082993,2.740501099,15.08217847
62.99405321,-0.7262896729,-13.97838181,2.375410309,14.19736696
63.00413521,-0.5445675659,-12.33629654,2.287393341,12.55838104
63.01421721,0.01272354126,-10.50695068,2.042352905,10.70361527
63.02430021,0.7593708801,-8.834777985,0.8925938416,8.912164156
63.03438221,1.384770355,-7.442672882,-0.2679428101,7.575141049
63.04446421,1.763033752,-6.662046204,-1.45437561,7.043177979
63.05454721,2.165397034,-6.584208069,-2.527943115,7.377752815
63.06462921,2.081122284,-6.7841922,-2.466421051,7.512627141
63.07471121,1.792073364,-7.52245697,-0.8321195984,7.777615884
63.08479421,1.429676971,-8.178392944,0.6911128235,8.331129835
63.09487621,0.7008425903,-8.530460815,1.241069183,8.648710585
63.10495821,-0.01945953369,-8.572822723,1.230141907,8.660653395
63.11504121,-0.3685336304,-8.346643066,1.101708984,8.427100937
63.12512321,-0.3608995056,-7.974666595,0.7180567932,8.01505841
63.13520521,-0.149539032,-7.651488647,0.2962339783,7.658681023
63.14528821,0.3835025024,-7.322472839,-0.1437011719,7.333916599
63.15537021,0.8445437622,-7.326215057,-0.8205935669,7.420246292
63.16545221,1.101708984,-7.61376709,-1.331780548,7.807486882
63.17553521,1.199904785,-8.228538666,-0.9981243896,8.37525357
63.18561721,0.8158035278,-9.021140442,-0.07125183105,9.058233111
63.19569921,0.4406835938,-9.701026611,1.183588715,9.782893314
63.20578221,0.4044589233,-10.43495041,2.65263382,10.77442542
63.21586421,0.3514691162,-11.03071152,3.476520538,11.57092573
63.22594621,0.02589614868,-11.53531219,3.683839417,12.10928449
63.23602921,-0.3341052246,-12.12628326,3.490142212,12.62297369
63.24611121,-0.9422904968,-12.79643967,2.948119354,13.16541633
63.25619321,-2.40684494,-13.08189606,2.293680267,13.49777301
63.26627621,-3.579207001,-13.29160995,2.254012756,13.94841179
63.27635821,-3.771407318,-13.45806381,3.154689789,14.32812138
63.28644021,-3.044818268,-12.99073563,4.400399323,14.04968486
63.29652321,-2.257904663,-12.03197937,5.022355957,13.23218502
63.30660521,-1.473386078,-11.8683696,4.761448517,12.87246889
63.31668721,-1.490899658,-11.79981216,4.232897644,12.62441172
63.32677021,-1.783541107,-11.95788345,5.63158905,13.3374207
63.33685221,-1.822460175,-12.8292215,6.678661652,14.5778876
63.34693421,-1.198258209,-13.82764526,4.85814743,14.70514171
63.35701721,-0.8026309204,-15.90637253,-2.935395813,16.19485881
63.36709921,-0.3110531616,-19.321371,-11.44639709,22.45956674
63.37718121,1.852846985,-21.15984787,-11.73544601,24.26711555
63.38726421,4.690645752,-19.83136047,-7.602989502,21.75064287
63.39734621,8.132887573,-19.16973633,-2.74035141,21.00314684
63.40742821,10.61203217,-18.15993622,2.297123108,21.15833842
63.41751121,10.10788055,-16.63655411,5.447771301,20.21441055
63.42759321,10.23077499,-15.34953049,4.840184784,19.07103122
63.43767521,9.93169693,-13.14117279,1.856738892,16.57638397
63.44775821,7.108118591,-10.80363373,-0.5379812622,12.94346459
63.45784021,2.676284637,-9.413773956,-1.363813934,9.88137784
63.46792221,-0.2707868958,-8.361162872,-1.599423981,8.517072689
63.47800521,-1.832788696,-7.413483582,-1.854194183,7.858555165
63.48808721,-2.323618011,-6.772815857,-1.083297272,7.241806976
63.49816921,-1.531465302,-6.599027252,-1.225351868,6.884332491
63.50825221,0.04206253052,-6.734944611,-1.46141098,6.891804569
63.51833421,1.252744904,-6.773264923,-1.938917999,7.155829129
63.52841621,1.718127136,-6.762487335,-2.040706329,7.269640853
63.53849921,1.959724731,-6.812034302,-2.033670959,7.374289791
63.54858121,1.921554108,-6.430328064,-2.058519287,7.019899633
63.55866321,1.540147247,-5.657185822,-1.972448273,6.185980694
63.56874621,1.121617584,-4.934788055,-1.652264099,5.323545417
63.57882821,0.7744894409,-4.06838974,-1.587448883,4.435270333
63.58891021,0.7271878052,-3.000959473,-1.931283875,3.64203477
63.59899321,0.8996292114,-1.905986481,-2.322719879,3.136422296
63.60907521,1.196461945,-1.05425766,-2.566712494,3.021753369
63.61915721,1.409618683,-0.4472698975,-2.631078644,3.018219678
63.62924021,1.83233963,-0.3547622681,-2.0570224,2.777528747
63.63932221,2.339185638,-0.6234535217,-1.327738953,2.761045902
63.64940421,2.733615417,-0.7662565613,-0.5348377991,2.888919147
63.65948721,3.203039246,-1.210233307,0.5219645691,3.463606802
63.66956921,3.285667419,-2.377056885,1.448687439,4.306356362
63.67965121,3.328777771,-4.307891693,2.350861359,5.930028787
63.68973421,3.360062714,-7.411387939,3.934568024,9.038778577
63.69981621,3.106639709,-11.74712173,8.316405945,14.72442485
63.70989821,2.283501434,-17.12468903,17.08801529,24.29958065
63.71998121,2.533331909,-24.2768161,25.32733154,35.17463992
63.73006321,3.305276642,-32.29369492,29.79823425,44.06520566
63.74014521,0.01481918335,-33.32175705,20.91360992,39.34105734
63.75022821,-2.453248444,-21.6186438,7.663014679,23.06742252
63.76031021,-2.842888184,-11.23937759,3.236120453,12.03653179
63.77039221,-3.384312286,-4.526437225,2.603984985,6.222776021
63.78047521,-1.892215118,-1.303040314,1.535057831,2.763113218
63.79055721,3.841910706,-4.723128204,-3.97004425,7.268388353
63.80063921,7.654632111,-11.51779861,-10.84764221,17.57624588
63.81072221,8.261619873,-15.61223419,-17.2683902,24.70209545
63.82080421,9.032217407,-15.30911453,-15.44847473,23.55005967
63.83088621,7.648345184,-12.77428574,-8.343200226,17.06717757
63.84096921,3.873944092,-9.676777039,5.563630371,11.81530531
63.85105121,-1.238973541,-8.081544342,20.91465775,22.45594182
63.86113321,1.243015137,-5.095553741,0.4182302856,5.261622481
63.87121621,0.868793335,-3.643872528,-7.787555695,8.641679961
63.88129821,-0.2046244812,-4.277504883,-6.742129669,7.987191727
63.89138021,-0.2555186462,-6.746620331,-5.660179596,8.810210481
63.90146321,0.6239025879,-9.182055817,-7.595205688,11.93258366
63.91154521,0.9783654785,-10.77938416,-7.938591614,13.42287445
63.92162721,1.064586182,-12.20636673,-5.864804077,13.5839854
63.93171021,0.9865983582,-13.38501572,-2.970572662,13.74613851
63.94179221,0.5418731689,-14.14184189,-0.5435197449,14.16265273
63.95187421,0.353714447,-13.99769165,0.8858578491,14.0301543
63.96195721,0.4959187317,-12.80706757,2.306104431,13.02248182
63.97203921,0.7009922791,-11.34056717,3.521726532,11.89547862
63.98212121,1.230441284,-9.796677704,3.190315704,10.37627072
63.99220421,1.773362274,-8.315507812,1.832938385,8.697824272
64.00228621,2.522105255,-7.040159912,-0.2779719543,7.483457417
64.01236821,2.514920197,-5.924978943,-2.259102173,6.821564461
64.02245121,2.124082947,-5.643564148,-2.050136719,6.369034874
64.03253321,1.305884399,-5.93815155,-0.9541159058,6.154454895
64.04261521,0.8360115051,-7.035070496,-0.02065704346,7.084600118
64.05269821,1.161135406,-8.143665161,0.5662724304,8.245494658
64.06278021,1.28118576,-8.580307159,1.15484848,8.751958804
64.07286221,1.053509216,-8.551866302,1.706900482,8.783951741
64.08294521,0.699944458,-8.248896332,1.745669861,8.460589589
64.09302721,0.1969903564,-8.080795898,0.94543396,8.138299142
64.10310921,-0.02230361938,-8.056246948,-0.4153862,8.066979487
64.11319258,0.001197509766,-8.174650726,-1.853894806,8.382233705
64.12327458,0.1679507446,-8.390352173,-2.656675415,8.802507671
64.13335658,0.3523672485,-8.787775726,-2.106868744,9.043675182
64.14343958,0.4297563171,-9.616751862,-0.1962419128,9.62834969
64.15352158,0.4980143738,-10.49916687,1.916464691,10.68425759
64.16360358,0.4799020386,-10.78417419,3.265309753,11.27789727
64.17368658,0.3261717224,-10.82279388,3.611839142,11.4142296
64.18376858,0.1541793823,-11.3946048,3.370241547,11.88357345
64.19385058,-0.2174977112,-12.38763977,2.724634094,12.68560425
64.20393358,-1.214873657,-12.80182846,1.957479401,13.00747691
64.21401558,-2.541564789,-12.75078461,1.948947144,13.14688003
64.22409758,-3.345542908,-12.7163562,2.387834473,13.36413581
64.23418058,-3.232527924,-12.798685,3.390748901,13.62911415
64.24426258,-2.095791779,-12.32716553,4.49200882,13.28644032
64.25434458,-0.8527766418,-11.427686,4.970114594,12.49084763
64.26442758,-0.1637594604,-11.04014191,4.881349182,12.07224587
64.27450958,-0.230969696,-10.91994186,4.017345886,11.63776376
64.28459158,-0.2339634705,-11.58126663,4.127816162,12.29712739
64.29467458,-0.1166075134,-12.41428436,5.212161255,13.46457123
64.30475658,0.8056246948,-13.98706375,3.910917206,14.54586735
64.31483858,1.060843964,-16.58805496,-3.284769287,16.94339596
64.32492158,1.23089035,-19.79363892,-10.17060013,22.2877621
64.33500358,2.495909729,-20.19211029,-9.892029419,22.62306631
64.34508558,4.756508789,-18.44389572,-5.964496765,19.95938092
64.35516858,7.582631836,-17.07903397,-2.183209991,18.81372139
64.36525058,8.534203033,-15.86790253,2.324067078,18.16656929
64.37533258,7.807464294,-15.067966,4.664899292,17.60003931
64.38541558,8.064479828,-14.07852356,2.886297913,16.47942281
64.39549758,7.898475037,-12.63687149,0.6893165588,14.91816297
64.40557958,5.659880219,-11.20420074,-0.07828720093,12.55286769
64.41566258,2.566562805,-9.602381744,-0.9398954773,9.983806053
64.42574458,0.5969586182,-8.401129761,-1.632654877,8.579096852
64.43582658,-0.8250842285,-7.633526001,-1.459015961,7.815382957
64.44590958,-1.232237549,-7.734565887,-0.5007087708,7.848097102
64.45599158,-0.7179071045,-7.954458618,-0.230969696,7.990128254
64.46607358,0.2737806702,-7.891439667,-0.3746708679,7.905071418
64.47615658,0.7349716187,-7.692503357,-0.6556365967,7.755298223
64.48623858,1.063688049,-7.676037598,-1.472637634,7.88806992
64.49632058,1.595232697,-7.7038797,-1.67786087,8.044236874
64.50640358,1.573527832,-7.115453339,-1.556313629,7.451696328
64.51648558,1.300645294,-6.378835144,-1.745071106,6.739917592
64.52656758,0.9273216248,-5.354664917,-1.885179749,5.752066103
64.53665058,0.5662724304,-4.125570831,-1.919308777,4.585274837
64.54673258,0.4328997803,-2.977757721,-2.263742523,3.765497773
64.55681458,0.6541397095,-2.220482483,-2.706072693,3.561077173
64.56689758,0.9752220154,-1.590891724,-2.92641449,3.470719842
64.57697958,1.611997833,-1.232387238,-2.7590625,3.424870975
64.58706158,2.407294006,-1.218316498,-2.348017273,3.576666693
64.59714458,2.90066803,-1.353036346,-1.724563751,3.635753362
64.60722658,3.201242981,-1.498982849,-1.154698792,3.718633553
64.61730858,3.360062714,-1.844763794,-0.3366499329,3.847922566
64.62739158,3.240611115,-2.69709137,0.6132746887,4.260512656
64.63747358,3.151845703,-4.327201538,1.798060913,5.64728497
64.64755558,3.035387878,-6.800657959,3.317850494,8.152954075
64.65763858,2.83749939,-10.56607773,6.886130219,12.92718804
64.66772058,2.353256378,-15.66028427,15.00374954,21.81501362
64.67780258,1.286275177,-22.36349487,24.55164459,33.23497644
64.68788558,2.225422211,-31.03376495,30.61523529,43.65019706
64.69796758,1.575773163,-34.94438278,24.6324765,42.78261151
64.70804958,-1.181942139,-23.5229837,9.557924194,25.41813653
64.71813258,-1.702110443,-12.13586334,4.435127106,13.03252514
64.72821458,-1.885928192,-5.324876862,2.610870667,6.223157107
64.73829658,-0.769100647,-1.012943573,-0.8102650452,1.508011913
64.74837958,1.87215683,-0.3734733582,-5.906866608,6.207698983
64.75846158,5.733826447,-5.985303497,-10.18646713,13.132583
64.76854358,6.584806824,-12.25157272,-15.66956497,20.95223094
64.77862658,7.236850891,-14.140345,-17.17184097,23.39216728
64.78870858,8.940158844,-14.09498932,-10.4509671,19.69309212
64.79879058,8.085885315,-13.6546051,2.493215332,16.06380729
64.80887358,0.2947370911,-14.16234924,31.99446716,34.99006909
64.81895558,-1.196162567,-10.73552536,4.555476837,11.72325377
64.82903758,-0.7494914246,-5.853278046,-9.960586853,11.57738709
64.83912058,-2.154469757,-3.978726196,-7.280410309,8.571836229
64.84920258,-0.2436932373,-4.553081818,-4.336482239,6.292457281
64.85928458,1.816322937,-5.964646454,-5.219196625,8.131177635
64.86936758,3.312012634,-7.355853424,-6.116730194,10.1238528
64.87944958,3.745960236,-8.838669891,-5.549859009,11.08851832
64.88953158,3.390299835,-10.76276871,-3.86481308,11.92761935
64.89961458,2.876717834,-12.75033554,-2.368374939,13.28366522
64.90969658,1.784738617,-14.06325531,-1.650617523,14.27182469
64.91977858,0.4685256958,-14.00352951,-0.02993774414,14.01139719
64.92986158,-0.7488926697,-12.91469376,2.370769958,13.15183277
64.93994358,-1.109343109,-11.13429611,3.505859528,11.72579392
64.95002558,-0.5227130127,-9.171427917,2.802472229,9.60427871
64.96010858,0.7310797119,-7.595056,0.5111869812,7.647265218
64.97019058,1.910626831,-6.458768921,-1.368154907,6.872993432
64.98027258,2.137105865,-5.94758194,-2.330653381,6.735940736
64.99035558,2.121089172,-6.287674713,-1.651515656,6.83822905
65.00043758,1.471589813,-7.226522369,-0.005388793945,7.374837705
65.01051958,0.9633966064,-8.686436462,0.6617738342,8.764716541
65.02060258,0.6692582703,-9.285640411,1.264570312,9.395220197
65.03068458,0.1440005493,-9.284143524,1.998045044,9.497801911
65.04076658,-0.1270857239,-9.029972076,2.084415436,9.268297265
65.05084958,-0.1579216003,-8.552764435,1.322649536,8.655872025
65.06093158,-0.03607498169,-8.208630066,0.2140548706,8.211499769
65.07101358,0.2676434326,-7.916138306,-1.176253967,8.007524716
65.08109658,0.3203338623,-7.700436859,-2.23140976,8.023623316
65.09117858,0.2489323425,-7.751331024,-2.248474274,8.074697302
65.10126058,0.139360199,-8.611442413,-1.079105988,8.679909644
65.11134358,0.217048645,-9.894723816,0.8458909607,9.933186851
65.12142471,0.6349795532,-10.82803299,2.519560547,11.13542468
65.13150671,1.026415558,-11.08639572,3.133883057,11.56645676
65.14158971,1.283131714,-10.99029556,3.132835236,11.49989914
65.15167171,1.01099762,-11.31916168,2.631976776,11.66502632
65.16175371,0.1604663086,-12.10787155,1.606010284,12.21497327
65.17183671,-1.519490204,-12.59989838,0.9331594849,12.72544994
65.18191871,-3.426075439,-12.71156616,1.131646729,13.21372512
65.19200071,-4.606221313,-13.11557602,2.250270538,14.08187937
65.20208371,-4.180207214,-13.41525284,3.70210144,14.53095648
65.21216571,-2.706970825,-12.80467255,4.30235321,13.776704
65.22224771,-1.416654053,-12.03138062,4.775818634,13.02188434
65.23233071,-1.043330383,-11.62302979,4.802912292,12.61948201
65.24241271,-0.9912387085,-10.71232361,4.597389679,11.69924883
65.25249471,-0.1646575928,-11.13998428,6.507567444,12.90251123
65.26257771,0.3736230469,-12.45380219,5.919590149,13.79414117
65.27265971,0.316741333,-14.55513245,-0.1097218323,14.55899188
65.28274171,0.5222639465,-17.54681122,-6.969806213,18.88760287
65.29282471,1.040635986,-19.98269577,-9.12427597,21.99189545
65.30290671,2.738704834,-19.60233673,-7.807763672,21.27706002
65.31298971,5.412145386,-18.55376724,-5.815855865,20.1831062
65.32307171,8.504564667,-17.49906052,-2.288141785,19.5903122
65.33315371,9.47888855,-16.08809464,2.729424133,18.8712976
65.34323671,8.773704987,-15.16930527,5.502257996,18.36737773
65.35331871,9.397308197,-14.50034637,3.822600861,17.69694108
65.36340071,9.261690216,-12.85377045,0.8298742676,15.8646466
65.37348371,5.974525909,-10.81336349,-0.5580395508,12.36669714
65.38356571,2.504441986,-9.285341034,-1.334025879,9.709243679
65.39364771,0.139360199,-8.131540375,-1.936073914,8.360009111
65.40373071,-0.9505233765,-7.403903503,-1.470242615,7.608080909
65.41381271,-1.583706665,-7.144343262,-0.4556524658,7.331942895
65.42389471,-1.490001526,-7.190746765,-0.4125421143,7.35507543
65.43397771,-0.6173162842,-7.348368988,-0.8791218567,7.42647032
65.44405971,0.1778302002,-7.643405457,-1.14317276,7.730466643
65.45414171,0.8605604553,-7.682623901,-1.449435883,7.86537594
65.46422471,1.041683807,-7.436385956,-1.670975189,7.692665294
65.47430671,0.920735321,-6.712940369,-1.769470367,7.003024154
65.48438871,0.813558197,-5.754633179,-1.938319244,6.12656196
65.49447171,0.3972738647,-4.824018402,-1.858235779,5.18478739
65.50455371,0.4466711426,-3.745211792,-1.777852936,4.169758691
65.51463571,0.6765930176,-2.503394165,-2.190993805,3.394880603
65.52471871,0.8289761353,-1.369352417,-2.536325684,2.999212471
65.53480071,1.345701599,-0.5248086548,-2.749781799,3.10606453
65.54488271,1.701212311,0.1585203552,-2.737657013,3.227075758
65.55496571,2.354304199,0.1405577087,-2.102228394,3.159409589
65.56504771,2.904709625,-0.2588117981,-1.410816193,3.239556124
65.57512971,3.387006683,-0.6262976074,-0.7890092468,3.533638148
65.58521271,3.830684052,-1.324445801,0.05553451538,4.053563995
65.59529471,4.177812195,-2.697989502,0.9859996033,5.070054961
65.60537671,3.898642731,-4.614753571,1.963466949,6.352209704
65.61545971,3.861819305,-7.629334717,3.268902283,9.154568188
65.62554171,3.664379883,-11.9267482,6.924450531,14.26965373
65.63562371,2.671045532,-17.25671448,15.72929077,23.50189922
65.64570671,2.102378082,-24.31693268,25.35277863,35.1922803
65.65578871,2.521805878,-33.52443558,30.95562744,45.70008923
65.66587071,0.0758921814,-36.94766693,25.37897415,44.824415
65.67595371,-2.785108337,-24.98798721,10.04306534,27.07433277
65.68603571,-2.560275879,-12.82712585,3.794010315,13.61927621
65.69611771,-3.76422226,-5.334007874,2.460583191,6.976781411
65.70620071,-3.266357574,-0.8750802612,0.4671784973,3.413665627
65.71628271,2.804418182,-2.89483017,-5.564378815,6.870743384
65.72636471,6.768175507,-9.436227264,-10.99972595,15.99514163
65.73644771,6.975943451,-14.18914352,-15.7541391,22.32013619
65.74652971,7.213798828,-14.16908524,-15.88661362,22.47635118
65.75661171,7.074588318,-11.76149185,-9.700128479,16.80699209
65.76669471,4.792733459,-8.999435577,0.9996212769,10.2449684
65.77677671,-1.282532959,-8.542735291,24.47245926,25.95235017
65.78685871,0.590072937,-6.198609924,6.177354126,8.771012203
65.79694171,1.669029236,-4.842430115,-6.832391968,8.539108151
65.80702371,-0.1103205872,-4.918022919,-8.937913513,10.20222613
65.81710571,1.480271759,-6.727909241,-5.751340027,8.974067045
65.82718871,3.026556244,-8.714428253,-6.478827209,11.2728215
65.83727071,3.387156372,-9.767488403,-6.879543915,12.41792183
65.84735271,3.364703064,-10.56712555,-4.762945404,12.06942492
65.85743571,2.320025482,-11.79127991,-1.992057495,12.18134201
65.86751771,0.8798703003,-13.16347641,-0.1669029236,13.19390539
65.87759971,-0.4683760071,-14.12133453,0.980760498,14.1630984
65.88768271,-1.674118652,-14.03316788,1.994003448,14.2726495
65.89776471,-2.070045319,-12.94852341,2.090852051,13.27859211
65.90784671,-1.327589264,-11.14896561,1.04138443,11.27592164
65.91792971,-0.07469467163,-8.903036041,-0.3019221497,8.908467154
65.92801171,1.251397705,-7.089108124,-1.411864014,7.335857837
65.93809371,2.412982178,-6.026767273,-2.314636688,6.892165824
65.94817671,2.657124481,-5.450615387,-2.659818878,6.621491907
65.95825871,2.600093079,-6.249204712,-1.184935913,6.871471216
65.96834071,2.257605286,-7.705526276,0.4349954224,8.041214947
65.97842371,1.809137878,-8.693621521,1.278491364,8.971431055
65.98850571,1.287173309,-8.986562347,1.393901367,9.184665425
65.99858771,0.6807843018,-8.901389465,1.382824402,9.033847741
66.00867071,0.2755769348,-8.355325012,1.528471527,8.498448324
66.01875271,0.03592529297,-7.830366669,1.275198212,7.933603423
66.02883571,0.09310638428,-7.462581482,0.1338217163,7.464361957
66.03891771,0.005837860107,-7.432643738,-1.461111603,7.574897632
66.04899971,0.06930587769,-7.569459229,-2.514171753,7.976376115
66.05908271,-0.03023712158,-7.788154449,-2.504142609,8.180892018
66.06916471,-0.06376739502,-8.548423462,-1.082848206,8.616969897
66.07924671,-0.076640625,-9.68246521,0.5453160095,9.698111975
66.08932971,0.2442919922,-10.66217789,1.665137329,10.79418354
66.09941171,0.963097229,-11.13519424,2.232906647,11.39763042
66.10949371,1.203347626,-11.31512009,2.155816956,11.58134426
66.11957771,0.9642947388,-11.47229324,1.983674927,11.68239457
66.12965971,0.1881587219,-11.60371994,1.47548172,11.69866516
66.13974171,-1.320254517,-11.78259796,0.9777667236,11.89658415
66.14982471,-2.98374527,-11.99141373,0.8448431396,12.3858992
66.15990671,-3.896846466,-12.59211456,1.559307404,13.27321367
66.16998871,-3.985462189,-13.25867844,3.007845154,14.16769548
66.18007171,-3.088078308,-13.35507797,4.170926514,14.32797834
66.19015371,-1.961670685,-13.11407913,4.339176636,13.95190586
66.20023571,-1.292861481,-12.97801208,4.017495575,13.64699817
66.21031871,-1.261726227,-12.83461029,3.79805191,13.44412038
66.22040071,-1.791624298,-12.15053284,3.901486816,12.88669722
66.23048271,-1.621428223,-11.94291458,4.843927002,12.98945214
66.24056571,-0.5716612244,-12.74988647,5.487588501,13.89244504
66.25064771,0.5713618469,-14.0593634,3.003204803,14.38789049
66.26072971,1.564247131,-16.37774231,-2.63976059,16.66270231
66.27081271,2.510130157,-18.86901169,-8.522227936,20.85590383
66.28089471,4.282294922,-19.56671082,-9.726773071,22.26666424
66.29097671,7.153025208,-18.78907791,-6.344706116,21.08199502
66.30105971,9.657167816,-17.43858627,-1.287322998,19.9755446
66.31114171,9.685309296,-15.28740967,3.460503845,18.42512408
66.32122371,8.071365509,-13.8550383,5.539530487,16.96453434
66.33130671,7.494315491,-13.1489566,3.414399719,15.51508781
66.34138871,6.403533783,-12.06700653,-0.3796105957,13.66608926
66.35147071,3.875141602,-10.9407486,-2.114203491,11.79773532
66.36155371,1.478774872,-9.72812027,-1.82410675,10.0075204
66.37163571,-0.3243754578,-8.555159454,-1.295106812,8.658710896
66.38171771,-0.9610015869,-7.689359894,-1.036594391,7.818203602
66.39180071,-0.664019165,-7.109615479,-0.9226812744,7.199923224
66.40188271,-0.1320254517,-6.716832275,-0.8767268372,6.775095312
66.41196471,0.3255729675,-6.802154846,-1.071022797,6.893649116
66.42204771,0.9648934937,-7.082072754,-1.36546051,7.276761392
66.43212971,1.592687988,-6.934479675,-1.521885223,7.275974026
66.44221171,1.556613007,-6.576274567,-1.649270325,6.956329767
66.45229471,1.27894043,-6.032006378,-2.039658508,6.494689862
66.46237671,1.108894043,-5.229525146,-2.147733765,5.76110576
66.47245871,0.6170169067,-4.293820953,-1.956281891,4.758639205
66.48254171,0.4805007935,-3.427422638,-1.963466949,3.979109123
66.49262371,0.67045578,-2.572400665,-2.347717896,3.546623106
66.50270571,1.039139099,-1.836680603,-2.668051758,3.401721018
66.51278871,1.400787048,-1.316961365,-2.832709351,3.423570338
66.52287071,1.649120636,-0.9877958679,-2.641556854,3.266980588
66.53295271,2.0079245,-0.9779164124,-2.001936951,2.999305396
66.54303571,2.328557739,-1.081501007,-1.225800934,2.845068277
66.55311771,2.626438293,-1.292861481,-0.3213816833,2.944988133
66.56319971,3.047662354,-2.017354889,0.8334667969,3.748684232
66.57328271,3.314707031,-3.476969604,2.05821991,5.226171594
66.58336471,3.478915558,-5.886209564,3.415896606,7.643210459
66.59344771,3.388503571,-9.694290619,5.655688934,11.72382379
66.60352971,2.992576904,-15.02859787,12.13137268,19.54442308
66.61361171,2.082319794,-21.47823578,22.23536133,30.98486665
66.62369371,2.945724335,-29.98010605,28.94276321,41.77520309
66.63377671,2.109114075,-36.66894653,27.78087936,46.0525489
66.64385871,-1.264270935,-29.12238968,12.46757355,31.70413777
66.65394171,-2.894381104,-15.82419342,5.084776154,16.87120292
66.66402371,-3.179687805,-7.455097046,3.298540649,8.750386101
66.67410571,-3.539689178,-2.07812851,1.854493561,4.504127435
66.68418871,-1.463955688,0.05433700562,-2.479743347,2.880146843
66.69427071,3.181933136,-3.6389328,-8.427624664,9.715523037
66.70435271,6.433770905,-10.33870056,-12.50215164,17.45239047
66.71443571,8.778195648,-13.687836,-14.97096771,22.10301897
66.72451771,10.72265213,-13.65759888,-11.67302582,20.92282982
66.73459971,9.876162415,-12.24438766,-4.702321472,16.41875271
66.74468271,5.555397491,-11.33428024,15.95636856,20.34536919
66.75476471,-0.08696914673,-10.8916507,20.4733754,23.19040143
66.76484671,0.690813446,-6.871311035,-4.630770264,8.314816402
66.77492971,-1.0484198,-4.317322083,-9.981543274,10.92564232
66.78501171,-1.195264435,-4.441264343,-6.673422546,8.104816748
66.79509371,-0.2707868958,-6.144572296,-4.639152832,7.703949198
66.80517671,1.133442993,-8.370593262,-5.999972992,10.36104244
66.81525871,1.308578796,-9.826765137,-6.450236664,11.82722472
66.82534071,0.9226812744,-11.08549759,-5.252128143,12.30140023
66.83542371,0.3300636292,-12.56202713,-3.11592041,12.94690803
66.84550571,-0.352666626,-13.62272141,-0.8548722839,13.65407334
66.85558771,-0.8181985474,-13.80668884,0.8716374207,13.85834974
66.86567071,-0.7804769897,-13.20808365,2.344125366,13.43717015
66.87575271,-0.6978488159,-11.99530563,3.205583954,12.43584009
66.88583471,-0.1817221069,-10.40830582,2.620750122,10.73471863
66.89591771,1.068927155,-8.757538605,1.027762756,8.882194771
66.90599971,2.235002289,-7.476652222,-0.8803193665,7.853058376
66.91608171,3.12879364,-6.631060638,-2.875071259,7.875680896
66.92616471,3.347788239,-6.382277985,-3.182980957,7.878611942
66.93624671,2.737058258,-6.931485901,-1.184337158,7.545835885
66.94632871,2.058968353,-7.966284027,0.5346881104,8.245418319
66.95641171,1.570833435,-8.587641907,1.32923584,8.830740576
66.96649371,0.918639679,-8.806786194,1.200952606,8.935640385
66.97657571,0.652792511,-8.689729614,1.279239807,8.807609966
66.98665871,0.4171824646,-8.324339447,1.79491745,8.525866354
66.99674071,0.3941304016,-8.038583679,1.681902466,8.222102058
67.00682271,0.3959266663,-7.991282043,0.6834786987,8.030223518
67.01690571,0.1859133911,-8.071814575,-1.16188385,8.15712746
67.02698771,-0.08711883545,-8.100105743,-2.906655579,8.606273839
67.03706971,-0.2110610962,-8.039481812,-3.46933548,8.758658759
67.04715271,-0.09954299927,-8.313112793,-2.079775085,8.569901839
67.05723471,0.2549198914,-9.194929047,0.3381468201,9.204675312
67.06731671,0.8644523621,-9.992769928,2.437680817,10.32206455
67.07739971,1.322050781,-10.56877213,3.564387817,11.23172396
67.08748171,1.472188568,-10.93625793,3.83203125,11.68133298
67.09756371,0.9457333374,-11.54998169,3.515888672,12.11024202
67.10764671,-0.07963439941,-12.31204697,2.592458954,12.58227665
67.11772783,-1.363065491,-12.88505539,1.559906158,13.05051367
67.12781083,-2.761906586,-13.19296509,1.416204987,13.55315802
67.13789283,-3.638783112,-13.48635498,2.329156494,14.16147885
67.14797483,-4.005969543,-13.51704117,3.726201324,14.58227589
67.15805783,-3.421884155,-12.96439041,4.646786957,14.19074836
67.16813983,-2.318079529,-12.16041229,4.393214264,13.13580798
67.17822183,-1.577569427,-12.12269073,3.912114716,12.83561442
67.18830483,-1.281784515,-12.16011292,3.75943222,12.7923668
67.19838683,-0.9123527527,-12.06640778,5.190306702,13.1669992
67.20846883,-0.8595126343,-12.33375183,7.111262054,14.26289747
67.21855183,-0.6165678406,-13.0812973,5.371430054,14.15460193
67.22863383,0.008981323242,-14.8224765,-0.5539979553,14.83282859
67.23871583,0.02634521484,-17.73781403,-9.490115204,20.11698355
67.24879883,1.191522217,-20.49972061,-13.08803329,24.350665
67.25888083,3.937561798,-20.00305344,-9.352401581,22.42975602
67.26896283,7.222630463,-19.13306259,-2.877466278,20.65236759
67.27904583,9.372010803,-17.71521103,3.04811142,20.27200709
67.28912783,8.409512329,-15.61956894,5.69011734,18.6297683
67.29920983,7.680977325,-14.40963501,4.408482513,16.91359547
67.30929283,7.351063385,-12.74315048,1.059945831,14.74955939
67.31937483,5.469925232,-10.95182556,-0.9301657104,12.27712399
67.32945683,2.719544678,-9.812095642,-1.174906769,10.24956341
67.33953983,0.5760021973,-8.823251953,-2.112407227,9.090864527
67.34962183,-0.9846524048,-7.577093353,-1.471739502,7.78125319
67.35970383,-2.059417419,-6.51849472,-1.140478363,6.930560181
67.36978683,-2.141446838,-6.313720551,-1.043180695,6.748117346
67.37986883,-1.106499023,-6.626569977,-1.280736694,6.83930232
67.38995083,-0.05508544922,-6.922953644,-1.804048462,7.154363173
67.40003383,0.5902226257,-7.093149719,-1.814376984,7.345277362
67.41011583,0.7647596741,-7.050638123,-1.873653717,7.335320957
67.42019783,0.9584568787,-6.849755859,-2.214644623,7.262399447
67.43028083,1.291963348,-6.294560394,-2.541265411,6.910042673
67.44036283,1.307530975,-5.32502655,-2.460882568,6.010115475
67.45044483,1.480720825,-4.35968399,-2.296524353,5.14523107
67.46052783,1.951940918,-3.477718048,-2.350412292,4.629150474
67.47060983,2.301164703,-2.631677399,-2.557880859,4.331724762
67.48069183,2.455044708,-1.81482605,-2.839295654,4.169225099
67.49077483,2.309247894,-1.176703033,-3.014581146,3.975544661
67.50085683,2.334694977,-0.8839118958,-2.591261444,3.59815741
67.51093983,2.476300507,-0.8497828674,-1.764830017,3.157343838
67.52102183,2.910397797,-0.9662406921,-0.8425978088,3.180252738
67.53110383,3.268602905,-1.397344208,-0.01122665405,3.554780137
67.54118683,3.597169647,-2.74858429,0.6542893982,4.574105342
67.55126883,3.896846466,-5.045857086,1.589394836,6.570560255
67.56135083,4.0941362,-8.368347931,3.171903992,9.841350174
67.57143383,3.809727631,-12.79344589,6.933282166,15.04183114
67.58151583,2.484982452,-17.93959442,14.82277588,23.40339442
67.59159783,1.790875854,-24.28025894,24.15841232,34.29820836
67.60168083,3.235821075,-32.10314117,30.95667526,44.71462797
67.61176283,1.668729858,-34.4279567,24.84278915,42.48803402
67.62184483,-1.297801208,-23.53585693,8.306526489,24.99238348
67.63192783,-2.375709686,-12.60423935,3.150199127,13.20736918
67.64200983,-4.373006287,-5.433999939,3.315156097,7.722810322
67.65209183,-5.743107147,-0.6201603699,3.1253508,6.567777113
67.66217483,-3.873045959,0.1573228455,-1.197809143,4.057090364
67.67225683,0.5233117676,-5.313650208,-8.60126358,10.12375765
67.68233883,4.622687073,-11.75535461,-13.63349899,18.58574434
67.69242183,9.153465271,-15.37782166,-13.57452164,22.46176669
67.70250383,11.16153946,-15.85862183,-8.665180664,21.24055567
67.71258583,9.193581848,-13.82689682,-2.515069885,16.79376668
67.72266883,2.686014404,-10.98550552,13.66762802,17.7397875
67.73275083,-2.027533722,-7.647147675,11.52767807,13.98131332
67.74283283,0.04146377563,-4.501439209,-4.832550659,6.604409139
67.75291583,-0.7747888184,-3.23177948,-7.360344086,8.075850505
67.76299783,-1.850451965,-3.918102264,-4.304149475,6.107487252
67.77307983,-1.17595459,-6.857988739,-4.306394806,8.182903822
67.78316283,0.8610095215,-10.89913513,-6.675967255,12.81019215
67.79324483,1.30109436,-12.97352142,-6.969207458,14.78428075
67.80332683,0.8765771484,-13.46779358,-5.733826447,14.66378591
67.81340983,0.9544152832,-13.66193985,-3.872147827,14.23211291
67.82349183,1.640887756,-13.52108276,-1.823507996,13.74181113
67.83357383,2.802621918,-12.64196091,0.5312452698,12.95978729
67.84365683,3.459605713,-11.45867157,3.430117035,12.45133441
67.85373883,3.593577118,-10.32597702,5.356910248,12.17522424
67.86382083,3.52666626,-9.319170685,5.327571259,11.29899698
67.87390383,3.349434814,-8.491392059,3.197051697,9.671793641
67.88398583,3.38266571,-7.325316925,0.4950205994,8.083794948
67.89406783,2.744093628,-6.824458466,-1.710043945,7.551657665
67.90415083,0.9530680847,-6.85080368,-2.553390198,7.373035423
67.91423283,0.08771759033,-7.079528046,-3.032394104,7.702131246
67.92431583,-0.2692900085,-7.56347168,-2.252665558,7.896399374
67.93439783,-0.3463796997,-8.075257416,-0.7005432129,8.112984779
67.94447983,0.03936813354,-8.233777771,0.457149353,8.24655272
67.95456283,0.3691323853,-8.245154114,1.150657196,8.33323689
67.96464483,0.6673123169,-8.375383301,1.573827209,8.548057279
67.97472683,0.8884025574,-8.553213501,1.797761536,8.785138976
67.98480983,0.8075706482,-8.583450623,1.740430756,8.79527681
67.99489183,0.5177732849,-8.399183807,1.09632019,8.486241557
68.00497383,0.3218307495,-8.238268433,0.1531315613,8.245974234
68.01505683,0.03921844482,-8.201445007,-0.8231382751,8.242741954
68.02513883,0.06855743408,-8.333769836,-1.292113037,8.433621755
68.03522083,0.633482666,-8.79316452,-0.7930508423,8.851551966
68.04530383,1.222657471,-9.629625092,0.4198768616,9.716010872
68.05538583,2.06046524,-10.38929535,2.398761749,10.8598818
68.06546783,2.113005981,-10.77384567,4.027674408,11.69455882
68.07555083,1.066232758,-11.15674942,4.322860565,12.01237002
68.08563283,0.008083190918,-11.8882782,3.499422913,12.39262622
68.09571483,-1.20050354,-13.03324722,2.160457306,13.26553119
68.10579783,-2.69125351,-13.72181534,0.8729846191,14.01046622
68.11587983,-3.744912415,-13.73738297,0.7303312683,14.2573996
68.12596171,-3.804488525,-13.4993779,2.08396637,14.17921903
68.13604471,-2.569706268,-12.99073563,4.135450287,13.87315939
68.14612671,-1.117276611,-12.17867432,5.59536438,13.44903408
68.15620871,-0.850531311,-11.57557846,5.736820221,12.94714356
68.16629171,-0.9457333374,-11.70954987,5.32158371,12.89679118
68.17637371,-0.9285191345,-11.7077536,5.325475616,12.89551599
68.18645571,-1.263522491,-11.66778671,5.064268799,12.7820403
68.19653871,-0.6466552734,-12.29992218,4.559069366,13.1335967
68.20662071,-0.02724334717,-14.08960052,3.323987732,14.47641114
68.21670271,-0.08577163696,-16.60975983,-2.262095947,16.76330983
68.22678571,-0.9943821716,-19.73780502,-7.966134338,21.30795718
68.23686771,-0.4643344116,-20.85508163,-10.24364822,23.23967223
68.24695071,1.841171265,-18.71258698,-9.75506424,21.18282562
68.25703271,3.082689514,-16.31517242,-6.895410919,17.97872403
68.26711471,3.359014893,-14.21444092,-2.498005371,14.81800737
68.27719771,3.964805145,-13.23203384,1.809137878,13.93123754
68.28727971,4.903952179,-13.14805847,4.597689056,14.76681866
68.29736171,4.404740295,-12.07494003,4.215982819,13.52702573
68.30744471,2.958298187,-10.5597908,1.623972931,11.08593695
68.31752671,1.301992493,-9.668544159,-0.722996521,9.782568915
68.32760871,-0.3908372498,-8.775201874,-1.784139862,8.963262616
68.33769171,-1.095422058,-8.104147339,-1.926194458,8.401629524
68.34777371,-1.216969299,-7.717201996,-1.675166473,7.990144156
68.35785571,-0.639919281,-7.739206238,-1.387015686,7.888512052
68.36793871,0.3288661194,-8.129444733,-1.571881256,8.286545436
68.37802071,1.088835754,-8.486003265,-1.967508545,8.778889713
68.38810271,1.260079651,-8.491392059,-2.114802246,8.841036612
68.39818571,1.370699615,-8.096662903,-1.737287292,8.393624648
68.40826771,1.504221954,-7.263794861,-1.679657135,7.605698361
68.41834971,1.595681763,-6.122268677,-1.89431076,6.604300667
68.42843271,1.428479462,-4.984035645,-2.051932983,5.575983666
68.43851471,1.526375885,-4.211492157,-2.286495209,5.029368735
68.44859671,1.895208893,-3.752247162,-2.54021759,4.911606755
68.45867971,2.20087326,-3.504063263,-2.613864441,4.89434263
68.46876171,2.72867569,-3.28671524,-2.67478775,5.04010492
68.47884371,2.969824219,-2.947370911,-2.55084549,4.900373852
68.48892671,3.235521698,-2.828667755,-2.050585785,4.761813099
68.49900871,3.720064087,-2.838397522,-1.282083893,4.85171273
68.50909071,4.266577606,-2.889740753,-0.2893482971,5.161202237
68.51917371,4.880600739,-3.113076324,0.6638694763,5.82685425
68.52925571,5.397775269,-3.935466156,1.589544525,6.86662388
68.53933871,5.76271637,-5.730233917,2.781964874,8.589750245
68.54942071,5.337750092,-8.709488525,4.61011322,11.20713658
68.55950271,4.236490173,-12.25770996,8.049960022,15.26437548
68.56958571,3.164120178,-16.04333771,12.89732986,20.82646055
68.57966771,2.355052643,-20.0035025,18.46185837,27.32263896
68.58974971,1.162332916,-24.3365419,25.92593674,35.57769646
68.59983271,-1.995949402,-26.54699524,22.76675629,35.02930148
68.60991471,-5.147046661,-21.98238739,9.817634125,24.61916701
68.61999671,-7.4172258,-14.67952377,3.92214386,16.90818941
68.63007971,-8.660240936,-7.803123322,5.922583923,13.07537789
68.64016171,-9.671837311,-3.601360931,5.72289917,11.8010937
68.65024371,-9.592053223,-3.299438782,-2.98838562,10.57469763
68.66032671,-5.806275787,-6.057303772,-10.23062531,13.2313817
68.67040871,0.9443861389,-9.859696655,-14.04678955,17.18772178
68.68049071,7.833210754,-12.80736694,-14.00831955,20.53340827
68.69057371,11.52273834,-14.00323013,-10.18631744,20.79963981
68.70065571,12.78476395,-13.72480911,-5.556894379,19.56271069
68.71073771,12.91244843,-13.50551514,2.698887634,18.87893688
68.72082071,10.32867142,-16.37190445,33.16084167,38.39742347
68.73090271,6.929090881,-10.35965698,8.634344788,15.16201514
68.74098471,4.152065735,-3.861968994,-8.281378784,10.03671704
68.75106771,-0.9060658264,-0.9865983582,-8.881630554,8.982076202
68.76114971,-3.018173676,-1.416654053,-5.179678802,6.159979995
68.77123171,-1.009949799,-3.261866913,-4.75171875,5.851376371
68.78131471,0.5324427795,-6.550079041,-6.126160583,8.984257022
68.79139671,-0.01077758789,-10.18586838,-7.84773056,12.8584177
68.80147871,-0.5578898621,-13.49773132,-8.39424408,15.90482083
68.81156171,-0.8078700256,-15.60205536,-7.153773651,17.18293522
68.82164371,-0.5779481506,-16.40124344,-4.246818695,16.95199928
68.83172671,-0.2558180237,-15.41150162,-1.323697357,15.47035874
68.84180871,0.6111790466,-13.29999252,1.942061462,13.45492266
68.85189071,1.566342773,-11.15405502,5.701493683,12.62431794
68.86197371,2.383044434,-9.355545044,7.501799927,12.22628832
68.87205571,3.20603302,-7.623496857,5.687422943,10.03708781
68.88213771,3.701203308,-5.951773224,1.364263,7.140288788
68.89222071,2.953508148,-5.622008972,-2.793790283,6.937972284
68.90230271,1.967358856,-6.587351532,-3.969146118,7.938376533
68.91238471,1.822310486,-7.766000519,-2.888692932,8.483874493
68.92246771,1.394051056,-8.641230469,-0.7813751221,8.78776362
68.93254971,0.7286846924,-8.870104523,0.6333329773,8.922491036
68.94263171,0.8292755127,-8.845256195,1.30229187,8.978987646
68.95271471,0.7741900635,-8.688831482,2.073488159,8.966298898
68.96279671,0.4522096252,-8.50067276,2.28634552,8.814380679
68.97287871,0.3936813354,-8.404123535,1.758393402,8.595127966
68.98296171,0.5304968262,-8.319549408,0.5057981873,8.351775921
68.99304371,0.4782554626,-8.265960846,-1.152752838,8.359645692
69.00312571,0.7289840698,-8.162226562,-2.525697784,8.575109884
69.01320871,0.8919950867,-8.152945862,-3.198847961,8.803340828
69.02329071,0.8797206116,-8.468190308,-2.717748413,8.937019183
69.03337271,1.121318207,-8.842561798,-1.127156067,8.984360549
69.04345571,1.41575592,-9.472601624,0.4342469788,9.587654394
69.05353771,1.821262665,-10.54048096,1.604812775,10.81638389
69.06361971,2.260149994,-11.44175674,2.668500824,11.96423721
69.07370271,2.05582489,-11.9188147,3.094963989,12.4845249
69.08378471,1.244062958,-11.98003738,3.039279785,12.42200507
69.09386671,0.03517684937,-12.08781326,2.142045593,12.2761894
69.10394971,-1.329984283,-12.3500679,0.7683522034,12.44521597
69.11403171,-2.758912811,-12.77727951,0.3367996216,13.07608143
69.1241155,-3.757785645,-13.37887848,0.9523196411,13.92918716
69.1341975,-3.869603119,-13.8179155,2.30745163,14.5338553
69.1442795,-2.694995728,-13.45447128,3.831731873,14.24668272
69.1543625,-1.475781097,-12.68102966,4.901108093,13.67506138
69.1644445,-1.381477203,-11.88782913,4.515659637,12.79140894
69.1745265,-2.201771393,-11.34820129,2.783312073,11.89017645
69.1846095,-2.627186737,-11.57303375,2.487826538,12.1254485
69.1946915,-2.444416809,-11.34850067,3.35108139,12.08277234
69.2047735,-2.368075562,-11.31976044,4.033212891,12.24792082
69.2148565,-1.032403107,-12.92142975,4.146227875,13.60957047
69.2249385,0.509690094,-15.14969604,0.2541714478,15.16039832
69.2350205,0.6882687378,-17.16540436,-7.147636414,18.60681399
69.2451035,0.8084687805,-18.4840123,-10.34528687,21.19757752
69.2551855,2.406395874,-17.97956131,-8.468938751,20.01944778
69.2652675,4.921615448,-16.94521225,-4.188739471,18.13582243
69.2753505,6.841073914,-15.99992798,0.9334588623,17.42611067
69.2854325,6.999145203,-15.0202153,4.489314423,17.16825108
69.2955145,7.20302124,-14.28838715,4.720733185,16.68313052
69.3055975,6.70111496,-12.83969971,1.387315063,14.54948361
69.3156795,4.864584045,-11.39116196,-1.76677597,12.5117643
69.3257615,2.169438629,-10.49692154,-2.615660706,11.03329084
69.3358445,-0.3251239014,-9.82526825,-2.215991821,10.07731221
69.3459265,-1.802102509,-9.222172394,-1.048868866,9.454954416
69.3560085,-1.945204926,-8.445437622,-0.5310955811,8.682816441
69.3660915,-1.803300018,-7.90625885,-0.3977229309,8.119051884
69.3761735,-0.9598040771,-7.892337799,-0.813558197,7.992002048
69.3862565,0.1011895752,-7.782615967,-1.292262726,7.889822151
69.3963385,0.326920166,-7.551346893,-1.632505188,7.732709091
69.4064205,0.2650987244,-7.305408325,-1.894909515,7.551817675
69.4165035,0.5117857361,-6.689738617,-2.244432678,7.074744197
69.4265855,0.8849597168,-5.911956024,-2.837798767,6.617210861
69.4366675,1.025068359,-5.180427246,-2.840792542,5.996473452
69.4467505,1.22160965,-4.560416565,-2.623444519,5.401128635
69.4568325,1.600920868,-4.054917755,-2.443368988,4.997535156
69.4669145,1.872905273,-3.426674194,-2.410587158,4.589204794
69.4769975,2.333796844,-2.829116821,-2.499801636,4.438413897
69.4870795,2.820434875,-2.146835632,-2.581381989,4.384893281
69.4971615,3.035687256,-1.556014252,-2.15761322,4.036319149
69.5072445,3.507506104,-1.284628601,-1.442250824,4.004117524
69.5173265,4.165238342,-1.301393738,-0.5390290833,4.396974922
69.5274085,4.783452759,-1.618883514,0.3326083374,5.060912214
69.5374915,5.1717453,-2.534679108,0.8776249695,5.82595685
69.5475735,5.2513797,-4.312382355,1.548679504,6.969364285
69.5576555,5.05004837,-7.264243927,3.192261658,9.405464522
69.5677385,4.438270569,-10.93955109,6.577771454,13.51440346
69.5778205,3.576512604,-14.98279312,12.36578522,19.75318142
69.5879025,2.806364136,-19.6770314,19.04699158,27.52905978
69.5979855,2.823877716,-25.35622147,25.66996902,36.19198201
69.6080675,0.37676651,-30.35941727,25.88177856,39.89614808
69.6181505,-3.253035278,-26.62767746,13.1317424,29.86734176
69.6282325,-5.435945892,-16.75465851,5.117108917,18.34265229
69.6383145,-5.596711578,-8.976233826,4.517605591,11.50237864
69.6483975,-5.656587067,-3.839665375,5.645959167,8.866615045
69.6584795,-4.619244232,-2.504292297,1.894011383,5.585353732
69.6685615,-2.370171204,-5.782475281,-5.443580017,8.287779878
69.6786445,1.825154572,-11.50926636,-13.03564224,17.48491836
69.6887265,6.473288727,-14.90315872,-17.53318954,23.90440006
69.6988085,8.762029266,-14.17686905,-13.85414017,21.67242425
69.7088915,9.051676941,-11.44819336,-8.215515747,16.74779644
69.7189735,9.50104248,-9.250164185,-2.609822845,13.51467798
69.7290555,9.341324615,-11.67512146,31.37266022,34.7535986
69.7391385,8.854536896,-8.844208374,13.05016205,18.08119396
69.7492205,4.567302246,-3.89055954,-5.17414032,7.922653052
69.7593025,-1.561552734,-2.349813538,-10.04650818,10.435152
69.7693855,-3.333867188,-3.75134903,-6.195765839,7.973380983
69.7794675,-0.7866142273,-6.332731018,-5.27353363,8.278429866
69.7895495,0.3197351074,-8.396040344,-7.592211914,11.32419559
69.7996325,0.4456233215,-10.10443771,-7.654632111,12.68430662
69.8097145,0.4053570557,-12.00398758,-6.110592957,13.47588136
69.8197975,0.5891748047,-13.98541718,-3.451672211,14.41711003
69.8298795,0.03173400879,-15.16930527,-0.9340576172,15.19806873
69.8399615,-0.7644602966,-14.90839783,0.7929011536,14.94902731
69.8500445,-0.8502319336,-13.4396521,2.418820038,13.68202592
69.8601265,-0.5031037903,-11.43921204,3.294798431,11.9148807
69.8702085,0.3353027344,-9.54669754,2.763553162,9.944299268
69.8802915,1.604962463,-7.701185303,1.084494781,7.941050844
69.8903735,3.082988892,-6.562802582,0.02724334717,7.250926867
69.9004555,3.652554474,-6.144572296,-1.179846497,7.244926545
69.9105385,3.370241547,-6.093079376,-1.922901306,7.223689764
69.9206205,2.889441376,-6.784790955,-1.134191437,7.461142672
69.9307025,2.397115173,-7.891289978,-0.5839356995,8.267986428
69.9407855,1.948348389,-8.512049103,0.1477427673,8.733433992
69.9508675,1.217717743,-8.709338837,0.6563850403,8.818518061
69.9609495,0.5818400574,-8.574319611,0.8391549683,8.634910289
69.9710325,0.033230896,-8.293802948,0.5935157776,8.315078629
69.9811145,-0.3968247986,-8.011340332,-0.2856060791,8.026245366
69.9911965,-0.5525010681,-7.628735962,-1.464704132,7.787697221
