Time (s),Acceleration x (m/s^2),Acceleration y (m/s^2),Acceleration z (m/s^2),Absolute acceleration (m/s^2)
60.00485171,0.9939331055,0.1206491089,-2.478096771,2.672718248
60.01493371,1.867366791,-0.09056167603,-2.038011932,2.765637862
60.02501671,2.585722961,-0.3128494263,-1.446591797,2.97933983
60.03509871,3.138673096,-0.9723779297,-0.620609436,3.343941344
60.04518071,3.583697662,-2.139800262,0.1930984497,4.178387381
60.05526271,3.643573151,-3.958967285,0.8818162537,5.452214887
60.06534471,3.325933685,-6.442752228,2.494861908,7.667804581
60.07542671,2.209255829,-9.962832184,6.316864014,12.00173352
60.08550871,0.7914042664,-14.69658829,11.19581818,18.49222465
60.09559071,-0.3697311401,-21.3028006,18.4600621,28.19077699
60.10567271,-1.714085541,-31.48552551,33.66289764,46.12447381
60.11575471,-4.942571869,-38.61190613,24.65118759,46.07590869
60.12583671,-5.938600616,-31.84837097,7.685917053,33.29653183
60.13591971,-4.600383453,-17.06451416,2.863096161,17.90414731
60.14600171,-3.180136871,-7.702532501,1.463656311,8.460766351
60.15608371,-1.725012817,-2.260149994,0.798589325,2.953251111
60.16616571,0.1422042847,0.5312452698,-0.6613247681,0.8601128089
60.17624771,2.064955902,0.2152523804,-4.379742279,4.846908179
60.18632971,6.052364044,-4.715045013,-9.688452759,12.35835251
60.19641171,10.11207184,-10.7973468,-14.49585571,20.71150713
60.20649371,12.6022934,-14.34107758,-15.17214935,24.38602921
60.21657571,12.07419159,-14.43328583,-8.458161163,20.63119804
60.22665771,9.056616669,-15.34518951,15.5523587,23.6510678
60.23674071,0.7445516968,-17.63767227,32.15942413,36.68610638
60.24682271,0.6483018494,-13.4980307,0.06212081909,13.51373328
60.25690471,-0.3448828125,-7.003635864,-8.795110474,11.2482811
60.26698671,-1.623523865,-3.729943542,-8.699309692,9.603452384
60.27706871,-0.2303709412,-3.057092743,-8.866661682,9.381714992
60.28715071,2.378404083,-4.408332825,-7.56811203,9.075600475
60.29723271,4.208947449,-6.183042297,-6.915319519,10.18660369
60.30731471,4.716392212,-8.259075165,-6.049220581,11.27163465
60.31739671,3.079396362,-10.269245,-4.520749054,11.63517283
60.32747871,1.171613617,-11.42678787,-2.713856506,11.80293085
60.33756192,0.1992356873,-12.50634293,-0.2148033142,12.50977413
60.34764392,-0.3170407104,-13.25807968,2.699935455,13.53391455
60.35772592,-0.3300636292,-13.22230408,4.173171844,13.86916113
60.36780792,0.1398092651,-12.30321533,3.276087341,12.73269031
60.37788992,0.4243675232,-10.95466965,1.432521057,11.05608391
60.38797192,0.58737854,-9.22381897,-0.3085084534,9.247649831
60.39805392,1.026565247,-7.63247818,-1.572330322,7.860075191
60.40813592,1.67322052,-7.109166412,-2.176923065,7.62095191
60.41821792,2.401306458,-6.934779053,-1.790875854,7.554116066
60.42829992,1.886826324,-7.011569366,-1.536255341,7.421745013
60.43838192,1.403780823,-7.346423035,-1.32803833,7.596329233
60.44846492,1.176253967,-7.889194336,-0.996328125,8.038384813
60.45854692,0.9738748169,-8.242010651,-0.5706134033,8.31894052
60.46862892,0.6348298645,-8.206833801,0.1181044006,8.23219768
60.47871092,0.2784210205,-8.069269867,0.5435197449,8.092345035
60.48879292,0.1908531189,-7.856861572,0.839304657,7.903868103
60.49887492,0.4219725037,-7.813451843,0.9583071899,7.88330154
60.50895692,1.00036972,-7.762857056,0.5860313416,7.848956745
60.51903892,1.714833984,-7.843539276,-0.2115101624,8.031593897
60.52912092,2.428998871,-8.194409637,-0.7746391296,8.581867547
60.53920292,2.625989227,-9.051976318,-0.6054908752,9.444612956
60.54928592,2.223476257,-10.31280441,0.3707789612,10.55629
60.55936792,1.48595993,-11.64518372,1.365161133,11.8187159
60.56944992,0.5855822754,-12.65618134,1.849703522,12.80403201
60.57953192,-0.2246827698,-12.90167084,1.873504028,13.03892672
60.58961392,-1.059496765,-12.60528717,1.40288269,12.72728871
60.59969592,-1.949246521,-12.53508316,0.4074526978,12.69227677
60.60977792,-3.176993408,-12.84254379,-0.5221142578,13.2399706
60.61985992,-4.626279602,-13.19865326,-0.3275189209,13.9897884
60.62994192,-5.845494232,-13.35657486,0.9900411987,14.61328424
60.64002492,-5.923631744,-13.26855789,2.758164368,14.79025058
60.65010692,-4.38782547,-13.38022568,4.108656006,14.66848682
60.66018892,-2.368075562,-13.73019791,4.230951691,14.56114929
60.67027092,-1.864522705,-13.66807709,3.259322205,14.17448262
60.68035292,-2.790497131,-12.78925461,2.268682251,13.2852861
60.69043492,-3.697760468,-11.76313843,2.288291473,12.54117762
60.70051692,-3.775299225,-11.24371857,3.57456665,12.38755901
60.71059892,-2.641556854,-12.66321671,4.773573303,13.78846917
60.72068092,-0.8669970703,-14.97321304,2.437830505,15.19512456
60.73076292,1.114881592,-16.43567184,-3.134781189,16.76905254
60.74084492,3.322640533,-17.50669464,-8.156987457,19.59746774
60.75092792,6.736291809,-18.75509857,-8.109685822,21.51507271
60.76100992,10.27837601,-18.60196701,-4.308789825,21.68510687
60.77109192,10.55829391,-16.57518173,1.394649811,19.70175799
60.78117392,9.191486206,-14.74972778,6.39919281,18.51992324
60.79125592,8.860075378,-13.59532837,7.18431015,17.74678003
60.80133792,8.838370514,-12.32701584,3.140020294,15.48973338
60.81141992,7.565866699,-11.42574005,-0.9803114319,13.73866388
60.82150192,3.342249756,-10.6912175,-2.602637787,11.49984732
60.83158392,-0.3059637451,-9.926308136,-2.148781586,10.16083015
60.84166592,-2.240241394,-9.50223999,-1.437011719,9.867940465
60.85174892,-2.023192749,-9.035660248,-0.7363188171,9.288629092
60.86183092,-0.226179657,-8.121062164,-0.5242098999,8.141105818
60.87191292,1.636696472,-7.441924438,-0.9765692139,7.682102715
60.88199492,2.709665222,-6.800358582,-1.489702148,7.470366453
60.89207692,3.798500977,-6.082451477,-1.494791565,7.325245898
60.90215892,3.798650665,-5.430108032,-1.403631134,6.773920614
60.91224092,2.950813751,-4.7563591,-1.844464417,5.893411802
60.92232292,2.005379791,-4.265529785,-1.906734924,5.084479376
60.93240492,0.9840536499,-3.604205017,-1.592388611,4.061324523
60.94248692,-0.09654922485,-3.183430023,-1.334924011,3.453341944
60.95256992,-0.4046086121,-2.618804169,-1.392105103,2.993292505
60.96265192,-0.2233355713,-1.736538849,-1.686243439,2.430815272
60.97273392,0.03098556519,-0.6568341064,-1.751358032,1.870734109
60.98281592,0.6735992432,0.08337661743,-1.694027252,1.82494272
60.99289792,1.385518799,-0.05478607178,-1.537153473,2.070146047
61.00297992,1.964065704,-0.7322772217,-1.293460236,2.463092244
61.01306192,2.438878326,-1.370400238,-0.9183403015,2.944396918
61.02314392,2.774779816,-2.029928741,-0.3062631226,3.45163886
61.03322592,3.022215271,-3.301085358,0.7003935242,4.53006631
61.04330792,3.089575195,-5.270390167,1.752555542,6.355622576
61.05339092,2.650837555,-8.174501038,4.132905579,9.535738853
61.06347292,2.055226135,-12.8543692,8.875193939,15.75524768
61.07355492,0.0715512085,-19.36103851,16.12551682,25.19696856
61.08363692,-4.012106781,-29.27147964,29.67713608,41.87659164
61.09371892,-7.614066467,-38.25729355,26.51451279,47.1658129
61.10380092,-8.397387543,-34.37556564,11.04732697,37.07073056
61.11388292,-6.575376434,-19.40699295,6.121669922,21.38555104
61.12396492,-3.896547089,-8.989556122,4.79497879,10.90811716
61.13404692,-1.140029297,-3.149450684,2.057172089,3.93073319
61.14412892,3.039279785,-0.5704637146,-1.86048111,3.608883542
61.15421192,7.79983017,-2.374362488,-6.004164276,10.12545982
61.16429392,12.28210922,-7.383845215,-9.995913391,17.47254022
61.17437592,15.36375092,-12.81829422,-13.16272797,23.95017571
61.18445792,14.93893433,-13.74337051,-12.21295303,23.68983355
61.19453992,13.18727692,-11.86028641,-2.216590576,17.87411368
61.20462192,6.637796631,-11.48337021,19.77492783,23.81125587
61.21470392,-1.276096344,-11.8113382,14.11699356,18.45062706
61.22478592,-2.221679993,-9.800419922,-1.207389221,10.12135768
61.23486792,-1.890119476,-5.73113205,-4.151616669,7.324912775
61.24494992,-0.1413061523,-4.461622009,-7.372019806,8.618161892
61.25503292,2.929707642,-5.902076569,-9.46945816,11.53639166
61.26511492,4.949307861,-7.395970001,-9.114695892,12.73866954
61.27519692,5.052742767,-8.298592987,-7.576195221,12.32053526
61.28527892,3.470383301,-9.060658264,-5.343288574,11.07654374
61.29536092,0.9731263733,-10.31939072,-2.487527161,10.65948362
61.30544292,-1.116079102,-12.37356903,0.2192939758,12.42573672
61.31552492,-2.399510193,-14.278358,1.795516205,14.58948371
61.32560692,-3.455414429,-14.77816864,1.69193161,15.27078223
61.33568967,-3.986360321,-13.78258896,0.7351213074,14.36632278
61.34577167,-2.775528259,-11.83813248,0.02484832764,12.15917576
61.35585467,-0.9544152832,-9.803713074,0.06256988525,9.850259568
61.36593667,0.1637594604,-7.937543793,0.05643264771,7.939433435
61.37601867,1.046473846,-6.339616699,-0.8822653198,6.48569499
61.38610067,2.195484467,-5.86914505,-2.021396484,6.584304019
61.39618267,3.472029877,-6.365812225,-1.46260849,7.397146771
61.40626467,3.728446655,-7.076534271,-0.3568579102,8.006622217
61.41634667,3.205883331,-7.738607483,0.5113366699,8.391972289
61.42642867,1.919308777,-8.160729675,0.8265811157,8.424042459
61.43651067,0.615819397,-8.296197968,0.8372090149,8.361043785
61.44659267,-0.5077441406,-8.360115051,0.6191125488,8.398370564
61.45667567,-1.307680664,-8.3661026,0.4528083801,8.47978401
61.46675767,-1.530716858,-8.213420105,0.1288819885,8.355834757
61.47683967,-1.124910736,-8.048313446,-0.4646337891,8.139819288
61.48692167,-0.1848655701,-8.037236481,-0.9547146606,8.095852371
61.49700367,0.6697073364,-8.262518005,-0.8038284302,8.328496374
61.50708567,0.9081614685,-8.864266663,-0.01152603149,8.910674137
61.51716767,0.8818162537,-9.528435516,1.242865448,9.649528373
61.52724967,0.427660675,-10.28092072,1.960323486,10.47487912
61.53733167,-0.1360670471,-10.88162155,1.844314728,11.03764914
61.54741367,-0.5460644531,-11.34071686,1.588347015,11.4644185
61.55749667,-0.8315208435,-11.96596664,1.221010895,12.05680937
61.56757867,-1.212927704,-12.69060974,0.9839039612,12.78635352
61.57766067,-1.667831726,-12.97995804,0.9395960999,13.12035877
61.58774267,-2.301763458,-12.85182449,1.539997559,13.14682853
61.59782467,-3.121309204,-12.58657608,2.581082611,13.22219558
61.60790667,-3.834725647,-12.25815903,3.545227661,13.32427194
61.61798867,-4.280798035,-12.11221252,3.98067215,13.44903992
61.62807067,-4.352498932,-12.36099518,4.163891144,13.75050683
61.63815267,-4.146527252,-12.71426056,4.070635071,13.97913372
61.64823567,-3.997287598,-12.48179398,5.254523163,14.12032233
61.65831767,-4.174668732,-12.39287888,7.153324585,14.90574917
61.66839967,-4.371958466,-13.1224617,5.583389282,14.91600676
61.67848167,-3.75718689,-14.72487946,1.681303711,15.28938555
61.68856367,-2.420466614,-16.51141434,-3.544329529,17.06012116
61.69864567,-0.05897735596,-18.11038925,-8.855884094,20.15977084
61.70872767,2.736459503,-19.46222809,-11.03864502,22.54147769
61.71880967,5.944438477,-20.2636615,-8.161478119,22.63983329
61.72889167,8.959768066,-19.5018956,-1.829495544,21.53946215
61.73897367,9.004375305,-16.73460022,6.139183502,19.97035786
61.74905667,8.097111969,-14.79523315,8.701854401,18.97852514
61.75913867,8.363707581,-13.70445145,5.684878235,17.0317772
61.76922067,8.589737549,-12.70393204,2.035317535,15.46984156
61.77930267,7.042854309,-11.65895508,-0.1052311707,13.62145748
61.78938467,3.497626648,-10.31250504,-0.7198530579,10.91326444
61.79946667,0.6387217712,-8.965306549,-0.5432203674,9.004430875
61.80954867,-0.9563612366,-8.372539215,-1.226998444,8.515841996
61.81963067,-1.239572296,-8.020770721,-1.37833374,8.232199362
61.82971267,0.2514770508,-7.706424408,-1.267115021,7.813948959
61.83979467,2.298470306,-7.263495483,-1.21577179,7.71488389
61.84987767,3.391197968,-6.798712006,-1.401834869,7.725791195
61.85995967,3.410956879,-6.624923401,-1.585652618,7.618302378
61.87004167,2.627037048,-6.159840546,-1.714384918,6.91260261
61.88012367,2.036964111,-5.838458862,-1.656305695,6.40157584
61.89020567,1.054557037,-5.047503662,-1.772763519,5.45271256
61.90028767,0.1158590698,-4.118385773,-1.928140411,4.548873503
61.91036967,-0.3116519165,-3.37922287,-1.870659943,3.875002289
61.92045167,0.07484436035,-2.691552887,-2.09444458,3.411269078
61.93053367,0.9803114319,-1.71887558,-2.681673431,3.332704031
61.94061567,2.039059753,-0.8331674194,-3.152145081,3.84551053
61.95069867,2.751877441,-0.2332150269,-2.941832428,4.035046064
61.96078067,3.264710999,-0.2585124207,-2.344275055,4.027504452
61.97086267,3.675905914,-0.3104544067,-1.814676361,4.111169727
61.98094467,3.999832306,-0.8123606873,-1.037642212,4.211328736
61.99102667,4.315076752,-1.589843903,-0.1422042847,4.6008383
62.00110867,3.821253662,-3.157384186,1.066382446,5.070327994
62.01119067,3.200943604,-5.490282898,2.795137482,6.942768885
62.02127267,2.322121124,-8.980724487,6.164630585,11.13769855
62.03135467,1.766326904,-14.38598419,11.52648056,18.51853682
62.04143667,-0.7749385071,-21.45892593,19.06285858,28.71373555
62.05151967,-6.186784515,-31.72622498,34.83346344,47.52052008
62.06160167,-9.056167603,-38.22585892,22.08477448,45.06625928
62.07168367,-8.467292175,-30.65415436,4.727469177,32.15153466
62.08176567,-6.704408112,-15.5590947,3.354823608,17.27105548
62.09184767,-5.074447632,-5.874384155,4.938081207,9.200165976
62.10192967,-3.727099457,-1.069675598,4.063000946,5.616355841
62.11201167,-1.432371368,-0.5137316895,-0.2550695801,1.542941501
62.12209367,2.321372681,-3.812871094,-7.695497131,8.896484317
62.13217567,8.770411835,-9.688003693,-11.82525925,17.62425305
62.14225867,14.71125778,-14.50783081,-11.63994461,23.71469104
62.15234067,15.9625058,-15.32198776,-7.924221497,23.50230173
62.16242267,14.89821899,-14.59929062,10.30696655,23.26649469
62.17250467,5.589676208,-13.78408585,24.71525436,28.84595814
62.18258667,-0.8243357849,-11.01723953,1.00980011,11.09408819
62.19266867,-3.204236755,-7.29433136,-7.215295715,10.74871599
62.20275067,-4.129462738,-4.558470612,-5.766907654,8.431449502
62.21283267,-2.100581818,-4.406087494,-7.456144867,8.911798205
62.22291467,2.486629028,-6.908433838,-10.4204306,12.74735878
62.23299667,5.123545532,-9.004824371,-10.40441391,14.68296324
62.24307967,5.492079163,-9.706565094,-8.592731323,14.07889808
62.25316167,4.853806458,-9.823022919,-5.95806015,12.47195643
62.26324367,3.876189423,-10.24289978,-3.171604614,11.40179443
62.27332567,2.593057709,-11.57887161,0.2290237427,11.86788389
62.28340767,0.9404942322,-12.82368301,3.531156921,13.33418331
62.29348967,-0.1916015625,-13.03249878,5.067412262,13.98432704
62.30357167,-0.2767744446,-12.21849152,4.25445282,12.9409624
62.31365367,0.5867797852,-10.65768723,2.376158752,10.9351149
62.32373567,1.360520782,-8.78268631,0.2902464294,8.892178507
62.33381721,2.031874695,-7.313641205,-1.45677063,7.729168333
62.34390021,2.597248993,-6.36177063,-3.027903442,7.509063
62.35398221,2.524051208,-5.87962326,-2.545905762,6.886395308
62.36406421,1.960024109,-6.422394562,-1.702559509,6.927305053
62.37414621,1.367406464,-7.648943939,-0.6960525513,7.801322515
62.38422821,0.329614563,-8.945996704,-0.002694396973,8.952067362
62.39431021,-0.5971083069,-9.497300262,0.7039860535,9.542056747
62.40439221,-1.665436707,-9.552984467,1.475182343,9.808636734
62.41447421,-2.231260071,-9.266480255,1.795366516,9.698944208
62.42455621,-1.888023834,-8.554710388,1.538949738,8.894721475
62.43463921,-1.555415497,-7.897427216,0.6686595154,8.076866938
62.44472121,-1.269210663,-7.443571014,-0.9699829102,7.613048798
62.45480321,-0.449664917,-7.378007355,-2.26059906,7.72965065
62.46488521,0.5453160095,-7.738457794,-2.424059143,8.127555679
62.47496721,0.7566764832,-8.811276855,-1.715582428,9.008572706
62.48504921,0.4834945679,-10.07824219,-0.5246589661,10.10346473
62.49513121,0.2906954956,-10.9699379,0.9407936096,11.01404258
62.50521321,0.2389031982,-11.36167328,2.626587982,11.6637755
62.51529521,0.3936813354,-11.60701309,4.081562347,12.31003205
62.52537721,0.5894741821,-12.04605011,3.90927063,12.67821754
62.53546021,0.506995697,-12.75422745,2.173031158,12.94795068
62.54554221,-0.6462062073,-12.98684372,0.6189628601,13.01763447
62.55562421,-2.490071869,-13.01483551,0.4695735168,13.25921946
62.56570621,-4.105512543,-13.06123901,1.516346741,13.77499565
62.57578821,-5.132227478,-12.98055679,2.92985733,14.26249198
62.58587021,-5.35780838,-12.59974869,4.365222473,14.37062785
62.59595221,-5.041067047,-12.28270798,4.732259216,14.09508955
62.60603421,-5.050497437,-12.71725433,3.916605377,14.23291537
62.61611621,-5.262905731,-13.0348938,3.536545715,14.4953023
62.62619921,-5.329816589,-12.90571243,4.131708069,14.56143433
62.63628121,-4.504283295,-13.12291077,4.925058289,14.72262049
62.64636321,-2.484832764,-14.27865738,4.502636719,15.17656706
62.65644521,-0.5783972168,-15.51598434,-0.3606001282,15.53094801
62.66652721,0.8198451233,-16.84941147,-8.416847076,18.85253637
62.67660921,3.190615082,-18.72096954,-12.24049576,22.5939032
62.68669121,6.249653778,-19.89497818,-9.093589783,22.74998251
62.69677321,8.934620361,-19.52569611,-3.164419556,21.70469536
62.70685521,8.976383514,-17.13501755,3.851041718,19.72345836
62.71693721,8.129444733,-14.89776993,7.18431015,18.42947999
62.72702021,8.093070374,-13.51180206,5.191953278,16.58381626
62.73710221,8.09232193,-12.02404587,0.9955796814,14.527716
62.74718421,6.625522156,-11.01559296,-1.549427948,12.94764685
62.75726621,2.920277252,-9.740544434,-1.57966507,10.29084869
62.76734821,-0.3544628906,-8.464298401,-0.698896637,8.500496919
62.77743021,-1.704056396,-8.019573212,-0.7479945374,8.232670194
62.78751221,-1.705253906,-7.776927795,-1.077459412,8.034265094
62.79759421,-0.619561615,-7.207811279,-1.178349609,7.329727678
62.80767621,1.175206146,-7.096143494,-1.3841716,7.324772555
62.81775921,2.368524628,-7.085365906,-1.41231308,7.603088002
62.82784121,3.1943573,-7.030280457,-1.501078491,7.866511202
62.83792321,3.151396637,-6.680607605,-1.750908966,7.591277952
62.84800521,2.677332458,-6.298302612,-1.931882629,7.111181012
62.85808721,2.311343536,-5.712271271,-2.043251038,6.492089557
62.86816921,1.674268341,-4.961582336,-1.953437805,5.588952766
62.87825121,0.9659413147,-3.948489075,-1.991159363,4.52640301
62.88833321,0.9163943481,-3.106789398,-2.08980423,3.854763376
62.89841521,1.451531525,-2.156565399,-2.502046967,3.608040619
62.90849721,2.012115784,-1.055155792,-2.991229706,3.756250634
62.91858021,2.431244202,-0.5679190063,-2.776127014,3.73367936
62.92866221,3.011886749,-0.4085005188,-2.075434113,3.680456659
62.93874421,3.331322479,-0.4170327759,-1.414558411,3.643158148
62.94882621,3.743714905,-1.033001862,-0.4781057739,3.912937422
62.95890821,4.301305389,-1.893113251,0.5352868652,4.72986658
62.96899021,4.262985077,-3.444636841,1.432371368,5.664825899
62.97907221,4.005969543,-5.427563324,2.938239899,7.357954153
62.98915421,3.236270142,-8.319998474,6.114933929,10.82073177
62.99923621,1.947899323,-12.51023483,10.95975906,16.74564439
63.00931921,0.5644761658,-18.09616882,16.06159973,24.20258138
63.01940121,-3.355422363,-27.29888168,32.10733246,42.27728229
63.02948321,-6.945706329,-36.50039703,27.45111511,46.1961637
63.03956521,-7.78575943,-34.93300644,8.04082901,36.6822562
63.04964721,-7.741152191,-21.24981079,3.940256195,22.95660068
63.05972921,-5.216951294,-9.969867554,4.644691315,12.17324925
63.06981121,-3.816313934,-4.096680908,3.415896606,6.558612364
63.07989321,-0.7640112305,-2.643802185,-0.2893482971,2.767151169
63.08997521,4.594545593,-5.464686127,-6.815028076,9.870017799
63.10005721,9.676777039,-10.07330246,-12.27477448,18.59520166
63.11014021,12.97157547,-12.56651779,-14.36742279,23.07817101
63.12022221,12.74464737,-10.63403641,-10.86036575,19.83573319
63.13030421,11.69218597,-8.363408203,0.3278182983,14.37919589
63.14038621,7.812853088,-9.439370728,22.45196091,25.57797767
63.15046821,2.385888519,-9.408983917,13.66942429,16.76527968
63.16055021,0.6200106812,-7.642357635,-2.415826263,8.039045964
63.17063221,-2.152074738,-6.576723633,-8.104446716,10.65677137
63.18071421,-1.098415833,-7.302414551,-10.64586182,12.95631697
63.19079621,2.631228333,-8.627459106,-10.69660629,13.99191907
63.20087921,3.678450623,-9.186546478,-9.059610443,13.41641445
63.21096121,2.969524841,-8.884175262,-7.690258026,12.11968302
63.22104321,2.104324036,-8.797804871,-6.046675873,10.88080141
63.23112521,1.301543427,-9.902208252,-3.262315979,10.50668592
63.24120721,0.2013313293,-11.94156738,-0.2832110596,11.94662188
63.25128921,-1.099763031,-13.4396521,1.912872162,13.61957441
63.26137121,-1.923050995,-13.61314133,2.678080902,14.00670765
63.27145321,-1.675465851,-12.40096207,1.899849243,12.65703256
63.28153521,-0.1746867371,-10.71471863,0.6953041077,10.73867583
63.29161721,0.7659571838,-8.935518494,-0.5267546082,8.983743739
63.30170021,0.8156538391,-7.089108124,-1.968256989,7.402349678
63.31178221,0.7875123596,-6.226302338,-2.714455261,6.83778355
63.32186421,1.849404144,-6.519991608,-2.525697784,7.232546962
63.33194621,2.66775238,-7.546107788,-1.480421448,8.139551165
63.34202804,2.681523743,-8.554710388,-0.1056802368,8.96575751
63.35211004,2.740650787,-8.811127167,0.8840615845,9.269773113
63.36219204,2.103575592,-8.949289856,1.08703949,9.257239008
63.37227404,1.132993927,-8.556057587,0.928818512,8.680581806
63.38235604,0.2830613708,-8.088430023,1.083746338,8.165618783
63.39243904,-0.4049079895,-7.963439941,0.9919871521,8.035195373
63.40252104,-0.613125,-8.058941345,0.137713623,8.083404166
63.41260304,-0.4007167053,-8.200995941,-1.038540344,8.27619927
63.42268504,0.1273851013,-8.365204468,-1.820364532,8.56192734
63.43276704,0.6111790466,-8.781339111,-1.723066864,8.969638556
63.44284904,0.543968811,-9.776619415,-0.8985813904,9.832885526
63.45293104,0.04595443726,-10.93640762,0.4558021545,10.94599832
63.46301304,-0.3962260437,-11.45912064,1.802850952,11.60683903
63.47309504,-0.6679110718,-11.23309067,2.855761414,11.60964273
63.48317804,-1.186881866,-10.88611221,3.165617065,11.39900255
63.49326004,-1.563348999,-11.24132355,2.236948242,11.5678586
63.50334204,-2.095941467,-12.14140182,1.04018692,12.36481289
63.51342404,-3.139571228,-12.53702911,0.6584806824,12.94092745
63.52350604,-4.277654572,-12.6022934,1.368304596,13.37865408
63.53358804,-5.115312653,-12.65453476,2.819686432,13.93751431
63.54367004,-4.995262299,-12.60393997,4.659660187,14.33612156
63.55375204,-3.883673859,-11.93587921,6.173162842,13.98771156
63.56383404,-2.612666931,-11.26018433,5.898184662,12.97714768
63.57391704,-1.85105072,-11.30808472,4.597689056,12.34657497
63.58399904,-2.262694702,-11.81238602,4.528383179,12.85140089
63.59408104,-3.032244415,-12.26444595,5.573509827,13.80851739
63.60416304,-2.846031647,-13.17215836,4.49664917,14.20653039
63.61424504,-1.96107193,-14.42924423,-0.7961943054,14.58364898
63.62432704,-1.191821594,-16.38642426,-7.517666931,18.0679455
63.63440904,0.8150550842,-18.7507576,-11.04133942,21.77536226
63.64449104,3.648512878,-19.94093262,-8.603808289,22.02221508
63.65457304,6.675518188,-20.18387741,-3.553310852,21.55405921
63.66465504,8.390501862,-18.82754791,1.778302002,20.68911404
63.67473804,8.482410736,-16.47129776,5.484594727,19.32189745
63.68482004,8.848249969,-15.12320114,4.845423889,18.1791329
63.69490204,9.378148041,-14.44376404,2.163301392,17.35660834
63.70498404,8.301287384,-13.41929443,0.2017803955,15.78067016
63.71506604,5.274880829,-11.24506577,-0.7846682739,12.44554443
63.72514804,1.449435883,-9.327702942,-0.1975891113,9.441713192
63.73523004,-0.7961943054,-8.899293823,0.4544549561,8.946389508
63.74531204,-1.389261017,-9.224268036,-0.03817062378,9.328377349
63.75539404,-1.187031555,-9.119186554,-1.218166809,9.276450706
63.76547704,-0.08681945801,-8.673263855,-1.759291534,8.850319216
63.77555904,1.34555191,-8.45382019,-1.466799774,8.684992074
63.78564104,2.063309326,-8.189619598,-1.689536591,8.612876896
63.79572304,2.633323975,-7.833510132,-1.693278809,8.435962853
63.80580504,2.484982452,-7.270530853,-1.599873047,7.848270538
63.81588704,2.18216217,-6.524482269,-1.742077332,7.096867904
63.82596904,1.46844635,-5.675597534,-1.560355225,6.066584746
63.83605104,0.9101074219,-4.597539368,-1.275647278,4.8572564
63.84613304,0.697250061,-3.335813141,-1.44150238,3.700234597
63.85621604,1.175804901,-1.845063171,-2.03127594,2.985440875
63.86629804,1.658251648,-0.757275238,-2.486778717,3.083396293
63.87638004,2.395917664,0.05328918457,-2.734214172,3.635820173
63.88646204,3.219355316,0.74065979,-2.530188446,4.161091101
63.89654404,3.469784546,0.3632945251,-1.790127411,3.921217139
63.90662604,3.76302475,-0.1236428833,-0.8657995605,3.863321331
63.91670804,3.823648682,-0.6489006042,-0.01451980591,3.878346563
63.92679004,3.77470047,-1.747017059,0.808768158,4.237279573
63.93687204,3.409909058,-3.205134888,2.0079245,5.092359986
63.94695404,3.08897644,-5.394482117,3.606001282,7.18647744
63.95703704,2.276466064,-9.002279663,6.97609314,11.61418152
63.96711904,0.8044271851,-13.73169479,11.99216217,18.24879444
63.97720104,-2.193388824,-20.44912582,19.8455809,28.58014666
63.98728304,-4.783901825,-32.30342468,35.35991867,48.13232605
63.99736504,-4.017645264,-40.11837341,21.39785294,45.64530062
64.00744704,-4.517306213,-31.60138458,4.952900391,32.30456292
64.01752904,-6.081852722,-14.67054245,3.887266388,16.35006386
64.02761104,-5.65853302,-4.581971741,3.884422302,8.252405564
64.03769304,-3.809877319,-0.2115101624,2.724634094,4.688660009
64.04777604,-0.2784210205,-1.263372803,-2.931653595,3.204406638
64.05785804,4.997507629,-6.789880371,-11.38218063,14.16444824
64.06794004,11.29805557,-12.97576675,-15.79365692,23.35500335
64.07802204,14.81484238,-14.7176944,-14.39556427,25.36380006
64.08810404,13.04342606,-11.4928006,-5.580994263,18.25822899
64.09818604,9.294172668,-10.06761429,21.5005394,25.49532697
64.10826804,3.927083588,-11.79247742,20.77395035,24.20829449
64.11835004,2.689606934,-9.38413559,-0.9690847778,9.809949619
64.12843204,-1.440753937,-5.961502991,-8.928483124,10.83204047
64.13851504,-3.547472992,-5.336402893,-8.656199341,10.76993721
64.14859704,-0.4887336731,-6.178401947,-9.007668457,10.93387407
64.15867904,2.565065918,-8.052355042,-7.859705658,11.541012
64.16876104,3.483406219,-9.245074768,-5.656437378,11.38423516
64.17884304,3.51963089,-9.666298828,-4.377946014,11.1799618
64.18892504,2.652933197,-10.14664993,-3.379073181,11.01865214
64.19900704,1.243913269,-11.13818802,-2.29098587,11.43919441
64.20908904,-0.1408570862,-12.32671646,-1.091530151,12.37575119
64.21917104,-1.361119537,-13.22439972,0.8681945801,13.32258069
64.22925404,-1.736239471,-12.86784119,1.947300568,13.12965513
64.23933604,-0.9813592529,-11.52528305,1.757195892,11.69969883
64.24941804,0.4111949158,-9.819580078,1.211730194,9.902601892
64.25950004,1.104702759,-8.101303253,0.5111869812,8.192239908
64.26958204,1.208137665,-6.344556427,-0.2002835083,6.461664364
64.27966404,1.192420349,-5.551655273,-1.473984833,5.866461783
64.28974604,2.137405243,-5.935756531,-2.5613237,6.808970984
64.29982804,3.077151031,-7.272476807,-2.056573334,8.160102404
64.30991004,3.293301544,-8.641230469,-0.5007087708,9.261069503
64.31999304,2.559377747,-9.577234039,0.2665956116,9.916899693
64.33007504,1.931882629,-9.958491211,0.3324586487,10.14959341
64.34015696,1.122815094,-9.761051788,0.592767334,9.843282931
64.35023896,0.130229187,-9.070388031,0.736917572,9.101205754
64.36032096,-0.4725672913,-8.314459991,0.8240364075,8.368548309
64.37040296,-0.8134085083,-7.772137756,0.1863624573,7.816808151
64.38048496,-0.7180567932,-7.529941406,-0.664019165,7.593190673
64.39056696,0.03083587646,-7.588170319,-1.252595215,7.690921558
64.40064896,0.8330177307,-8.016429749,-1.242266693,8.154771057
64.41073196,0.7686515808,-8.895401917,-0.7348219299,8.958736729
64.42081396,0.4827461243,-10.25876678,0.4767585754,10.28117885
64.43089596,0.0975970459,-11.48666336,1.771865387,11.62292852
64.44097796,-0.1360670471,-11.93123886,2.882855072,12.27533414
64.45105996,-0.4153862,-11.93093948,3.443139954,12.42477667
64.46114196,-1.218166809,-12.36174362,2.716550903,12.71519896
64.47122396,-1.902843018,-13.07860291,1.165925446,13.26763158
64.48130596,-2.890189819,-13.45267502,0.256716156,13.76203348
64.49138796,-4.385131073,-13.28726898,0.5421725464,14.00267269
64.50147096,-5.475463715,-12.94627808,1.791474609,14.17025759
64.51155296,-5.56497757,-12.66112106,3.178190918,14.19062576
64.52163496,-5.087320862,-12.59286301,4.017046509,14.16325157
64.53171696,-4.631069641,-12.68596939,3.963607635,14.07447373
64.54179896,-4.706512756,-12.73386978,3.126847687,13.93125545
64.55188096,-4.851561127,-11.87091431,2.661166077,13.09725379
64.56196296,-4.815486145,-11.05091949,3.404669952,12.52611296
64.57204496,-3.589984589,-11.70356232,4.871769104,13.17556429
64.58212696,-0.9767189026,-13.39294922,4.776716766,14.25279242
64.59220996,1.11039093,-15.1543364,0.4632865906,15.20202335
64.60229196,2.442770233,-17.04700058,-7.42306366,18.7528459
64.61237396,4.53646637,-19.20715851,-11.36781052,22.77546006
64.62245596,7.350015564,-20.30258057,-8.433911591,23.1807759
64.63253796,10.18257523,-19.9942218,-2.586770782,22.58639251
64.64261996,10.88641159,-17.99497925,4.316573639,21.47011978
64.65270196,9.448651428,-15.47077835,7.773934021,19.72450371
64.66278396,9.043294373,-13.81282608,5.248385925,17.32399758
64.67286596,9.19223465,-12.75901749,0.6486012268,15.73881789
64.68294896,8.065976715,-11.71957901,-1.886826324,14.35160709
64.69303096,3.726500702,-10.03992188,-2.270029449,10.94713992
64.70311296,0.06316864014,-8.25967392,-0.8243357849,8.300947718
64.71319496,-1.665436707,-7.440726929,-1.025367737,7.693469675
64.72327696,-1.942809906,-6.79706543,-1.523831177,7.231643675
64.73335896,-0.876277771,-6.170917511,-1.918410645,6.521379077
64.74344096,0.5701643372,-5.837261353,-2.049837341,6.212933333
64.75352296,1.562001801,-5.695805511,-1.936073914,6.215338466
64.76360496,2.412383423,-5.749394073,-1.571132813,6.42989769
64.77368796,2.597847748,-5.635630646,-1.602717133,6.409200255
64.78376996,1.876048737,-5.432203674,-1.773212585,6.01437266
64.79385196,0.7929011536,-5.060227203,-1.742376709,5.410218867
64.80393396,-0.4061054993,-4.505630493,-1.564546509,4.786797844
64.81401596,-0.960402832,-3.735182648,-1.870210876,4.286216482
64.82409796,-0.227227478,-2.675685883,-2.118394775,3.420310467
64.83417996,0.7454498291,-1.263073425,-2.640359344,3.020355508
64.84426196,1.712888031,-0.2520758057,-2.579136658,3.106360172
64.85434396,2.802921295,-0.2165995789,-1.946103058,3.419151982
64.86442696,3.691922607,-0.3068618774,-1.344653778,3.941135691
64.87450896,4.12811554,-0.9726773071,-0.592767334,4.282383935
64.88459096,4.538861389,-1.686692505,0.423918457,4.860648226
64.89467296,4.254153442,-3.022963715,1.441951447,5.414365624
64.90475496,3.841910706,-4.921016693,2.809657288,6.846229418
64.91483696,2.949466553,-7.638914795,5.789660339,10.02858609
64.92491896,1.123114471,-11.63635208,10.88311844,15.97211141
64.93500096,-0.8110134888,-17.58677811,17.7926001,25.03056382
64.94508296,-4.618645477,-27.39827499,31.3171257,41.86597331
64.95516596,-7.039860535,-36.97116806,29.81859192,48.01640686
64.96524796,-6.644532623,-34.7676004,9.674980774,36.69524635
64.97532996,-5.893843689,-21.2921727,3.256029053,22.33149652
64.98541196,-3.342698822,-10.39603134,2.784659271,11.2696686
64.99549396,-0.9749226379,-4.031566315,1.58774826,4.441277478
65.00557596,0.9933343506,-0.1866618347,0.3981719971,1.086322563
65.01565796,3.348536682,-0.7210505676,-3.094963989,4.616428698
65.02573996,7.551795959,-6.440656586,-8.717571716,13.21013763
65.03582196,10.84434906,-12.10368027,-14.0819664,21.50350577
65.04590496,13.32199677,-14.39182205,-14.79014374,24.56315313
65.05598696,12.88640259,-13.6905304,-6.803801422,19.99454195
65.06606896,9.540709991,-16.34810394,25.14201691,31.47072709
65.07615096,3.452570343,-16.40558441,17.44098129,24.19196706
65.08623296,2.502945099,-9.413474579,-4.978347473,10.93902104
65.09631496,-0.3694317627,-3.982318726,-7.194638672,8.231534965
65.10639696,-1.287322998,-2.533631287,-5.690416718,6.360607708
65.11647896,0.8563691711,-3.604803772,-8.137677612,8.941463824
65.12656096,4.170926514,-6.279292145,-9.783355408,12.3507158
65.13664396,5.258714447,-8.102650452,-8.142767029,12.6337515
65.14672596,4.382137299,-9.058412933,-6.877298584,12.18832261
65.15680796,2.646945648,-10.18077896,-4.842130737,11.58019048
65.16688996,0.2850073242,-11.68769531,-2.425256653,11.94007206
65.17697196,-2.160457306,-13.43246704,-0.2404000854,13.60722377
65.18705396,-3.676205292,-14.23090668,1.510359192,14.77546531
65.19713596,-4.021686859,-13.46839233,2.271975403,14.23844898
65.20721796,-2.776426392,-11.5219899,1.712888031,11.97492297
65.21729996,-0.4315525818,-9.410780182,1.278491364,9.50702695
65.22738296,1.351090393,-7.63367569,1.143621826,7.836218518
65.23746496,2.516117706,-6.522386627,0.4233197021,7.003682974
65.24754696,2.947520599,-6.371650085,-0.3951782227,7.031498299
65.25762896,3.297193451,-6.859335938,-1.466949463,7.750736409
65.26771096,3.266058197,-7.789801025,-1.416504364,8.564731214
65.27779296,2.14354248,-8.91366394,-1.019978943,9.22434476
65.28787496,1.750609589,-9.603429565,-0.3272195435,9.767167756
65.29795696,1.269060974,-9.670041046,0.9050180054,9.794859222
65.30803896,0.297431488,-9.214238892,1.934427338,9.419802172
65.31812196,-0.6110293579,-8.702602844,2.251617737,9.009907634
65.32820396,-1.287023621,-8.308322754,1.833686829,8.605060381
65.33828608,-1.619631958,-7.92496994,0.1788780212,8.090757293
65.34836808,-1.330283661,-7.661218414,-1.883682861,8.000761422
65.35845008,-0.1538800049,-7.537425842,-3.107687531,8.154396923
65.36853208,0.6997947693,-7.789052582,-3.081641693,8.405686668
65.37861408,0.6863227844,-8.704698486,-1.811832275,8.917709958
65.38869608,0.5757028198,-10.14126114,0.2381547546,10.16038035
65.39877908,0.5849835205,-11.36331985,1.982776794,11.54983323
65.40886108,0.6036946106,-12.03257812,2.961591339,12.40638573
65.41894308,0.6313870239,-12.11760132,3.003204803,12.50016601
65.42902508,0.3326083374,-12.45380219,2.192041626,12.64961911
65.43910708,-0.2698887634,-12.95181656,1.072070618,12.99891255
65.44918908,-1.618883514,-12.79000305,0.3423381042,12.89659479
65.45927108,-3.309767303,-12.50424728,0.8524772644,12.96292703
65.46935308,-4.413272552,-12.32776428,2.411185913,13.31407392
65.47943508,-4.921615448,-12.27746887,4.076921997,13.8412367
65.48951808,-4.71893692,-12.43718674,4.601131897,14.0755957
65.49960008,-4.33872757,-12.88475601,3.307971039,13.99228955
65.50968208,-4.62298645,-13.40986404,1.499132538,14.26337463
65.51976408,-5.489684143,-13.67092117,0.9282197571,14.76117575
65.52984608,-5.507197723,-14.13016617,2.902164917,15.44064066
65.53992808,-3.701951752,-15.42212952,5.254523163,16.70797831
65.55001008,-0.806073761,-16.51800064,2.753374329,16.76529661
65.56009208,2.071841583,-17.33664825,-4.870571594,18.12662042
65.57017408,4.602479095,-17.6704541,-10.73163345,21.18007834
65.58025708,6.652615814,-17.85277496,-9.356293488,21.22543519
65.59033908,8.816965027,-17.23964996,-3.93037674,19.7583467
65.60042108,8.520731049,-15.96130829,2.372416534,18.24813909
65.61050308,7.05677536,-14.62458801,5.953719177,17.29518503
65.62058508,6.969656525,-13.5444342,4.083957367,15.77043176
65.63066708,6.947652283,-12.45514938,0.6968009949,14.27887075
65.64074908,6.127956848,-11.52692963,-0.692460022,13.07292862
65.65083108,2.91354126,-10.53404434,-1.749112701,11.06861365
65.66091308,-0.9879455566,-9.202563171,-2.198777618,9.513034656
65.67099608,-2.733166351,-8.239915009,-1.544787598,8.81775291
65.68107808,-2.801723785,-7.994874573,-1.322499847,8.574186926
65.69116008,-1.147513733,-7.61720993,-1.742077332,7.897690062
65.70124208,1.025367737,-7.245532837,-2.215393066,7.645723741
65.71132408,2.019450531,-6.80754364,-1.835183716,7.334080047
65.72140608,2.700683899,-6.589596863,-1.933828583,7.379442616
65.73148808,2.911295929,-6.505322113,-2.148033142,7.443715884
65.74157008,2.883004761,-6.397396545,-2.312690735,7.388297331
65.75165208,2.724185028,-5.946534119,-2.233954468,6.911801839
65.76173508,2.166594543,-5.138664093,-2.013912048,5.929236234
65.77181708,1.625020752,-4.203109589,-2.201022949,5.015109638
65.78189908,1.629361725,-3.348686371,-2.444416809,4.454626087
65.79198108,1.892664185,-2.326911163,-2.773881683,4.085475844
65.80206308,2.18455719,-1.392554169,-3.066672821,4.01447125
65.81214508,2.705024872,-1.060993652,-2.64440094,3.928832323
65.82222708,3.118614807,-1.276994476,-1.978286133,3.907696154
65.83230908,3.62141922,-1.008003845,-1.30348938,3.978672327
65.84239208,4.315675507,-1.332379303,-0.3394940186,4.529408998
65.85247408,4.650229797,-2.229912872,0.3318598938,5.167908627
65.86255608,4.235891418,-4.237987061,1.494641876,6.17553761
65.87263808,3.367846527,-6.959477692,3.84250946,8.633747676
65.88272008,1.969005432,-10.55140823,8.361911316,13.60627645
65.89280208,0.3356021118,-14.89537491,12.80826508,19.64781099
65.90288408,-2.079924774,-21.74782516,23.02901093,31.7431777
65.91296608,-6.135441284,-32.00644226,37.21276566,49.46560334
65.92304808,-6.687642975,-35.86945908,17.6292897,40.52325898
65.93313108,-5.574857025,-27.66711594,2.210004272,28.30958237
65.94321308,-4.793032837,-14.68506226,0.3617976379,15.45170265
65.95329508,-3.331322479,-6.084996185,1.791324921,7.164756312
65.96337708,-1.978884888,-1.592388611,2.667153625,3.683123043
65.97345908,-0.6502478027,-1.19466568,-0.0853225708,1.3628383
65.98354108,2.760409698,-5.757926331,-6.674620056,9.237106161
65.99362308,7.840844879,-11.75355835,-12.89777893,19.13054321
66.00370508,11.8670224,-14.32251617,-14.82771561,23.78700991
66.01378708,13.32469116,-13.36181396,-9.172924805,20.98161139
66.02387008,13.73139542,-14.10232407,13.49324066,23.86407986
66.03395208,8.365653534,-17.31194962,30.69711502,36.22154924
66.04403408,3.067570953,-11.56884247,-3.612437897,12.50191246
66.05411608,-0.560584259,-5.489684143,-10.41369461,11.78541141
66.06419808,-4.146377563,-2.964285736,-6.195915527,8.023017266
66.07428008,-4.176464996,-2.483335876,-7.644602966,9.05813289
66.08436208,-0.6607260132,-4.849166107,-9.374256134,10.57485928
66.09444408,1.335522766,-8.023016052,-7.536378021,11.08825511
66.10452708,2.073937225,-10.32642609,-5.305716705,11.79351182
66.11460908,1.728305969,-11.46271317,-4.194577332,12.3278268
66.12469108,0.7514373779,-12.08422073,-2.778671722,12.42232126
66.13477308,0.06212081909,-12.44796432,-1.09048233,12.49579235
66.14485508,0.08397537231,-12.85032761,1.301393738,12.91633064
66.15493708,0.4572990417,-12.83356247,3.213816833,13.23775157
66.16501908,0.9259744263,-12.22013809,3.627556458,12.78078125
66.17510108,1.57846756,-11.19462067,3.038531342,11.70656928
66.18518308,2.437830505,-9.822124786,2.164049835,10.34892577
66.19526608,3.057841187,-8.454119568,2.142494659,9.24190531
66.20534808,2.633773041,-7.333400116,2.230511627,8.104979939
66.21543008,2.271376648,-6.847809906,1.418899384,7.352885682
66.22551208,1.75749527,-6.793772278,0.6851252747,7.050782086
66.23559408,1.120569763,-6.960525513,-0.5156776428,7.068982631
66.24567608,0.8951385498,-7.223079529,-1.909878387,7.524744936
66.25575808,1.179696808,-7.522606659,-2.493814087,8.012515473
66.26584008,1.608255615,-7.705675964,-2.009571075,8.124180211
66.27592208,2.01960022,-7.843539276,-0.5984555054,8.121455683
66.28600508,2.092348938,-8.106841736,0.512384491,8.388166956
66.29608708,1.921105042,-8.238118744,1.076561279,8.527381146
66.30616908,1.584904175,-8.151448975,1.069974976,8.372746746
66.31625108,1.195264435,-8.112978973,0.6932084656,8.229800901
66.32633308,0.946481781,-8.108638,0.2080673218,8.166341286
66.33641483,0.9069639587,-8.358169098,-0.0419128418,8.407337925
66.34649683,0.8681945801,-8.948691101,0.549357605,9.00747623
66.35657883,0.5330415344,-9.834399261,1.614542542,9.980295072
66.36666183,0.1883084106,-10.57550812,2.614912262,10.89562289
66.37674383,-0.277073822,-11.53201904,3.390449524,12.02328495
66.38682583,-0.7363188171,-12.40260864,3.389850769,12.87858512
66.39690783,-1.03315155,-13.15090256,2.065554657,13.35215924
66.40698983,-1.375190277,-13.75848907,0.5436694336,13.83772909
66.41707183,-2.169588318,-14.11489792,0.04326004028,14.28073276
66.42715383,-2.969225464,-14.36113586,1.321901093,14.72433176
66.43723583,-3.373983765,-13.7475618,4.508175201,14.85607167
66.44731783,-3.462150421,-12.41503281,6.768474884,14.55787682
66.45740083,-3.995491333,-11.8656752,5.671855316,13.74511338
66.46748283,-5.354814606,-12.53792725,2.717149658,13.90167477
66.47756483,-6.480473785,-13.13698151,0.9286688232,14.67784894
66.48764683,-7.289541321,-12.79299683,1.168320465,14.77034709
66.49772883,-6.92100769,-12.72623566,2.749931488,14.74515326
66.50781083,-4.380191345,-14.46112793,3.096161499,15.42389423
66.51789283,-0.7981402588,-16.51904846,0.9178912354,16.56377114
66.52797483,2.402653656,-17.12513809,-4.662204895,17.91031138
66.53805783,4.781656494,-17.83151917,-10.08153534,21.03484417
66.54813983,6.686744843,-17.99213516,-10.2731369,21.77077918
66.55822183,7.039561157,-16.65152298,-6.126160583,19.08817651
66.56830383,5.250930634,-14.6061763,0.3737727356,15.52586116
66.57838583,4.437372437,-13.50431763,5.077441406,15.09427971
66.58846783,4.565056915,-12.8464357,4.969964905,14.51107184
66.59854983,4.881947937,-12.38210129,2.398162994,13.52409086
66.60863183,3.787124634,-11.63036453,-0.02978805542,12.2314586
66.61871383,0.2321672058,-10.63732956,-2.558030548,10.94304355
66.62879683,-2.664608917,-10.21086639,-2.824925537,10.92438271
66.63887883,-3.586392059,-9.849218445,-2.359243927,10.74408413
66.64896083,-3.237168274,-8.969497833,-2.438878326,9.842727127
66.65904283,-1.570683746,-8.314459991,-2.232307892,8.751027991
66.66912483,-0.03981719971,-8.139473877,-1.749112701,8.325383814
66.67920683,1.281335449,-8.158334656,-1.689386902,8.429369668
66.68928883,2.387086029,-7.861202545,-1.995650024,8.454543405
66.69937083,3.337609406,-7.268734589,-2.357148285,8.338482302
66.70945283,3.904929657,-6.320157166,-2.392175446,7.804829632
66.71953583,3.993695068,-5.195994873,-2.710862732,7.092019442
66.72961783,3.428470459,-4.36207901,-2.713557129,6.176207191
66.73969983,3.158731384,-3.602408752,-2.750679932,5.524597077
66.74978183,2.85621048,-3.268303528,-2.595602417,5.05736079
66.75986383,3.048410797,-2.896027679,-2.446063385,4.864464081
66.76994583,3.796405334,-2.722688141,-2.596650238,5.344933735
66.78002783,4.604574738,-2.498753815,-2.555785217,5.829058004
66.79010983,4.55397995,-2.753673706,-1.929637299,5.660826121
66.80019283,5.009632416,-3.113076324,-1.130598907,6.005490407
66.81027483,5.941594391,-3.445984039,0.09101074219,6.869179926
66.82035683,6.77476181,-3.985761566,1.112486572,7.938596804
66.83043883,7.034022675,-5.223836975,2.029779053,8.993661698
66.84052083,6.139632568,-7.255561981,3.950435028,10.29292012
66.85060283,3.66123642,-9.892777863,7.302115173,12.82936444
66.86068483,0.5090913391,-13.06153839,11.90803711,17.68231622
66.87076683,-2.438129883,-17.58378433,17.06301727,24.622764
66.88084983,-5.380561066,-23.75844406,23.66309235,33.96109599
66.89093183,-7.390581207,-28.2940123,20.14091675,35.50814484
66.90101383,-8.553662567,-25.85049362,9.230105896,28.75079162
66.91109583,-8.788973236,-17.73916122,3.806584167,20.15971167
66.92117783,-6.752308502,-11.40957367,1.820963287,13.38237455
66.93125983,-4.756808167,-7.386838989,1.998344421,9.010327109
66.94134183,-4.971312103,-5.105582886,1.26367218,7.237250031
66.95142383,-4.399800568,-5.37651947,-3.685485992,7.864350809
66.96150583,0.1354682922,-8.503666534,-10.99493591,13.90033496
66.97158883,7.627688141,-12.71246429,-13.87404877,20.30462026
66.98167083,12.0926033,-15.17349655,-11.19492004,22.40072068
66.99175283,10.93116852,-13.13982559,-6.306236115,18.21850915
67.00183483,9.572593689,-12.28704895,12.73431885,20.1188717
67.01191683,8.160280609,-14.61336136,35.81811584,39.53578041
67.02199883,8.073760529,-9.380842438,5.042414246,13.3645709
67.03208083,5.750591583,-3.720363464,-9.59355011,11.78756173
67.04216283,-0.2249821472,-1.772913208,-7.366032257,7.57972753
67.05224583,-3.484004974,-1.961221619,-5.741011505,6.995991281
67.06232783,-0.8553213501,-4.566703491,-7.981701965,9.235470841
67.07240983,1.410816193,-7.924371185,-8.638087006,11.80688816
67.08249183,1.857786713,-10.09366013,-7.68980896,12.82444962
67.09257383,1.413360901,-11.32978958,-7.374863892,13.59228967
67.10265583,0.4763095093,-12.31399292,-6.269263,13.82624139
67.11273783,0.4628375244,-13.20973022,-4.392016754,13.92842426
67.12281983,0.7152127075,-14.00757111,-0.6164181519,14.03935714
67.13290183,0.3917353821,-14.36278244,4.533771973,15.06645494
67.14298483,0.2456391907,-13.45312408,7.04509964,15.18816365
67.15306683,0.6902146912,-11.5432457,5.027295685,12.60938616
67.16314883,1.71184021,-9.902807007,2.818189545,10.43734525
67.17323083,2.661016388,-8.087382202,1.472338257,8.64028582
67.18331283,2.901416473,-6.902446289,0.3576063538,7.495989903
67.19339483,2.625240784,-6.449637909,-0.1919009399,6.966099648
67.20347683,2.529589691,-6.543492737,-1.312770081,7.137190378
67.21355883,2.586920471,-6.646179199,-2.029779053,7.415110146
67.22364183,2.141746216,-7.53652771,-1.86631897,8.054158756
67.23372383,2.038760376,-8.426127777,-0.9749226379,8.723912387
67.24380583,1.69776947,-8.612340546,-0.2956352234,8.783065014
67.25388783,1.500180359,-8.293653259,0.5233117676,8.444470422
67.26396983,1.038390656,-8.062384186,1.331630859,8.237325698
67.27405183,0.5020559692,-7.805518341,1.308279419,7.93030717
67.28413383,0.060025177,-7.654931488,0.5224136353,7.672971726
67.29421583,0.2239343262,-7.687114563,-0.7676037598,7.72858929
67.30429883,0.9110055542,-7.998616791,-1.740430756,8.236315979
67.31438083,1.617985382,-8.648265839,-1.7902771,8.978611853
67.32446283,1.948348389,-9.432485046,-0.9231303406,9.675743135
67.33454483,1.898052979,-10.35456757,0.4180805969,10.53539112
67.34462667,1.654359741,-11.08729385,1.60541153,11.32441333
67.35470867,1.175655212,-11.28907425,2.251767426,11.5713361
67.36479067,0.3632945251,-11.61060562,2.885100403,11.96920842
67.37487267,-0.5373825073,-12.34273315,2.636317749,12.63257745
67.38495467,-1.249451752,-13.08623703,1.357227631,13.21562697
67.39503767,-2.391726379,-13.57347382,0.3453318787,13.78690685
67.40511967,-3.612138519,-13.89515488,0.5920188904,14.36918091
67.41520167,-4.425397339,-13.83737503,2.235151978,14.69874123
67.42528367,-4.618196411,-13.33936066,4.611161041,14.85022178
67.43536567,-4.758305054,-12.99432816,5.640270996,14.94344967
67.44544767,-5.324427795,-12.9817543,3.62141922,14.491037
67.45552967,-6.029910736,-12.9964238,1.171613617,14.37496203
67.46561167,-6.55950943,-12.71979904,0.4890330505,14.31990241
67.47569467,-6.383325806,-12.91424469,1.506018219,14.4842209
67.48577667,-4.514312439,-14.323564,3.068319397,15.32834258
67.49585867,-1.494641876,-16.2810434,2.572101288,16.55059012
67.50594067,2.083367615,-17.38634491,-2.76729538,17.72803807
67.51602267,4.711602173,-17.71356445,-9.754465485,20.7634091
67.52610467,6.708449707,-18.09407318,-9.712103577,21.60378989
67.53618667,9.386829987,-18.0871875,-4.56685318,20.88336843
67.54626867,9.296567688,-16.98458038,1.194216614,19.39918284
67.55635167,7.959398346,-15.19385422,5.225782928,17.93081245
67.56643367,7.440128174,-13.64128281,5.252726898,16.40217192
67.57651567,7.254813538,-12.21519836,1.56439682,14.29303075
67.58659767,6.50921402,-11.03400467,-1.739233246,12.92842057
67.59667967,3.879632263,-10.11296997,-2.825224915,11.19399857
67.60676167,0.4680766296,-8.623866577,-3.468886414,9.30716624
67.61684367,-2.660567322,-8.39424408,-3.277135162,9.395827106
67.62692567,-3.560495911,-8.474028168,-1.015338593,9.247550864
67.63700767,-1.80315033,-8.353977814,-0.9825567627,8.602657393
67.64709067,0.2832110596,-7.78111908,-1.854194183,8.004002668
67.65717267,1.550475769,-7.545658722,-1.957778778,7.948197179
67.66725467,2.43378891,-7.334298248,-2.136507111,8.01747603
67.67733667,2.968327332,-6.810387726,-2.134411469,7.729686956
67.68741867,3.133583679,-6.172713776,-1.97155014,7.197829672
67.69750067,2.775977325,-5.410798187,-2.063608704,6.421936469
67.70758267,2.178270264,-4.53062851,-2.055974579,5.431251007
67.71766467,1.919308777,-3.610491943,-2.249522095,4.666877747
67.72774767,1.841919708,-2.786156158,-2.327509918,4.070950352
67.73782967,1.838476868,-1.898202667,-2.344125366,3.532434612
67.74791167,2.305805054,-1.41815094,-2.228116608,3.506050863
67.75799367,2.704276428,-0.856967926,-2.049837341,3.499905449
67.76807567,3.130589905,-0.7979905701,-1.515448608,3.568468381
67.77815767,3.928580475,-1.221459961,-0.4887336731,4.143014553
67.78823967,4.792434082,-1.710343323,0.5647755432,5.119733404
67.79832167,5.463338928,-2.346520386,1.444346466,6.118853396
67.80840467,5.072801056,-4.005520477,2.159409485,6.814730675
67.81848667,3.739523621,-6.810088348,4.381688232,8.919671069
67.82856867,1.836231537,-10.27493317,9.099128265,13.84702614
67.83865067,0.4032614136,-14.72757385,13.28951431,19.84125102
67.84873267,-2.679128723,-21.74213699,24.51152802,32.87420352
67.85881467,-7.950117645,-31.51306824,32.53589127,45.98762943
67.86889667,-9.614955597,-35.23163544,14.72532852,39.377034
67.87897867,-9.906998291,-26.61450485,3.516936493,28.61554343
67.88906067,-7.394024048,-14.13286057,2.906056824,16.21278834
67.89914367,-4.927453308,-6.33602417,4.203558655,9.060623806
67.90922567,-5.606291656,-2.424358521,1.776805115,6.36121504
67.91930767,-5.956563263,-0.7604187012,-8.499624939,10.40684902
67.92938967,-1.192719727,-1.608704681,-16.95134949,17.06923433
67.93947167,9.759255524,-5.870192871,-17.9398938,21.24951816
67.94955367,18.30962494,-11.28802643,-11.90324707,24.58351474
67.95963567,19.11210617,-14.23614578,-3.784729614,24.13016012
67.96971767,19.0426506,-21.02063736,39.79010605,48.86452984
67.97980067,9.009315033,-21.55188263,20.5768103,31.12967273
67.98988267,0.5484594727,-12.91559189,-13.39654175,18.61667673
67.99996467,-4.184398499,-7.048991547,-10.7482489,13.51748228
68.01004667,-3.773802338,-4.696333923,-4.545597382,7.547157873
68.02012867,0.4556524658,-3.956572266,-6.738387451,7.827384538
68.03021067,4.086202698,-5.292095032,-9.035061493,11.23991363
68.04029267,5.816753998,-7.018754425,-8.633895721,12.55554444
68.05037467,5.992488556,-7.949069824,-8.300838318,12.96154107
68.06045767,5.995632019,-9.155860291,-7.159611511,13.07812746
68.07053967,5.257367249,-11.04373444,-4.843328247,13.15529586
68.08062167,2.919079742,-13.13533493,-1.199455719,13.50913559
68.09070367,0.2773731995,-14.64988541,2.149679718,14.80936194
68.10078567,-1.468596039,-14.53911575,4.247716827,15.21794202
68.11086767,-1.97155014,-13.04327637,4.108656006,13.81648011
68.12094967,-0.6815327454,-10.46833099,2.424657898,10.7670519
68.13103167,0.6535409546,-8.100405121,0.6328839111,8.151332464
68.14111467,1.814975739,-6.424190826,-0.7593708801,6.71870589
68.15119667,2.340233459,-5.707930298,-1.534608765,6.357057888
68.16127867,2.740800476,-5.256319427,-1.122216339,6.033262027
68.17136067,2.468816071,-6.06568634,-0.9723779297,6.620658759
68.18144267,2.315684509,-7.31304245,-0.866098938,7.719657505
68.19152467,1.995799713,-8.23272995,-0.6984475708,8.499934584
68.20160667,1.239572296,-8.922944641,0.09580078125,9.009143041
68.21168867,0.2511776733,-9.199120331,1.043779449,9.261553899
68.22177167,-0.6128256226,-8.92773468,1.494941254,9.072753227
68.23185367,-0.9520202637,-8.305328979,1.690285034,8.528885949
68.24193567,-0.8261320496,-7.682324524,1.048270111,7.797401778
68.25201767,-0.5243595886,-7.405400391,-0.3749702454,7.433405048
68.26209967,0.2763253784,-7.416477356,-1.928439789,7.668074863
68.27218167,0.7493417358,-8.125253448,-2.628833313,8.572748756
68.28226367,0.6976991272,-9.82871109,-1.621428223,9.985958905
68.29234567,0.3737727356,-11.4197525,0.2625540161,11.42888393
68.30242767,0.1788780212,-12.03482346,2.201322327,12.23579964
68.31251067,-0.242795105,-12.11775101,3.892355804,12.72985753
68.32259267,-0.6051914978,-12.1762793,3.970193939,12.82148487
68.33267467,-0.8334667969,-12.66186951,2.231559448,12.88400031
68.34275746,-1.683249664,-12.93909302,0.6891668701,13.06630814
68.35283946,-3.22010376,-12.89194107,0.5369334412,13.29885372
68.36292146,-4.444557495,-12.90301804,1.282083893,13.70714065
68.37300346,-5.133724365,-13.2020961,2.85381546,14.44973114
68.38308546,-5.015170898,-13.33382217,4.2719664,14.87254013
68.39316846,-4.282594299,-13.14431625,4.577930145,14.56266144
68.40325046,-3.505859528,-13.13353867,3.47053299,14.02945074
68.41333246,-3.137475586,-12.59121643,2.767594757,13.26808445
68.42341446,-3.228336639,-12.20741455,4.029021606,13.25428771
68.43349646,-2.583477631,-13.16901489,4.870721283,14.27659748
68.44357846,-0.9277706909,-14.99776199,2.85037262,15.29438614
68.45366046,0.5694158936,-16.90674225,-2.691103821,17.12904573
68.46374246,2.093546448,-18.59074036,-10.30861313,21.36038549
68.47382546,5.528303833,-19.80007553,-12.25651245,23.93380939
68.48390746,9.343270569,-19.96114059,-7.316185913,23.2221966
68.49398946,11.30374374,-18.91885803,1.331032104,22.07871052
68.50407146,9.664652252,-16.2358374,7.454348602,20.31194802
68.51415346,8.630153503,-14.28973434,6.644233246,17.96724499
68.52423546,8.239016876,-12.85631516,2.975063324,15.5569033
68.53431746,8.264913025,-11.57333313,-0.7146139526,14.23943468
68.54439946,6.001619568,-10.51428543,-1.961820374,12.2645169
68.55448246,1.069525909,-9.459878082,-2.37406311,9.81169479
68.56456446,-2.127076721,-9.140442352,-1.234183502,9.465482063
68.57464646,-3.290158081,-8.722361755,-0.9538165283,9.370939161
68.58472846,-2.401905212,-8.160579987,-1.036893768,8.569676952
68.59481046,0.756227417,-7.790998535,-1.531165924,7.975964341
68.60489246,2.364033966,-7.260501709,-1.832040253,7.852382641
68.61497446,3.159330139,-7.170538788,-1.663939819,8.010411298
68.62505646,4.196972351,-7.112459564,-1.814077606,8.455325868
68.63513946,4.275259552,-6.599176941,-2.175426178,8.158398102
68.64522146,3.614533539,-5.827980652,-2.144290924,7.185276247
68.65530346,2.551593933,-4.861141205,-1.900148621,5.809637699
68.66538546,1.414558411,-3.946543121,-1.854343872,4.584186875
68.67546746,1.052461395,-3.133733368,-2.183808746,3.9619415
68.68554946,1.055904236,-2.083666992,-2.71340744,3.580388502
68.69563146,1.348096619,-0.8566685486,-3.311713257,3.676777147
68.70571346,1.776056671,0.05643264771,-3.330873413,3.775219151
68.71579646,2.266736298,0.37676651,-2.724634094,3.56422185
68.72587846,3.053799591,0.1525328064,-2.0862117,3.701518264
68.73596046,3.923790436,0.1242416382,-1.139729919,4.087854163
68.74604246,4.241729279,-0.519868927,-0.1945953369,4.277896483
68.75612446,4.382736053,-1.915865936,0.7493417358,4.841531848
68.76620646,3.906725922,-4.124073944,2.393672333,6.164427026
68.77628846,2.58826767,-7.404801636,5.53563858,9.600703687
68.78637046,1.300944672,-12.29124023,11.411819,16.82250446
68.79645346,-0.1571731567,-18.74581787,18.32249817,26.21343797
68.80653546,-3.049608307,-29.32027817,35.38776077,46.05727342
68.81661746,-4.488715668,-38.92715057,29.22836929,48.88526559
68.82669946,-4.78794342,-35.33342377,5.28760437,36.04627578
68.83678146,-5.98844696,-19.86399261,-0.1779798889,20.74780414
68.84686346,-4.782854004,-7.951614532,1.925146637,9.476816748
68.85694546,-2.354603577,-1.810784454,2.911894684,4.159594811
68.86702746,0.7364685059,0.1236428833,0.2755769348,0.7960000438
68.87711046,4.71190155,-2.724334717,-5.487887878,7.729225656
68.88719246,9.786349182,-8.518934784,-11.06229584,17.05049176
68.89727446,13.74262207,-13.21347244,-14.25994629,23.80759508
68.90735646,14.97066833,-14.30904419,-11.39295822,23.63618313
68.91743846,12.6473497,-13.56299561,-0.370329895,18.54851607
68.92752046,3.316652985,-13.69262604,22.22099121,26.31084653
68.93760246,-2.302362213,-11.88064407,8.346792755,14.70100421
68.94768446,-1.52577713,-7.49087265,-4.963827667,9.114864454
68.95776746,-1.172960815,-3.994293823,-5.01142868,6.514954922
68.96784946,0.7255412292,-3.746858368,-6.738686829,7.744369431
68.97793146,3.885320435,-5.873036957,-9.044940948,11.46295052
68.98801346,5.589077454,-7.858807526,-9.065448303,13.23559577
68.99809546,5.419031067,-9.301657104,-8.178093567,13.51916924
69.00817746,4.669240265,-10.28705795,-6.659202118,13.11374618
69.01825946,3.818559265,-11.10899872,-4.032763824,12.41992075
69.02834146,1.823957062,-12.42386444,-0.4134402466,12.56384335
69.03842446,-0.7000941467,-13.93691803,2.648442535,14.20359334
69.04850646,-2.187401276,-14.24602524,3.429667969,14.81541703
69.05858846,-2.138752441,-13.27544357,2.441273346,13.66643624
69.06867046,-0.9845027161,-11.42289597,1.126856689,11.52048627
69.07875246,-0.05239105225,-9.222322083,-0.1263372803,9.223336193
69.08883446,0.6182144165,-7.283254395,-1.522633667,7.466350978
69.09891646,1.28477829,-6.18154541,-1.911075897,6.596542276
69.10899846,1.877096558,-5.745801544,-1.785037994,6.302704778
69.11908046,1.955832825,-6.161187744,-1.336570587,6.600904286
69.12916346,1.743723907,-7.073540497,-0.7629634094,7.325139001
69.13924546,1.654808807,-7.753726044,0.2128573608,7.931202179
69.14932746,1.135089569,-8.138875122,0.8211923218,8.25857575
69.15940946,0.7441026306,-7.951614532,1.22625,8.079947491
69.16949146,0.4058061218,-7.465724945,1.46964386,7.619815
69.17957346,0.3260220337,-7.243437195,1.252295837,7.358119164
69.18965546,0.5508544922,-7.229665833,0.2826123047,7.256126958
69.19973846,1.121467896,-7.422464905,-0.9940827942,7.572243796
69.20982046,2.079625397,-7.87227951,-1.888772278,8.358533795
69.21990246,2.548001404,-8.409662018,-1.983525238,9.008279457
69.22998446,1.851499786,-9.350605316,-1.291065216,9.619185029
69.24006646,1.043779449,-10.57925034,0.07499404907,10.6308813
69.25014846,0.4076023865,-11.55207733,1.766925659,11.69353055
69.26023046,-0.1053808594,-12.01356766,3.200943604,12.4331393
69.27031246,-0.6956034851,-12.41802658,3.869752808,13.02559922
69.28039546,-0.8942404175,-12.57100845,3.117417297,12.98261184
69.29047746,-1.428180084,-12.48209335,1.348994751,12.63574848
69.30055946,-2.66311203,-12.61232254,0.7955955505,12.91494552
69.31064146,-3.930077362,-12.64390686,1.841171265,13.36801408
69.32072346,-4.966222687,-12.47715363,3.004102936,13.76108153
69.33080546,-5.624104614,-12.63702118,3.607647858,14.29475359
69.34088729,-5.666167145,-12.97172516,3.113824768,14.49368857
69.35096929,-5.296286316,-13.57661728,2.068997498,14.71923694
69.36105229,-4.833748169,-13.71957001,1.724114685,14.64801331
69.37113429,-4.444856873,-13.70759491,2.730921021,14.66672562
69.38121629,-3.189567261,-14.73745331,4.432432709,15.71662588
69.39129829,-1.226399689,-16.60302383,3.956871643,17.11202179
69.40138029,1.005459137,-18.29495544,-2.195334778,18.45361313
69.41146229,4.44515625,-19.59140945,-9.996811523,22.43922858
69.42154429,7.980504456,-20.60779587,-11.11169312,24.73538813
69.43162629,11.726315,-20.61049026,-5.776038666,24.40617535
69.44170829,13.08893143,-18.71677826,1.469793549,22.88663818
69.45179129,10.79330521,-15.73273361,6.748416595,20.23747689
69.46187329,8.77445343,-13.17170929,7.21709198,17.3945789
69.47195529,8.35906723,-11.33772308,3.169508972,14.43827402
69.48203729,7.883955231,-10.09440857,-1.096918945,12.85523495
69.49211929,5.180726624,-9.418563995,-3.425027618,11.28184782
69.50220129,0.5962101746,-9.148226166,-3.17205368,9.700898572
69.51228329,-2.189646606,-8.982371063,-1.471889191,9.361837425
69.52236529,-3.004252625,-8.607849884,-1.129251709,9.18671992
69.53244829,-1.681004333,-8.041876831,-1.482966156,8.348457771
69.54253029,0.5502557373,-7.551047516,-1.861379242,7.79652696
69.55261229,2.080972595,-6.970554657,-2.313738556,7.633640368
69.56269429,3.022814026,-6.373296661,-2.414329376,7.455555064
69.57277629,3.573369141,-6.334527283,-2.073787537,7.562790335
69.58285829,3.507506104,-6.2002565,-2.180066528,7.449729512
69.59294029,2.982697449,-5.288652191,-2.329006805,6.503122232
69.60302329,1.747017059,-4.546046448,-2.082319794,5.296665237
69.61310529,1.14781311,-3.778292999,-2.182012482,4.511557535
69.62318729,0.8345146179,-2.63856308,-2.574346619,3.779641555
69.63326929,1.009650421,-1.504671021,-2.741698608,3.286387091
69.64335129,1.396296387,-0.477507019,-2.874322815,3.231004209
69.65343329,1.78668457,0.09430389404,-2.528092804,3.097158085
69.66351529,2.236648865,0.001347198486,-1.92005722,2.94774824
69.67359729,3.15918045,-0.2890489197,-1.277443542,3.419917017
69.68368029,3.717669067,-0.450712738,-0.2369572449,3.752379779
69.69376229,3.98291748,-1.259630585,0.4993615723,4.207096724
69.70384429,3.987557831,-2.832709351,1.326691132,5.068034045
69.71392629,3.765120392,-4.978347473,2.979703674,6.916553268
69.72400829,2.941233673,-8.397387543,6.239325256,10.86720538
69.73409029,2.132465515,-13.51554428,11.72377029,18.01843879
69.74417229,0.1327738953,-20.63189575,19.46043182,28.36196675
69.75425429,-1.752256165,-31.1831543,35.33611816,47.16037278
69.76433729,-3.054697723,-38.30669083,25.20862839,45.95877158
69.77441929,-4.030219116,-31.49615341,6.094276886,32.33250001
69.78450129,-4.807103577,-16.76528641,0.743354187,17.4566792
69.79458329,-3.875440979,-6.729555817,0.808768158,7.807693014
69.80466529,-1.537153473,-1.231489105,1.087189178,2.249752548
69.81474729,1.822609863,-0.6059399414,-1.657353516,2.536905714
69.82482929,6.508315887,-5.497318268,-8.015232239,11.69712066
69.83491129,10.4297113,-11.75490555,-15.08323425,21.78211739
69.84499429,13.53874603,-14.82801498,-16.25963791,25.83686315
69.85507629,12.94433212,-13.6692746,-9.774523773,21.21193337
69.86515829,8.555458832,-13.6294574,17.50968842,23.78123574
69.87524029,2.121538239,-13.38711136,24.46168167,27.96586393
69.88532229,3.266656952,-7.953560486,-0.3582051086,8.605723848
69.89540429,0.4818479919,-3.442092133,-7.372019806,8.150266974
69.90548629,-2.507884827,-2.26523941,-6.166726227,7.032020211
69.91556829,-0.5292993164,-3.745062103,-7.834557953,8.699767022
69.92565129,2.571352844,-6.809639282,-8.454418945,11.15617508
69.93573329,3.7384758,-9.444011078,-7.806715851,12.81055654
69.94581529,3.457061005,-11.09298203,-7.184759216,13.66112316
69.95589729,2.395318909,-11.77661041,-6.050118713,13.4547405
69.96597929,1.21577179,-12.12837891,-3.63429245,12.71942442
69.97606129,-0.1507365417,-12.997771,-0.3224295044,13.00264331
69.98614329,-1.258882141,-13.59233459,2.626587982,13.90091034
69.99622529,-1.427431641,-13.11078598,3.847000122,13.73789213
