Time (s),Acceleration x (m/s^2),Acceleration y (m/s^2),Acceleration z (m/s^2),Absolute acceleration (m/s^2)
50.00342504,-1.329535217,-11.54070099,3.485950928,12.1287797
50.01350704,-1.511556702,-12.6659111,1.38072876,12.83029694
50.02358904,-2.406695251,-13.07980042,0.05957611084,13.29950789
50.03367104,-3.995191956,-12.93834457,0.1315763855,13.54177357
50.04375304,-5.41394165,-12.79569122,1.089434509,13.93654712
50.05383504,-6.275699615,-12.73461823,2.742596741,14.45948629
50.06391804,-6.146967316,-12.5982518,4.518653412,14.72818333
50.07400004,-5.176984406,-12.3050116,5.300926666,14.36364513
50.08408204,-4.413122864,-12.38943604,4.242627411,13.8193222
50.09416404,-4.149970093,-11.94081894,2.577939148,12.90159599
50.10424604,-4.340374146,-11.49624344,3.144660645,12.68429547
50.11432804,-3.804189148,-12.42012222,4.773273926,13.83891018
50.12441004,-1.39360199,-13.88587418,3.839216309,14.47408754
50.13449204,1.057401123,-15.31061142,-0.4492158508,15.35365475
50.14457404,2.263742523,-17.23590775,-7.325616302,18.86440299
50.15465604,4.722828827,-19.17377792,-11.47304169,22.8378974
50.16473804,8.009095001,-20.27413971,-8.632398834,23.44578114
50.17482004,11.24012604,-20.29868866,-2.221530304,23.30906243
50.18490204,10.96694412,-18.27384933,5.044958954,21.90111969
50.19498404,8.773704987,-15.34414169,8.656798096,19.68148208
50.20506704,8.481213226,-13.51120331,6.255192261,17.13508164
50.21514904,8.427025909,-12.35695358,0.993633728,14.98987577
50.22523104,7.490423584,-11.06499023,-2.263293457,13.5522305
50.23531304,2.997366943,-9.294771423,-2.968027954,10.20716289
50.24539504,-0.935255127,-8.170160065,-1.132844238,8.30117785
50.25547704,-2.43139389,-7.921676788,-0.6327342224,8.310535
50.26555904,-2.539020081,-7.676187286,-0.7186555481,8.117077061
50.27564104,-0.7683522034,-6.992558899,-1.194066925,7.135267401
50.28572304,0.8116122437,-6.471342773,-1.091829529,6.612796946
50.29580504,1.937421112,-6.250252533,-1.100960541,6.635613868
50.30588704,2.442171478,-6.323001251,-1.447789307,6.931135566
50.31596904,2.714754639,-6.478827209,-1.535806274,7.190535145
50.32605117,2.76490036,-6.118825836,-1.825903015,6.958349333
50.33613317,1.742077332,-5.17997818,-1.921703796,5.793095274
50.34621617,0.7391629028,-4.171674957,-1.680854645,4.557905888
50.35629817,0.6078858948,-2.904859314,-2.079924774,3.624061252
50.36638017,0.5321434021,-1.540596313,-2.38933136,2.892320513
50.37646217,0.8885522461,-0.6798861694,-2.503244476,2.741897738
50.38654417,1.603914642,0.07095245361,-2.132764893,2.669506044
50.39662617,1.897304535,-0.0209564209,-1.490749969,2.412993813
50.40670817,2.265538788,-0.9891430664,-0.710123291,2.572031317
50.41679017,2.293829956,-1.6814534,0.09804611206,2.845795924
50.42687217,2.044747925,-2.507286072,0.7171586609,3.313879006
50.43695417,1.994153137,-3.683989105,1.77156601,4.548281938
50.44703617,1.770667877,-5.432053986,3.129542084,6.514331039
50.45711817,1.432521057,-8.474776611,5.960155792,10.45932179
50.46720017,0.2311193848,-13.54997269,10.99014587,17.44816559
50.47728217,-3.524720306,-20.96240845,20.43430664,29.48571025
50.48736517,-9.49176178,-30.81971008,29.30291428,43.573029
50.49744717,-11.83903061,-36.74199463,17.3971225,42.3414299
50.50752917,-9.501790924,-30.65535187,7.413782959,32.93932007
50.51761117,-6.039341125,-16.50108582,6.32434845,18.675033
50.52769317,-3.528013458,-7.682474213,4.924758911,9.783687409
50.53777517,-0.7934999084,-2.419568481,1.884281616,3.167723307
50.54785717,3.16397049,-0.5848338318,-3.619173889,4.842639725
50.55793917,7.942633209,-3.604803772,-9.960437164,13.23972587
50.56802117,12.47311203,-8.897796936,-12.89703049,20.02704944
50.57810317,14.82457214,-12.61486725,-12.37791,23.0676282
50.58818517,16.22491013,-13.91671005,-6.395600281,22.31201986
50.59826717,14.49855011,-14.34511917,17.24384125,26.70843425
50.60834917,3.067570953,-14.11834076,19.23709625,24.05833347
50.61843117,-2.219734039,-11.7355957,-3.53594696,12.45609677
50.62851417,-4.116739197,-7.70852005,-5.412594452,10.27934831
50.63859617,-2.845881958,-5.313650208,-4.933440857,7.789272196
50.64867817,0.2365081787,-5.446573792,-6.945706329,8.829719055
50.65876017,3.550766144,-7.169790344,-8.227341156,11.47619172
50.66884217,5.1226474,-8.390052795,-7.534731445,12.38574504
50.67892417,5.054239655,-8.912466431,-6.138135681,11.94378943
50.68900617,4.117337952,-9.568252716,-4.371210022,11.29652198
50.69908817,2.747087402,-10.35726196,-2.235002289,10.94598556
50.70917017,0.7813751221,-11.49594406,0.273331604,11.52570983
50.71925217,-1.164727936,-12.67025208,1.69312912,12.83583129
50.72933417,-1.862277374,-12.87637344,1.658700714,13.11565317
50.73941617,-1.279239807,-12.06985062,0.785716095,12.16285732
50.74949817,0.02559677124,-10.71786209,0.4278103638,10.7264274
50.75958017,0.6427633667,-9.159153442,0.5623805237,9.198886258
50.76966317,0.7295828247,-7.715256042,0.4020639038,7.760098085
50.77974517,1.352736969,-6.571484528,-0.005239105225,6.709272215
50.78982717,1.649420013,-6.258036346,-0.8422984314,6.526336793
50.79990917,1.462458801,-6.624923401,-1.55391861,6.960104802
50.80999117,1.130000153,-7.41243576,-1.37249588,7.622653684
50.82007317,0.8696914673,-8.428971863,-0.8497828674,8.51622339
50.83015517,0.8647517395,-9.118887177,-0.2264790344,9.16259743
50.84023717,0.7189549255,-8.964408417,0.2168989563,8.995807891
50.85031917,0.1224453735,-8.708740082,0.628692627,8.732262084
50.86040117,-0.4607418823,-8.335117035,0.8839118958,8.394507687
50.87048317,-0.8277786255,-8.039781189,0.7608677673,8.118018156
50.88056517,-0.8243357849,-8.048912201,0.2496807861,8.094866126
50.89064717,-0.4710704041,-8.066126404,-0.3606001282,8.087912891
50.90073017,-0.1143621826,-8.16716629,-0.8617579651,8.213300841
50.91081217,-0.03023712158,-8.607849884,-0.7493417358,8.640457566
50.92089417,-0.3019221497,-9.889784088,0.1413061523,9.895400635
50.93097617,-0.6734495544,-11.3242511,1.316961365,11.4204459
50.94105817,-0.7533833313,-12.02165085,2.214195557,12.24705424
50.95114017,-1.09632019,-11.74322983,2.389481049,12.03390977
50.96122217,-1.555714874,-11.15674942,1.97155014,11.43592219
50.97130417,-1.766177216,-11.79457306,1.647773438,12.03937261
50.98138617,-2.474803619,-12.99792068,1.657503204,13.33483828
50.99146817,-3.755091248,-13.73214386,1.826052704,14.35294234
51.00155017,-4.727469177,-13.81821487,2.261497192,14.77857898
51.01163217,-5.066663818,-13.52257965,3.173550568,14.78521782
51.02171417,-4.396357727,-12.84119659,4.730163574,14.37354301
51.03179617,-2.982098694,-12.48912872,5.12848526,13.82651836
51.04187817,-1.912273407,-13.09312271,4.512815552,13.98042046
51.05196117,-1.957928467,-13.32079926,5.108127594,14.40035222
51.06204317,-2.795586548,-12.98145493,5.84339859,14.50788693
51.07212517,-2.621498566,-13.27349762,4.649181976,14.30639322
51.08220717,-1.17011673,-14.49615509,0.9578581238,14.57481313
51.09228917,-0.06810836792,-15.89424774,-5.193599854,16.72140034
51.10237117,0.7771838379,-18.05335785,-11.01005447,21.16008138
51.11245317,3.250640259,-19.94063324,-9.89068222,22.494913
51.12253517,6.5758255,-20.29868866,-4.724924469,21.85413356
51.13261717,7.675289154,-18.84386398,1.582359467,20.40845744
51.14269917,7.478448486,-16.33328476,6.914571075,19.24875778
51.15278117,8.293952637,-14.66874619,6.426286469,18.03493617
51.16286317,9.150172119,-13.47333206,1.918260956,16.39926985
51.17294517,8.230484619,-12.04290665,-1.21577179,14.63730093
51.18302817,4.72477478,-10.31909134,-1.514700165,11.44995456
51.19311017,0.6622229004,-8.73463623,-0.647403717,8.783594983
51.20319217,-2.435136108,-7.975115662,-1.185834045,8.422503195
51.21327417,-3.531456299,-7.479945374,-2.141895905,8.544500246
51.22335617,-2.068847809,-7.214547272,-2.319726105,7.855631916
51.23343817,-0.1833686829,-7.088209991,-1.791773987,7.31346696
51.24352017,1.275796967,-6.903643799,-1.755998383,7.236814625
51.25360217,2.100581818,-6.852300568,-2.226170654,7.50481864
51.26368417,2.818039856,-6.805747375,-1.991009674,7.630443335
51.27376617,2.664459229,-6.707252197,-1.699865112,7.414588081
51.28384817,2.305805054,-5.981411591,-1.687590637,6.628874997
51.29393017,1.284628601,-4.796924744,-1.548230438,5.201708866
51.30401217,0.460891571,-3.48220871,-1.43102417,3.792891867
51.31409417,0.4812492371,-2.073787537,-1.881138153,2.840928779
51.32417708,0.6830296326,-0.6174659729,-2.441423035,2.609279621
51.33425908,0.9949809265,0.4519102478,-2.801873474,3.007441584
51.34434108,1.517993317,0.4613406372,-2.625839539,3.067926364
51.35442308,2.504891052,0.4439767456,-2.077829132,3.284656517
51.36450508,3.349135437,0.07828720093,-1.222358093,3.566089787
51.37458708,4.067491608,-0.7467970276,-0.3556604004,4.150745487
51.38466908,4.182452545,-2.333796844,0.726738739,4.844343733
51.39475108,3.639980621,-4.786596222,2.504591675,6.514134
51.40483308,2.542013855,-7.951165466,5.332510986,9.905480308
51.41491508,1.105151825,-12.3473735,9.424701233,15.5725395
51.42499708,-0.7767347717,-17.97986069,14.19288574,22.91978868
51.43507908,-4.75171875,-26.72302917,31.17177795,41.33253997
51.44516108,-9.174272003,-35.86047775,29.78610947,47.51161383
51.45524308,-9.449399872,-34.65653137,8.908424835,37.00981434
51.46532608,-8.168962555,-21.22541153,2.659818878,22.89813705
51.47540808,-5.592520294,-9.012608185,2.319875793,10.85749572
51.48549008,-3.909719696,-2.339335327,1.435963898,4.777069205
51.49557208,-1.482217712,-0.4107458496,-2.836750946,3.226892844
51.50565408,2.861000519,-2.598596191,-9.360933838,10.12744333
51.51573608,9.164392548,-7.355703735,-12.88909698,17.44194053
51.52581808,14.60258377,-12.06161774,-12.34093689,22.60568067
51.53590008,16.35334305,-14.81199829,-7.61376709,23.34087769
51.54598208,16.32550095,-16.83728668,7.679031372,24.67759564
51.55606408,7.46048584,-18.74701538,27.95855988,34.47884141
51.56614608,-0.01871109009,-15.07814484,5.83292038,16.16705793
51.57622808,-1.538500671,-9.269773407,-6.098318481,11.20201641
51.58631008,-1.649270325,-4.977748718,-5.494174805,7.59500044
51.59639308,-0.342487793,-2.611918488,-6.035000153,6.584879871
51.60647508,2.119891663,-3.004102936,-6.521189117,7.486286303
51.61655708,4.795278168,-5.25482254,-7.478149109,10.32136458
51.62663908,5.505850525,-6.986122284,-7.864346008,11.87300437
51.63672108,4.292473755,-8.223299561,-7.269632721,11.78539547
51.64680308,2.418221283,-9.876012726,-5.525609436,11.57219863
51.65688508,0.2412982178,-11.80160843,-2.492766266,12.06441337
51.66696708,-2.336940308,-13.41824661,0.4056564331,13.62626836
51.67704908,-3.736529846,-13.74666367,2.009271698,14.38643771
51.68713108,-3.516936493,-12.89493484,2.168839874,13.54075527
51.69721308,-2.213447113,-11.33936966,1.530118103,11.65426591
51.70729508,-0.7571255493,-9.633816376,0.6277944946,9.683892966
51.71737708,-0.07349716187,-8.309669952,0.1228944397,8.310903657
51.72745908,0.7623646545,-7.381300507,-0.3144960022,7.42722726
51.73754208,2.12483139,-7.057074738,-1.361867981,7.494791304
51.74762408,2.708617401,-7.317982178,-1.748513947,7.996672583
51.75770608,2.885250092,-7.937244415,-1.0577005,8.5113599
51.76778808,2.393522644,-8.717721405,-0.3113525391,9.045692762
51.77787008,1.704056396,-9.239386597,0.5159770203,9.409373261
51.78795208,0.8325686646,-9.38293808,1.047521667,9.477868918
51.79803408,0.2240840149,-8.873098297,1.48251709,8.998885706
51.80811608,-0.5186714172,-8.452323303,1.836081848,8.664986198
51.81819808,-1.108295288,-8.122858429,1.515598297,8.337036986
51.82828008,-1.272952881,-7.787705383,-0.0556842041,7.891252429
51.83836208,-0.8376580811,-7.553442535,-2.190544739,7.909149856
51.84844408,0.2221380615,-7.492219849,-3.181633759,8.142818735
51.85852608,0.7194039917,-7.833210754,-2.510429535,8.257056938
51.86860908,0.6866221619,-8.65155899,-0.7238946533,8.708900414
51.87869108,0.6092330933,-9.893975372,1.175505524,9.982170449
51.88877308,0.5727090454,-11.14791779,2.568658447,11.45434733
51.89885508,0.803379364,-11.84546722,3.26800415,12.31423417
51.90893708,1.008452911,-11.9387233,3.100801849,12.37598737
51.91901908,0.1941462708,-12.01775894,2.029479675,12.18946309
51.92910108,-1.092128906,-12.37820938,0.7735913086,12.45035166
51.93918308,-2.652783508,-12.43554016,0.0130229187,12.71534856
51.94926508,-4.411326599,-12.38868759,0.1083746338,13.15108846
51.95934708,-5.807772675,-12.50304977,0.904119873,13.81571243
51.96942908,-6.359674988,-12.73656418,2.307002563,14.42178192
51.97951108,-5.857020264,-12.58088791,3.913461914,14.41868965
51.98959308,-4.69902832,-12.62818954,4.752317505,14.28763661
51.99967608,-3.846551056,-12.66246826,4.451443176,13.96242829
52.00975808,-3.358266449,-11.99515594,4.17721344,13.13814415
52.01984008,-3.497776337,-11.69802383,5.046904907,13.21171639
52.02992208,-2.642305298,-12.41084152,5.675747223,13.90053492
52.04000408,-0.8375083923,-13.94245651,3.972888336,14.52161684
52.05008608,0.69620224,-15.54786804,-2.079326019,15.70173541
52.06016808,2.098486176,-17.54726028,-9.340426483,19.98883575
52.07025008,4.985083466,-19.37690552,-10.44093796,22.56831208
52.08033208,8.610394592,-20.29988617,-6.083948364,22.87441149
52.09041408,11.56824371,-19.92686188,-0.1055305481,23.04159768
52.10049608,10.70543793,-17.85966064,6.322701874,21.76121409
52.11057808,8.564290466,-15.58603867,8.477770386,19.70137719
52.12066008,7.937094727,-13.74726242,4.653522949,16.54206676
52.13074208,7.559430084,-12.47999771,-0.3475772095,14.59507232
52.14082508,4.252506866,-11.57617722,-2.6993367,12.62450443
52.15090708,0.1362167358,-9.761800232,-1.9972966,9.964963245
52.16098908,-2.437381439,-8.31116684,-1.625769196,8.812459815
52.17107108,-3.518583069,-7.520960083,-1.714983673,8.478586933
52.18115308,-2.32032486,-7.050638123,-1.433269501,7.559739867
52.19123508,-0.3935316467,-6.738686829,-1.636097717,6.945616105
52.20131708,1.064286804,-6.345454559,-1.747466125,6.667168651
52.21139908,2.147434387,-6.313570862,-1.717827759,6.886478322
52.22148108,2.543660431,-6.523584137,-1.899998932,7.25516053
52.23156308,2.540666656,-6.560856628,-1.442550201,7.181975901
52.24164508,2.145488434,-6.236331482,-1.273401947,6.716881977
52.25172708,0.9918374634,-5.509293365,-1.12326416,5.709446323
52.26180908,0.3121009827,-4.329147491,-1.124761047,4.483749819
52.27189208,0.08187973022,-2.928510132,-1.611698456,3.343717661
52.28197408,0.5182223511,-1.333726501,-2.334694977,2.738280742
52.29205608,1.197659454,-0.1137634277,-2.592758331,2.858273264
52.30213808,2.011966095,0.4327500916,-2.294728088,3.082378499
52.31222008,2.974913635,1.002465363,-1.879790955,3.659052059
52.32230208,3.572620697,0.310304718,-1.142124939,3.763556435
52.33238367,4.21463562,-0.3945794678,-0.1648072815,4.236272867
52.34246567,4.354444885,-1.411564636,0.9228309631,4.669616897
52.35254767,4.17257309,-3.158731384,1.849254456,5.550467745
52.36262967,3.632346497,-5.502407684,2.992277527,7.240452762
52.37271167,2.255060577,-8.890013123,5.939049683,10.92657049
52.38279367,0.8560697937,-14.11130539,11.48950745,18.2173153
52.39287667,-1.773511963,-20.92378876,18.59358444,28.04766769
52.40295867,-7.097490692,-31.31952072,34.77508484,47.33490549
52.41304067,-11.89681046,-39.0223526,24.00318512,47.33319129
52.42312267,-11.79382462,-32.60055679,5.112318878,35.04320771
52.43320467,-8.889414368,-17.13756226,2.631677399,19.48444133
52.44328667,-6.163133698,-6.395899658,3.150049438,9.424147753
52.45336867,-3.754342804,-0.8390052795,1.177601166,4.023153521
52.46345067,-1.256786499,0.8873547363,-5.708379364,5.912064419
52.47353267,1.851200409,-0.3041674805,-12.80048126,12.93722464
52.48361467,8.763226776,-4.995711365,-15.45670761,18.45700641
52.49369667,16.0009758,-11.47259262,-11.91043213,23.01108432
52.50377867,18.43581253,-15.72584793,-7.187752991,25.27538862
52.51386067,19.6518837,-19.50129684,16.24796219,32.10129883
52.52394267,8.385861511,-21.42150375,33.05815521,40.27462132
52.53402567,-0.633482666,-15.93765747,0.008831634521,15.95024464
52.54410767,-2.931952972,-9.469607849,-12.11311066,15.65238866
52.55418967,-2.923720093,-5.737119598,-7.687863007,10.02825598
52.56427167,-0.7381150818,-3.236569519,-5.430557098,6.364836724
52.57435367,2.19039505,-3.438499603,-6.012696533,7.26454607
52.58443567,5.099595337,-5.180876312,-8.020171967,10.8245328
52.59451767,6.094426575,-6.502328339,-9.840237122,13.27601505
52.60459967,5.60359726,-8.190667419,-8.539142761,13.09214628
52.61468167,4.521796875,-10.17913239,-4.816533966,12.1350889
52.62476367,2.369572449,-12.36713242,-1.374591522,12.66689937
52.63484567,-0.2622546387,-14.22536819,1.334175568,14.29020302
52.64492767,-1.98562088,-14.93010269,3.285966797,15.41584362
52.65501067,-2.751877441,-14.15965485,3.611240387,14.8697583
52.66509267,-2.3038591,-11.62302979,1.739382935,11.97614467
52.67517467,-1.34674942,-9.069789276,0.08008346558,9.169581499
52.68525667,-0.3390449524,-7.301666107,-0.8364605713,7.357237641
52.69533867,0.8241860962,-6.326144714,-1.929188232,6.664919872
52.70542067,2.131268005,-6.04937027,-2.180365906,6.774302876
52.71550267,2.630928955,-6.256689148,-2.209405518,7.137886172
52.72558467,2.245330811,-7.005881195,-1.643582153,7.538252056
52.73566667,1.331032104,-8.037835236,-0.7047344971,8.177719269
52.74574867,0.3785627747,-9.11843811,0.08577163696,9.126696013
52.75583067,-0.5617817688,-9.492659912,0.6448590088,9.531108755
52.76591267,-1.672921143,-9.451645203,1.038091278,9.654527212
52.77599467,-2.146685944,-9.088799744,1.471440125,9.454082576
52.78607767,-1.947749634,-8.400980072,1.425335999,8.740811033
52.79615967,-1.522633667,-7.764952698,0.445922699,7.925386472
52.80624167,-0.5899232483,-7.638016663,-0.8571176147,7.708563977
52.81632367,0.1049317932,-8.355774078,-1.677561493,8.523155736
52.82640567,0.4990621948,-9.313183136,-1.384021912,9.428677524
52.83648767,0.518821106,-10.41623932,-0.1866618347,10.43082257
52.84656967,0.3335064697,-11.31287476,1.635648651,11.43537093
52.85665167,-0.1231938171,-11.61569504,3.175945587,12.04268152
52.86673367,-0.4379891968,-11.27470413,3.40960968,11.78712119
52.87681567,-0.795894928,-11.33308273,2.250270538,11.58170672
52.88689767,-1.13613739,-12.38808884,1.004411316,12.4805607
52.89697967,-1.909429321,-13.25882812,0.7411088562,13.41609801
52.90706167,-2.971919861,-13.49354004,1.262175293,13.87447357
52.91714467,-3.50795517,-13.11647415,2.186353455,13.7523738
52.92722667,-3.635190582,-12.75991562,3.594175873,13.74584146
52.93730867,-3.172353058,-12.38928635,4.987628174,13.72715101
52.94739067,-2.463726654,-12.11775101,5.337750092,13.46853424
52.95747267,-2.287393341,-12.53313721,4.592150574,13.54250876
52.96755467,-2.577190704,-12.5252037,4.371359711,13.51411949
52.97763667,-3.416794739,-11.91597061,5.396727448,13.51996705
52.98771867,-3.729195099,-11.95429092,5.214256897,13.56467628
52.99780067,-2.794987793,-12.94238617,2.017504578,13.39356716
53.00788267,-1.730102234,-14.87441849,-3.415896606,15.35935965
53.01796467,-0.5789959717,-17.7819722,-9.203760681,20.03105045
53.02804667,2.424957275,-20.25647644,-11.13055389,23.23993299
53.03812867,6.756350098,-21.16014725,-7.968828735,23.59877814
53.04821167,9.998009033,-20.6842868,-1.208886108,23.00567997
53.05829367,9.505383453,-17.30775833,6.487060089,20.78443556
53.06837567,7.947722626,-13.86207367,8.937464447,18.3085131
53.07845767,7.474406891,-12.1258342,5.7755896,15.37075303
53.08853967,6.632407837,-11.06139771,1.793869629,13.02157138
53.09862167,3.377576294,-11.14612152,-1.064286804,11.69515938
53.10870367,-0.5219645691,-11.02816681,-1.335373077,11.12097709
53.11878567,-3.748205566,-9.98079483,-1.517693939,10.7688767
53.12886767,-4.769082642,-8.988208923,-1.566642151,10.29497045
53.13894967,-3.204236755,-8.296197968,-1.409768372,9.004525571
53.14903167,-1.045126648,-7.796537018,-1.659748535,8.039467917
53.15911367,0.7822732544,-7.411387939,-2.237546997,7.781210651
53.16919667,2.284998322,-7.176226959,-2.759810944,8.020972955
53.17927867,3.221900024,-6.979685669,-2.975811768,8.243306829
53.18936067,3.858675842,-6.856342163,-2.674638062,8.309783142
53.19944267,3.833827515,-6.769672394,-2.51447113,8.176139847
53.20952467,3.146756287,-6.514752502,-2.475552063,7.646726967
53.21960667,2.318378906,-6.008654938,-2.074086914,6.76614007
53.22968867,1.798509979,-5.102289734,-1.989213409,5.764110396
53.23977067,1.581760712,-3.792812805,-2.336491241,4.727217707
53.24985267,1.776356049,-2.577041016,-2.682571564,4.122228936
53.25993467,2.212848358,-0.9301657104,-3.082839203,3.907147765
53.27001667,2.353855133,-0.06047424316,-2.461930389,3.406668807
53.28009867,2.862198029,0.01901046753,-1.435365143,3.202001256
53.29018067,3.290457458,0.0809815979,-0.8310717773,3.394753099
53.30026367,3.544778595,-0.5806425476,0.1685494995,3.595971355
53.31034567,3.542383575,-1.623523865,1.225202179,4.084780473
53.32042767,2.787503357,-3.598516846,2.646496582,5.265305557
53.33050979,1.965412903,-6.415658569,5.141059113,8.453047472
53.34059179,0.8996292114,-9.943073273,8.809330902,13.31459161
53.35067379,-1.178948364,-14.66051331,13.63649277,20.05678201
53.36075579,-3.463198242,-21.81862793,22.91554688,31.83030875
53.37083779,-4.973557434,-32.40895523,32.96564758,46.49527474
53.38091979,-2.068099365,-36.37331131,19.68421646,41.40969921
53.39100179,-0.5441184998,-25.81202362,5.766009521,26.45379924
53.40108379,-0.3766168213,-12.74569519,0.9434880066,12.78611574
53.41116579,-0.9809101868,-5.311704254,-0.9190887451,5.479152398
53.42124779,0.2878514099,-1.487756195,-0.3749702454,1.561050805
53.43133079,1.239721985,0.3017724609,-0.8105644226,1.511618967
53.44141279,3.014281769,-0.03188369751,-3.244353333,4.428627293
53.45149479,5.88665863,-3.240760803,-8.404422913,10.76055783
53.46157679,7.358547821,-6.781647491,-14.30859512,17.46066617
53.47165879,8.874894562,-9.745184784,-12.09948898,17.89217744
53.48174079,8.788673859,-11.90998306,-3.145708466,15.13221618
53.49182279,7.558082886,-19.74124786,36.94078125,42.56128292
53.50190479,2.794838104,-23.94196243,13.98691406,27.86866431
53.51198679,1.68848877,-16.32265686,-15.84724548,22.81261297
53.52206879,-1.414708099,-8.467441864,-8.212971039,11.88073499
53.53215079,-2.647694092,-4.342320099,-5.030588837,7.153520245
53.54223279,-1.248852997,-3.912563782,-5.758375397,7.072953864
53.55231579,0.3041674805,-5.761219482,-5.334606628,7.857620229
53.56239779,1.97155014,-7.815996552,-5.866899719,9.969820679
53.57247979,2.201771393,-9.603728943,-7.090006256,12.13868179
53.58256179,1.257385254,-10.56158707,-6.731052704,12.58710489
53.59264379,1.647024994,-11.17261642,-5.112468567,12.39666826
53.60272579,2.659968567,-11.50253036,-3.107388153,12.20817344
53.61280779,2.87611908,-11.68889282,-0.3345542908,12.04218431
53.62288979,2.802771606,-11.72377029,2.633024597,12.33836039
53.63297179,2.63272522,-11.09073669,4.007616119,12.08290815
53.64305379,2.293979645,-10.17853363,3.487148438,11.00114056
53.65313579,2.12258606,-9.410031738,2.193987579,9.892808014
53.66321779,2.28170517,-8.431067505,0.8062234497,8.77149212
53.67329979,1.732197876,-7.876919861,-0.2817141724,8.070051973
53.68338279,1.320104828,-7.865842896,-0.5554948425,7.995169525
53.69346479,0.7324269104,-7.958350525,-0.6194119263,8.015950561
53.70354679,0.02080673218,-8.200247498,-0.8512797546,8.244341645
53.71362879,-0.6480024719,-8.435558167,-1.06009552,8.526567381
53.72371079,-1.256337433,-8.431217194,-0.7559280396,8.55775872
53.73379279,-1.631457367,-8.387957153,0.1980381775,8.547438064
53.74387479,-1.820214844,-8.30996933,0.7530839539,8.540252208
53.75395679,-1.874252472,-8.054151306,0.4540058899,8.281805174
53.76403879,-1.453327789,-7.779771881,-0.1582209778,7.915936209
53.77412079,-0.4390370178,-7.782466278,-0.6456074524,7.821530787
53.78420279,0.3550616455,-8.148155823,-0.826431427,8.197652163
53.79428479,0.8669970703,-8.607400818,-0.6969506836,8.678984561
53.80436679,1.152902527,-9.130562897,-0.1721420288,9.204672505
53.81444979,1.073417816,-9.883048096,0.4173321533,9.949926211
53.82453179,0.9476792908,-10.71696396,1.367705841,10.84536914
53.83461379,0.4749623108,-11.43546982,2.758912811,11.77315417
53.84469579,-0.4486170959,-12.16580109,4.115541687,12.85090101
53.85477779,-1.376387787,-12.58582764,4.051175537,13.29321345
53.86485979,-1.966311035,-12.77847702,1.951491852,13.07532694
53.87494179,-2.595901794,-13.05809555,-0.2263293457,13.31554695
53.88502379,-3.645219727,-13.60865067,-0.1663041687,14.089381
53.89510579,-4.571942596,-14.09334274,1.499880981,14.89209897
53.90518779,-5.107828217,-13.83707565,3.55585556,15.17229978
53.91526979,-4.486170959,-13.00630325,5.130730591,14.68380232
53.92535179,-3.286415863,-13.02366714,5.741909637,14.60773635
53.93543479,-1.928589478,-12.70363266,5.614973602,14.02247013
53.94551679,-1.53745285,-11.43861328,5.437592468,12.75825407
53.95559879,-1.97858551,-10.89569229,6.173312531,12.67835552
53.96568079,-2.173779602,-12.36922806,5.378315735,13.66196914
53.97576279,-1.253643036,-15.47212555,2.186802521,15.67610906
53.98584479,0.5442681885,-17.95725769,-4.283043365,18.46899543
53.99592679,1.753154297,-19.88524841,-10.61846878,22.61080568
54.00600879,3.538042603,-21.02063736,-11.57318344,24.25538116
54.01609079,5.226531372,-19.28110474,-7.603288879,21.37492998
54.02617279,4.380041656,-16.04558304,0.1999841309,16.63386586
54.03625479,4.771327972,-13.93901367,7.029532013,16.32409241
54.04633679,6.356681213,-13.74471771,9.095984802,17.66526537
54.05641979,7.230563965,-13.21511902,4.331991577,15.67439239
54.06650179,7.342830505,-12.12149323,-1.120569763,14.21630875
54.07658379,4.296665039,-11.60237274,-1.414408722,12.45298903
54.08666579,0.9725276184,-10.77369598,-1.420695648,10.91039464
54.09674779,-0.3124003601,-9.357490997,-1.998344421,9.573589305
54.10682979,-1.190773773,-8.323291626,-2.924318848,8.902065288
54.11691179,-0.7764353943,-7.925868073,-2.67478775,8.400995544
54.12699379,0.2772235107,-7.736511841,-2.097138977,8.020502492
54.13707579,0.8985813904,-7.63711853,-2.038161621,7.955320908
54.14715779,1.641336823,-7.381001129,-1.887874146,7.793409589
54.15723979,1.909429321,-7.079228668,-1.50946106,7.48597833
54.16732179,2.00552948,-6.435716858,-1.650018768,6.939968437
54.17740479,1.527723083,-5.601351929,-1.864373016,6.097947851
54.18748679,0.8192463684,-4.579576721,-2.058668976,5.087416388
54.19756879,0.4487667847,-3.554208984,-2.351011047,4.284979122
54.20765079,0.7825726318,-2.855611725,-2.207160187,3.693033216
54.21773279,1.339863739,-1.644929352,-2.578537903,3.339144371
54.22781479,1.639390869,-0.5037025452,-2.634820862,3.143819278
54.23789679,2.165696411,-0.243842926,-2.303410034,3.171024772
54.24797879,2.722388763,0.3570075989,-1.992207184,3.392306659
54.25806079,3.540287933,0.4179309082,-1.22385498,3.769101472
54.26814279,4.414919128,0.21061203,-0.2285746765,4.425846215
54.27822479,4.821773071,-0.675844574,0.739611969,4.924762665
54.28830679,4.558021545,-2.678679657,1.925146637,5.626462004
54.29838879,3.708837433,-5.509293365,3.621868286,7.56476823
54.30847179,2.404749298,-9.522597656,6.843618622,11.97070596
54.31855379,0.7003935242,-15.02141281,11.68589905,19.04451707
54.32863558,-1.838027802,-21.82177139,19.15880905,29.09687298
54.33871758,-5.977669373,-32.26345779,35.40497498,48.27189133
54.34879958,-7.738607483,-38.18634109,21.30609375,44.40757056
54.35888158,-6.873256989,-29.13122131,3.204087067,30.10209114
54.36896358,-6.031108246,-14.23928925,0.2978805542,15.46675007
54.37904558,-4.288432159,-5.247188416,1.275796967,6.89574467
54.38912758,-1.168320465,-1.441053314,1.793270874,2.580199177
54.39920958,3.669020233,-2.585124207,-2.257455597,5.02401059
54.40929158,8.984317017,-6.495442657,-8.365354156,13.88840803
54.41937358,10.97906891,-9.590855713,-10.20383102,17.79445518
54.42945658,10.72130493,-10.98161362,-9.332193604,17.96196132
54.43953858,9.128167877,-11.60970749,-5.878575439,15.89548382
54.44962058,4.870421906,-12.85242325,9.586664429,16.75738428
54.45970258,-1.867815857,-11.67107986,10.70798264,15.9487847
54.46978458,-3.628604279,-9.568252716,1.206790466,10.30410463
54.47986658,-3.320993958,-6.82984726,-3.028651886,8.176096055
54.48994858,-1.2660672,-5.922434235,-5.103487244,7.919831783
54.50003058,2.033072205,-7.663763123,-7.110214233,10.64996687
54.51011258,4.412673798,-9.483977966,-7.540718994,12.89495913
54.52019458,5.104385376,-10.19320312,-6.720724182,13.23345282
54.53027658,4.646637268,-10.08183472,-5.488636322,12.38385069
54.54035858,3.908971252,-9.672885132,-4.093088379,11.2070574
54.55044158,3.444487152,-10.0197139,-2.035616913,10.78901731
54.56052358,2.313738556,-11.0190358,0.3659889221,11.2652778
54.57060558,0.7417076111,-12.11505661,1.736688538,12.26135449
54.58068758,-0.06885681152,-12.35889954,1.607058105,12.46313663
54.59076958,-0.07349716187,-11.79098053,1.200353851,11.85215057
54.60085158,0.09924362183,-10.64571213,0.650098114,10.66600504
54.61093358,0.2688409424,-9.358987885,0.2070195007,9.365136771
54.62101558,0.409997406,-8.39888443,-0.3763174438,8.417301964
54.63109758,0.8143066406,-7.510631561,-0.9252259827,7.611092226
54.64117958,0.3815565491,-7.034621429,-1.347198486,7.172616525
54.65126158,-0.043409729,-7.08491684,-1.755549316,7.29930712
54.66134358,0.1881587219,-7.449558563,-1.788331146,7.663514519
54.67142658,0.2868035889,-8.123756561,-1.451830902,8.257450571
54.68150858,0.5086422729,-8.592581635,-0.3568579102,8.615017335
54.69159058,0.4632865906,-8.487649841,0.5760021973,8.519777745
54.70167258,0.1284329224,-8.055199127,1.194366302,8.144276448
54.71175458,-0.397124176,-7.563321991,1.38536911,7.699402231
54.72183658,-0.8608598328,-7.329358521,0.9976753235,7.446873977
54.73191858,-0.6614744568,-7.49087265,0.2393522644,7.523829545
54.74200058,0.09265731812,-8.085585938,-0.1472937012,8.087458239
54.75208258,0.4210743713,-8.862769775,-0.1751358032,8.874495156
54.76216458,0.4198768616,-9.641300812,0.3201841736,9.655749366
54.77224658,0.06960525513,-10.41893372,1.130898285,10.48036047
54.78232858,-0.4317022705,-10.9539212,1.97858551,11.13954924
54.79241158,-0.8653504944,-11.28637985,2.726580048,11.64325729
54.80249358,-1.360670471,-11.76493469,3.03868103,12.22696589
54.81257558,-1.502126312,-12.45499969,2.465672607,12.7852627
54.82265758,-1.723216553,-12.87742126,1.428479462,13.07050142
54.83273958,-2.450853424,-12.62280075,0.7309300232,12.87928725
54.84282158,-3.285966797,-12.30995132,0.686023407,12.7594321
54.85290358,-3.907773743,-12.52056335,1.769021301,13.23497785
54.86298558,-3.855831757,-12.91080185,3.501069489,13.92169999
54.87306758,-3.133284302,-12.89852737,4.257147217,13.93961195
54.88314958,-2.621947632,-12.8570636,3.438499603,13.5647327
54.89323158,-2.636467438,-12.51457581,2.994522858,13.13517169
54.90331358,-3.063828735,-11.56285492,4.12691803,12.6537786
54.91339658,-3.478765869,-11.31317413,5.178181915,12.91910558
54.92347858,-2.771786041,-12.59465927,4.436025238,13.63768895
54.93356058,-0.7152127075,-15.0387767,2.659669189,15.28889055
54.94364258,1.688788147,-16.76468765,-1.91421936,16.95791831
54.95372458,3.858825531,-18.29615295,-8.693322144,20.62070797
54.96380658,6.653663635,-19.58916412,-10.68747528,23.28580509
54.97388858,9.819580078,-19.65562592,-6.530469818,22.92192878
54.98397058,10.68957092,-18.24121719,0.7746391296,21.15677189
54.99405258,9.130562897,-16.41755951,6.755451965,19.96345587
55.00413458,8.541837158,-15.06123001,7.25690918,18.77408752
55.01421658,8.59078537,-13.8310881,3.550167389,16.66446158
55.02429858,8.092621307,-12.08945984,-0.03173400879,14.54807774
55.03438158,5.697452087,-10.08093658,-2.61161911,11.87041689
55.04446358,1.109792175,-8.962163086,-2.570155334,9.389233424
55.05454558,-1.557211761,-8.333620148,-1.54329071,8.617185124
55.06462758,-2.516566772,-7.841593323,-2.411485291,8.58131432
55.07470958,-1.403631134,-7.848479004,-2.265838165,8.288716766
55.08479158,0.7301815796,-7.808811493,-1.615740051,8.007578784
55.09487358,1.811083832,-7.559430084,-1.790875854,7.976982147
55.10495558,2.049837341,-7.271279297,-1.585652618,7.719302427
55.11503758,2.346520386,-7.056925049,-1.000220032,7.50378499
55.12511958,1.914818115,-6.519841919,-1.291364594,6.916826554
55.13520158,1.179098053,-5.67020874,-1.503174133,5.98339969
55.14528458,0.4788542175,-4.359534302,-1.667232971,4.6919619
55.15536658,-0.1660047913,-3.384611664,-1.514849854,3.711862576
55.16544858,0.2627037048,-2.188748474,-1.834435272,2.867888751
55.17553058,0.7893086243,-1.101409607,-2.170037384,2.558353665
55.18561258,1.574875031,-0.3330574036,-2.352957001,2.850888501
55.19569458,2.234702911,0.03188369751,-2.31209198,3.215693237
55.20577658,2.710862732,-0.122744751,-1.852397919,3.285608174
55.21585858,2.878813477,-0.8614585876,-1.115031281,3.205147842
55.22594058,3.203787689,-1.395098877,-0.03248245239,3.494511632
55.23602258,3.041525116,-2.330204315,1.262923737,4.034315747
55.24610458,2.789299622,-3.833079071,2.352957001,5.292361873
55.25618658,2.155816956,-5.853876801,4.168830872,7.502970823
55.26626958,0.8942404175,-9.278605042,7.768545227,12.13435093
55.27635158,-1.245260468,-14.18106033,12.8623027,19.18572325
55.28643358,-6.083349609,-21.77102692,23.23363541,32.41583825
55.29651558,-11.2658725,-31.87202179,27.99029388,43.88852023
55.30659758,-9.81119751,-35.99370071,14.83984039,40.15005542
55.31667958,-7.267986145,-26.63725754,8.223299561,28.80954299
55.32676204,-5.592220917,-13.65161133,6.937174072,16.30226398
55.33684404,-2.97790741,-6.644083557,4.087549896,8.349840897
55.34692604,-0.5063969421,-2.428400116,0.7708969116,2.59766184
55.35700804,2.726729736,-1.785337372,-3.723057861,4.94809503
55.36709004,7.013814697,-5.670957184,-9.156608734,12.85289211
55.37717204,12.35051697,-11.5923436,-13.96326324,21.95200264
55.38725504,15.36913971,-14.34317322,-14.43253738,25.49970997
55.39733704,15.60235474,-12.89852737,-7.753726044,21.67777086
55.40741904,13.45986008,-11.60237274,19.359841,26.27900931
55.41750104,3.614832916,-11.76658127,24.46856735,27.39033114
55.42758304,0.03053649902,-9.47305069,0.3034190369,9.477957848
55.43766504,-2.483186188,-5.249284058,-6.561754761,8.762295493
55.44774704,-2.469414825,-3.93501709,-6.909781036,8.32631029
55.45782904,0.8714877319,-5.153183899,-8.848100281,10.27636481
55.46791104,3.452121277,-7.442373505,-9.101972351,12.2536511
55.47799304,3.855682068,-8.949140167,-7.578440552,12.34447873
55.48807504,3.159479828,-9.914333038,-5.679040375,11.85444271
55.49815704,1.76333313,-10.78297668,-3.503913574,11.4742904
55.50824004,-0.2083666992,-12.17433334,-1.373244324,12.25331012
55.51832204,-2.062560883,-13.80384476,0.2471360779,13.95927519
55.52840404,-3.092119904,-14.52893692,1.016087036,14.88904451
55.53848604,-2.892285461,-13.90428589,0.8196954346,14.22555383
55.54856804,-1.49419281,-12.19319412,0.2052232361,12.28611866
55.55865004,0.2877017212,-10.11371841,0.01137634277,10.11781606
55.56873204,1.434317322,-8.198151855,0.1312770081,8.323712734
55.57881404,2.732866974,-6.909032593,0.4740641785,7.445000343
55.58889604,4.26732605,-6.460714874,0.7141648865,7.775663302
55.59897804,4.670737152,-6.48930542,0.157023468,7.996969848
55.60906004,4.496499481,-6.73269928,-0.2790197754,8.100962857
55.61914304,3.484304352,-7.431745605,-0.02424957275,8.208033114
55.62922504,2.213596802,-8.142767029,0.02005828857,8.438309548
55.63930704,1.303788757,-8.469836884,-0.1269360352,8.570537598
55.64938904,0.4041595459,-8.453520813,-0.009280700684,8.463181742
55.65947104,-0.7472460938,-7.96822998,0.1890568542,8.005423677
55.66955304,-1.557062073,-7.448959808,0.2463876343,7.613944536
55.67963504,-2.042801971,-7.065457306,-0.14040802,7.356183878
55.68971704,-1.834584961,-6.825356598,-0.5411247253,7.08830097
55.69979904,-0.7418572998,-7.167095947,-1.122366028,7.29227825
55.70988104,0.6119274902,-7.845185852,-1.716181183,8.053984986
55.71996304,1.359772339,-8.938661957,-1.911674652,9.241382925
55.73004504,1.975891113,-10.14635056,-1.054407349,10.3905895
55.74012804,2.530487823,-11.41151962,0.7271878052,11.71131721
55.75021004,2.907254333,-11.89187073,2.678230591,12.53162544
55.76029204,2.655028839,-10.99927689,3.117417297,11.73676108
55.77037404,1.792073364,-10.53389465,1.092727661,10.74097376
55.78045604,0.486638031,-10.97712296,-0.7339237976,11.01238798
55.79053804,-2.078876953,-11.71808212,-0.6417155457,11.91834623
55.80062004,-4.590953064,-12.25576401,0.1923500061,13.08883494
55.81070204,-6.265670471,-12.81006134,0.8011340332,14.28279082
55.82078404,-7.478747864,-13.22904007,2.250719604,15.36245129
55.83086604,-7.449109497,-13.00241135,4.309238892,15.59235303
55.84094804,-5.896538086,-12.99447784,5.420078888,15.26443156
55.85103004,-4.270170135,-13.35777237,5.174888763,14.94804032
55.86111304,-3.425027618,-13.06782532,5.482648773,14.57937963
55.87119504,-3.369193726,-12.9857959,4.741689606,14.22905414
55.88127704,-3.34763855,-14.36802155,1.46260849,14.82517961
55.89135904,-2.721790009,-16.09542938,-1.342558136,16.37905523
55.90144104,-0.6563850403,-17.68123169,-4.256548462,18.1982142
55.91152304,2.140698395,-19.18006485,-6.54543869,20.37891668
55.92160504,4.861290894,-20.08972321,-5.741909637,21.45224123
55.93168704,7.665709076,-19.87866211,-3.181933136,21.54179661
55.94176904,9.585466919,-18.10799423,-0.1008901978,20.48879718
55.95185104,8.942553864,-16.51291122,3.891008606,19.1777333
55.96193304,8.784632263,-15.64112411,5.457351379,18.75092562
55.97201604,8.998537445,-14.38613388,3.38506073,17.30298126
55.98209804,8.130193176,-12.68117935,0.09490264893,15.0639091
55.99218004,6.206393738,-11.00795883,-1.134640503,12.68786388
56.00226204,2.053729248,-9.844129028,-1.386865997,10.15125989
56.01234404,-0.8713380432,-9.006920013,-1.220262451,9.130875016
56.02242604,-1.278042297,-8.468339996,-0.9752220154,8.619584235
56.03250804,-1.174308014,-7.847580872,-1.450783081,8.066492199
56.04259004,-0.06421646118,-7.377109222,-1.657802582,7.561360568
56.05267204,1.893262939,-6.985074463,-1.953437805,7.496107595
56.06275404,3.284020844,-6.49514328,-1.949845276,7.5348242
56.07283604,3.427871704,-5.812712402,-1.994302826,7.036701902
56.08291804,2.933300171,-5.610482941,-1.984273682,6.634689952
56.09300104,2.42795105,-5.259313202,-1.908531189,6.09900098
56.10308304,1.490001526,-4.617298279,-1.900447998,5.210686187
56.11316504,0.599203949,-3.916306,-1.915117493,4.400474187
56.12324704,0.03203338623,-3.120860138,-2.098486176,3.760909247
56.13332904,0.3409909058,-2.239942017,-2.225571899,3.17596998
56.14341104,1.259929962,-0.9907896423,-2.638413391,3.087120478
56.15349304,1.845811615,-0.1842668152,-2.466720428,3.086370757
56.16357504,2.588716736,-0.2737806702,-1.940265198,3.246696665
56.17365704,3.472478943,-0.5137316895,-1.353186035,3.762066281
56.18373904,3.824546814,-0.7324269104,-0.8680448914,3.989625226
56.19382104,3.768712921,-1.472637634,-0.126486969,4.048191897
56.20390404,3.415746918,-2.59410553,1.015937347,4.407815695
56.21398604,3.010090485,-4.325255585,2.664159851,5.904763188
56.22406804,2.581531677,-6.960226135,5.373226318,9.164093775
56.23415004,1.56439682,-11.17321518,10.04201752,15.1039793
56.24423204,-0.6400689697,-17.01152435,15.70459213,23.1610851
56.25431404,-4.991819458,-26.13834503,29.04050995,39.38886341
56.26439604,-7.391629028,-35.84461075,28.36601257,46.30445949
56.27447804,-5.489235077,-35.51933716,10.41878403,37.42066374
56.28456004,-4.520150299,-22.40510834,3.333717499,23.09836165
56.29464204,-3.223696289,-10.39438477,3.011287994,11.29173626
56.30472404,-0.83661026,-3.630999298,2.448009338,4.458343005
56.31480604,1.481918335,0.4875361633,0.6750961304,1.699861244
56.32488904,2.91473877,1.42982666,-4.025878143,5.171827646
56.33497117,5.292693787,-1.739233246,-10.66906357,12.03604824
56.34505317,8.975036316,-7.525450745,-14.80316666,18.87637224
56.35513517,12.45005997,-12.22582626,-13.14251999,21.84492281
56.36521717,13.90293869,-14.37879913,-8.526119843,21.74249959
56.37529917,13.37663315,-16.89656342,11.60626465,24.47720468
56.38538117,4.376898193,-20.64102676,35.56723755,41.35501917
56.39546317,-0.6659651184,-16.25873978,0.5192701721,16.28065632
56.40554517,-2.108066254,-9.689650269,-11.76673096,15.38795708
56.41562717,-3.35467392,-5.389841766,-7.618706818,9.917102649
56.42570917,-1.996548157,-3.409310303,-5.325774994,6.631250302
56.43579217,0.3776646423,-3.996539154,-4.767136688,6.232218545
56.44587417,2.650987244,-5.980064392,-5.788163452,8.734514277
56.45595617,3.963008881,-7.664212189,-7.346722412,11.33225124
56.46603817,3.518134003,-9.241182861,-7.201973419,12.23295339
56.47612017,2.560874634,-10.74405762,-5.506299591,12.34148241
56.48620217,1.367256775,-12.28839615,-2.716850281,12.65920007
56.49628417,-0.2481838989,-13.73468857,0.2342628479,13.73892807
56.50636617,-1.181044006,-14.23509796,2.453547821,14.49319757
56.51644817,-1.292861481,-13.04073166,3.029849396,13.45035912
56.52653017,-0.554147644,-10.8504863,2.372715912,11.12069752
56.53661217,0.2959346008,-9.000782776,1.437610474,9.119670594
56.54669417,1.165775757,-7.67229538,0.5554948425,7.780213624
56.55677717,2.424957275,-6.559659119,-0.2180964661,6.996935873
56.56685917,2.90994873,-6.055806885,-1.054107971,6.800863346
56.57694117,2.799029388,-6.149811401,-1.210832062,6.864463568
56.58702317,2.150727539,-6.987619171,-0.9638456726,7.374377879
56.59710517,1.753004608,-7.896229706,-0.8038284302,8.128321405
56.60718717,1.285227356,-8.598569183,-0.2285746765,8.697094212
56.61726917,0.5688171387,-8.96291153,0.5366340637,8.996961273
56.62735117,0.0122744751,-8.865464172,1.271306305,8.956161308
56.63743317,-0.6310876465,-8.553512878,1.42982666,8.695128432
56.64751517,-0.8704399109,-8.205486603,0.9217831421,8.302852533
56.65759717,-0.6849755859,-8.004005585,-0.04011657715,8.033362079
56.66768017,-0.09819580078,-8.063282318,-1.137484589,8.143711399
56.67776217,0.5086422729,-8.340655518,-1.72231842,8.531801226
56.68784417,0.4547543335,-8.965755615,-1.458866272,9.095046237
56.69792617,-0.04041595459,-9.885443115,-0.3279679871,9.890964667
56.70800817,-0.7824229431,-10.64960403,1.019978943,10.7269105
56.71809017,-1.406924286,-11.36376892,2.512824554,11.72301016
56.72817217,-1.869462433,-12.17044144,3.558699646,12.8171322
56.73825417,-2.198927307,-12.9566066,3.000959473,13.48015926
56.74833617,-2.164798279,-13.26242065,1.185384979,13.49011826
56.75841817,-2.650837555,-13.28936462,0.4484674072,13.55858676
56.76850017,-3.408112793,-13.14401688,1.604812775,13.67317946
56.77858317,-3.87529129,-12.85661453,3.493285675,13.87492215
56.78866517,-4.075125732,-12.40590179,5.227579193,14.06558329
56.79874717,-3.941603394,-11.98662369,5.408253479,13.72824062
56.80882917,-4.013154602,-12.58358231,3.775299225,13.73698794
56.81891117,-4.023333435,-13.37917786,2.218686218,14.14610125
56.82899317,-4.237088928,-12.66920425,2.741249542,13.63730575
56.83907517,-4.542603607,-12.29153961,4.610861664,13.89162477
56.84915717,-3.702251129,-13.41764786,3.579656067,14.37198229
56.85923917,-1.763632507,-15.27333893,-1.058748322,15.41123712
56.86932117,-0.02005828857,-17.31688934,-7.466772766,18.8580952
56.87940317,2.212698669,-19.45085175,-11.34401001,22.62561009
56.88948517,5.31215332,-20.5914798,-9.162296906,23.15546799
56.89956817,7.689958649,-20.55495575,-3.368594971,22.2033579
56.90965017,7.444020081,-18.36351288,4.235142975,20.26248939
56.91973217,7.036717072,-15.9439444,7.714507599,19.05881365
56.92981417,7.490722961,-14.12747177,5.145250397,16.79791626
56.93989617,7.980953522,-12.54406448,0.8846603394,14.89401883
56.94997817,7.334298248,-11.13564331,-1.454824677,13.41309053
56.96006017,4.581822052,-10.00968475,-1.627415771,11.12813391
56.97014217,0.986149292,-8.982969818,-1.655108185,9.187253141
56.98022417,-1.130748596,-8.415050812,-1.101559296,8.561840073
56.99030617,-1.546583862,-7.9507164,-0.7821235657,8.137415449
57.00038817,-0.2550695801,-7.65942215,-0.6517446899,7.691331439
57.01047117,1.600771179,-7.392976227,-1.317859497,7.678236745
57.02055317,3.012635193,-7.076234894,-1.811682587,7.901345763
57.03063517,4.044289856,-6.796316986,-2.14129715,8.19337284
57.04071717,3.751049652,-6.275849304,-2.270029449,7.655696682
57.05079917,3.187022552,-5.608836365,-2.232158203,6.826323195
57.06088117,2.831960907,-4.894372101,-2.303559723,6.105838864
57.07096317,1.956730957,-4.386178894,-2.321672058,5.334559258
57.08104517,1.450334015,-3.915856934,-2.346969452,4.790163869
57.09112717,0.9208850098,-3.364104309,-2.420167236,4.245284025
57.10120917,1.273851013,-2.688708801,-2.520009613,3.899012679
57.11129117,1.92948761,-1.837279358,-2.827170868,3.884766787
57.12137417,2.492915955,-1.148860931,-2.516267395,3.723723003
57.13145617,2.812651062,-0.6182144165,-1.767674103,3.379033411
57.14153817,3.300636292,-0.793200531,-0.8541238403,3.500413482
57.15162017,3.695515137,-0.697250061,-0.08681945801,3.761718675
57.16170217,3.760180664,-1.60885437,0.7429051208,4.156835218
57.17178417,3.434757385,-3.368295593,2.099533997,5.24890622
57.18186617,2.966381378,-5.621260529,4.117038574,7.5728459
57.19194817,2.22437439,-8.968450012,7.910001068,12.16343101
57.20203017,0.9857002258,-13.47782272,11.671978,17.85660608
57.21211217,-1.627864838,-20.55226135,22.03447906,30.17554736
57.22219417,-4.441414032,-31.69299408,35.57906296,47.85438071
57.23227717,-3.00365387,-36.60547852,17.24863129,40.57706588
57.24235917,-3.595972137,-27.57430893,4.388873291,28.15201125
57.25244117,-5.196443939,-13.35657486,2.910248108,14.62431761
57.26252317,-3.935466156,-5.586682434,2.890938263,7.420002596
57.27260517,-1.185684357,-2.218985596,2.162103882,3.317293726
57.28268717,2.966082001,-4.249962158,0.3367996216,5.193578224
57.29276917,6.692133636,-10.39932449,-4.899611206,13.301759
57.30285117,7.534432068,-15.40850784,-11.88154221,20.86530196
57.31293317,8.032147064,-16.35334305,-16.01115463,24.25498481
57.32301517,7.198081512,-13.62556549,-12.11131439,19.59980481
57.33309746,4.010011139,-10.99718124,3.419489136,12.19471568
57.34318046,-0.8050259399,-8.224197693,15.89499619,17.91469783
57.35326246,2.313588867,-4.866080933,8.615933075,10.16197519
57.36334446,3.445235596,-1.813029785,0.02918930054,3.893273343
57.37342646,-0.05613327026,-1.791624298,-6.285130005,6.535742326
57.38350846,-0.1466949463,-4.906347198,-8.946146393,10.20427839
57.39359046,2.863395538,-8.917406158,-8.722661133,12.79859304
57.40367246,3.799548798,-11.68709656,-7.733518066,14.52005849
57.41375446,3.028951263,-12.96947983,-7.007378082,15.04942857
57.42383646,2.103126526,-13.62796051,-5.92183548,15.00708447
57.43391846,1.493743744,-13.46360229,-4.276756439,14.2052984
57.44400046,1.521286469,-12.74883865,-1.766027527,12.96017179
57.45408346,1.470541992,-12.05218735,2.122136993,12.32563098
57.46416546,1.556912384,-11.0229277,4.340673523,11.94865507
57.47424746,1.949994965,-9.961784363,3.99354538,10.90816358
57.48432946,2.386786652,-9.224417725,2.454296265,9.839217603
57.49441146,2.968926086,-8.58958786,0.9370513916,9.136389168
57.50449346,3.525917816,-8.025111694,-0.8503816223,8.806682863
57.51457546,3.645818481,-7.270381165,-1.709894257,8.311087356
57.52465746,3.006348267,-6.832391968,-1.362317047,7.587859885
57.53473946,1.947450256,-6.94331131,-0.8084687805,7.256428613
57.54482146,1.161434784,-7.442822571,-0.6813830566,7.56365133
57.55490346,0.6450086975,-7.867190094,-0.3577560425,7.901690046
57.56498646,0.01466949463,-8.191415863,0.1600172424,8.192991795
57.57506846,-0.8234376526,-8.186176758,0.7864645386,8.264990378
57.58515046,-1.353335724,-8.001909943,1.14077774,8.195331242
57.59523246,-1.623523865,-7.943980408,1.079405365,8.179717012
57.60531446,-1.409468994,-8.094267883,0.6373745728,8.240753713
57.61539646,-0.4971162415,-8.357121277,-0.1743873596,8.373709545
57.62547846,0.5544470215,-8.540340271,-0.7399113464,8.590244015
57.63556046,1.149759064,-8.591683502,-0.6855743408,8.695342632
57.64564246,0.9988728333,-8.930728455,0.2101629639,8.988872351
57.65572446,0.3680845642,-9.870174866,2.015558624,10.08059099
57.66580646,-0.4204756165,-10.96574661,3.609593811,11.55221044
57.67588946,-1.17011673,-11.6466806,3.982767792,12.36433506
57.68597146,-1.591490479,-11.80130905,2.5015979,12.16806186
57.69605346,-1.836231537,-12.16205887,0.7559280396,12.32310226
57.70613546,-2.577490082,-12.67564087,0.6493496704,12.95133127
57.71621746,-3.772455139,-12.95555878,2.28634552,13.68595254
57.72629946,-4.936135254,-12.88984543,3.776197357,14.30989912
57.73638146,-5.691763916,-12.94358368,4.818330231,14.93816726
57.74646346,-5.853278046,-12.82802399,5.288652191,15.05951212
57.75654546,-5.800437927,-12.0726947,4.872667236,14.25264619
57.76662746,-5.835465088,-11.52692963,3.322191467,13.34015426
57.77670946,-5.325924683,-10.85228256,3.591331787,12.6109149
57.78679146,-3.954476624,-10.89778793,5.450615387,12.81049864
57.79687446,-2.18216217,-12.68731659,3.264112244,13.28097371
57.80695646,-1.046922913,-15.05254807,-2.469564514,15.28966971
57.81703846,-0.4643344116,-17.08307556,-6.910828857,18.43384476
57.82712046,0.9713301086,-18.87694519,-8.721164246,20.81685009
57.83720246,2.953957214,-19.76010864,-8.268804932,21.62315638
57.84728446,5.606740723,-19.85276596,-5.946534119,21.46926002
57.85736646,8.806187439,-19.81893631,-1.075812836,21.71397124
57.86744846,9.995913391,-19.06570267,4.988376617,22.09758367
57.87753046,10.4642894,-17.1276828,6.890321503,21.22110744
57.88761246,10.54811508,-14.97785339,4.560266876,18.87842308
57.89769446,9.815239105,-12.78551239,0.9366023254,16.14575702
57.90777746,7.519612885,-10.32028885,-1.249900818,12.8302452
57.91785946,3.572171631,-7.910150757,-1.452579346,8.800050108
57.92794146,-0.2119592285,-7.450905762,-0.7789801025,7.494513552
57.93802346,-1.243314514,-7.31064743,0.01017883301,7.415625425
57.94810546,-1.880090332,-6.739584961,-0.4722679138,7.01282982
57.95818746,-1.06473587,-6.708000641,-0.4543052673,6.807152734
57.96826946,1.037193146,-6.706354065,-0.8949888611,6.844849124
57.97835146,2.911744995,-6.381080475,-1.1572435,7.10884375
57.98843346,3.445085907,-6.170767822,-1.04018692,7.143457234
57.99851546,2.674039307,-6.055956573,-1.503772888,6.788698633
58.00859846,2.275717621,-5.95102478,-1.766326904,6.611618361
58.01868046,1.44853775,-5.708229675,-1.695823517,6.128455355
58.02876246,0.6816824341,-5.053790588,-1.577719116,5.338041576
58.03884446,0.365539856,-4.440665588,-1.561253357,4.721296676
58.04892646,0.69620224,-3.716321869,-1.74342453,4.163565165
58.05900846,1.429227905,-2.492915955,-2.197729797,3.617642689
58.06909046,1.9282901,-1.544787598,-2.39516922,3.441149085
58.07917246,2.401456146,-1.269959106,-2.043700104,3.399484942
58.08925446,2.893482971,-1.153950348,-1.409768372,3.419253131
58.09933646,2.978506165,-1.409319305,-0.8114625549,3.393545543
58.10941846,3.112926636,-1.906884613,-0.2240840149,3.657421881
58.11950146,3.281176758,-2.289638672,0.6095324707,4.047233129
58.12958346,3.101999359,-3.387755127,1.612596588,4.868239166
58.13966546,2.997217255,-5.119803314,2.809657288,6.564287572
58.14974746,2.657872925,-7.911797333,5.050347748,9.755349194
58.15982946,1.397493896,-12.2226828,9.65552124,15.63892754
58.16991146,-1.099014587,-17.62524811,15.32183807,23.37981877
58.17999346,-5.256618805,-25.94464783,28.69652527,39.04161055
58.19007546,-7.621401215,-34.98180496,28.78708694,45.94027437
58.20015746,-5.43968811,-32.92732727,10.43390259,34.96663283
58.21023946,-4.270319824,-20.03314087,3.911815338,20.85340892
58.22032246,-2.828967133,-9.620344391,2.838247833,10.4215993
58.23040446,-0.7051835632,-3.920197906,1.702409821,4.331678044
58.24048646,2.421963501,-1.021326141,-0.3671864319,2.654023392
58.25056846,6.968459015,-2.838247833,-3.146606598,8.15574674
58.26065046,11.35838013,-7.808661804,-6.576424255,15.27211034
58.27073246,12.28989304,-12.30695755,-10.09201355,20.10849105
58.28081446,12.13017517,-13.50910767,-10.76785812,21.10885852
58.29089646,10.69286407,-12.63058456,-6.366111603,17.73122628
58.30097846,4.677323456,-12.6022934,11.02247864,17.38361841
58.31106046,-3.411555634,-12.11640381,16.31068176,20.60301659
58.32114246,-2.874023438,-9.832752686,0.8812174988,10.28200274
58.33122571,-1.240171051,-6.621181183,-5.228327637,8.527219615
58.34130771,-0.01826202393,-5.134173431,-6.619085541,8.376894635
58.35138971,1.968256989,-6.05056778,-7.748936005,10.02643582
58.36147171,3.804039459,-7.408094788,-7.648195496,11.30687751
58.37155371,4.500690765,-8.44094696,-6.969207458,11.83535617
58.38163571,4.010909271,-9.395362244,-5.734275513,11.71503907
58.39171771,2.625390472,-10.21041733,-4.121379547,11.31949939
58.40179971,1.52113678,-11.09522736,-1.562899933,11.30754542
58.41188171,0.05867797852,-12.1496347,0.9767189026,12.18897233
58.42196371,-1.378184052,-12.79224838,2.310445404,13.07207588
58.43204571,-1.828447723,-12.52774841,1.885628815,12.8001288
58.44212871,-1.084195404,-11.4251413,1.086440735,11.52777892
58.45221071,-0.2697390747,-9.972711639,0.5505551147,9.991538798
58.46229271,0.129181366,-8.412356415,0.4586462402,8.425840293
58.47237471,0.6743476868,-7.358398132,0.08502319336,7.389722378
58.48245671,1.470541992,-6.904541931,-0.7033872986,7.094360205
58.49253871,1.455273743,-7.100334778,-1.276844788,7.359545382
58.50262071,1.35258728,-7.549251251,-1.44973526,7.805281489
58.51270271,1.200204163,-8.054450684,-0.8095166016,8.183518985
58.52278471,0.8560697937,-8.441096649,-0.2987786865,8.489654695
58.53286671,0.7899073792,-8.305628357,0.15328125,8.344513839
58.54294871,0.409997406,-7.984096985,0.4403842163,8.006737213
58.55303171,0.2845582581,-7.795189819,0.5658233643,7.820876792
58.56311371,0.4749623108,-7.734416199,0.5348377991,7.767421361
58.57319571,0.7319778442,-7.818840637,-0.05673202515,7.853233665
58.58327771,1.257684631,-7.949818268,-0.8696914673,8.095538547
58.59335971,1.573527832,-8.318950653,-1.445693665,8.589002269
58.60344171,1.41934845,-8.900641022,-1.14197525,9.08515647
58.61352371,0.7743397522,-9.760153656,-0.1589694214,9.792112781
58.62360571,0.1185534668,-10.91170898,0.9452842712,10.95321917
58.63368771,-0.3032693481,-11.8776503,1.65211441,11.9958339
58.64376971,-0.6491999817,-12.18870346,1.561253357,12.3054242
58.65385271,-1.152303772,-12.06715622,1.246008911,12.18591816
58.66393471,-1.451830902,-11.92360474,1.140478363,12.06568911
58.67401671,-1.825154572,-12.13825836,1.000818787,12.31544329
58.68409871,-2.652933197,-12.39617203,0.8924441528,12.70824898
58.69418071,-3.975882111,-12.71470963,1.327439575,13.38781443
58.70426271,-4.809947662,-13.10150528,2.621797943,14.20066412
58.71434471,-4.517306213,-12.7840155,3.907624054,14.110515
58.72442671,-3.221151581,-12.28136078,4.646936646,13.52041642
58.73450871,-2.444416809,-12.30291595,4.407883759,13.29535083
58.74459071,-2.147434387,-12.40964401,3.911965027,13.18765367
58.75467271,-1.972597961,-11.93378357,5.12025238,13.13481319
58.76475571,-1.770218811,-12.21430023,5.185217285,13.38690715
58.77483771,-1.39704483,-13.49608475,1.677112427,13.67145727
58.78491971,-1.054107971,-15.3174971,-2.175276489,15.50705287
58.79500171,-0.1360670471,-16.99880081,-6.017486572,18.0329667
58.80508371,1.653012543,-18.14317108,-8.361911316,20.04566457
58.81516571,4.268822937,-18.86796387,-7.502398682,20.74870829
58.82524771,6.771169281,-18.5265239,-3.839515686,20.0953403
58.83532971,7.685318298,-17.3692804,1.971849518,19.09565944
58.84541171,8.16013092,-16.56051224,5.548362122,19.27751603
58.85549371,9.348210297,-15.7394696,4.525090027,18.85726329
58.86557571,9.812844086,-14.07223663,1.760039978,17.2457964
58.87565871,8.002808075,-12.19888229,0.1368154907,14.59028392
58.88574071,3.977678375,-10.33166519,-1.004261627,11.11637406
58.89582271,0.5281018066,-8.881181488,-0.9862989807,8.951372064
58.90590471,-1.373094635,-8.077203369,-0.7126679993,8.224019627
58.91598671,-2.340981903,-7.758665771,-0.9921368408,8.1646449
58.92606871,-1.31396759,-7.525600433,-1.266965332,7.74379583
58.93615071,0.3797602844,-7.264992371,-1.43686203,7.415450392
58.94623271,1.519340515,-7.06381073,-1.696721649,7.421905549
58.95631471,2.426603851,-7.128775635,-1.820364532,7.747359249
58.96639671,2.626737671,-7.100334778,-1.804647217,7.782753775
58.97647971,2.734663239,-6.924450531,-1.523531799,7.599180701
58.98656171,2.277064819,-6.158643036,-1.650767212,6.770446117
58.99664371,1.274150391,-5.137915649,-1.537003784,5.512169906
59.00672571,0.8156538391,-3.863465881,-1.667232971,4.286178436
59.01680771,0.7409591675,-2.56835907,-1.965861969,3.318147387
59.02688971,1.179846497,-1.210083618,-2.415227509,2.94782361
59.03697171,1.665137329,0.03173400879,-2.738704834,3.205338288
59.04705371,2.115401001,0.5944139099,-2.360441437,3.224892722
59.05713571,2.705174561,0.2240840149,-1.721719666,3.21442089
59.06721771,3.132984924,-0.08711883545,-1.031055908,3.299433362
59.07729971,3.104394379,-0.693507843,-0.2046244812,3.187489414
59.08738271,3.267106018,-1.361867981,0.7301815796,3.614115558
59.09746471,3.027604065,-2.52854187,1.856140137,4.359491549
59.10754671,3.029550018,-4.541855164,3.257076874,6.357292773
59.11762871,2.773432617,-7.921227722,6.527775421,10.63247991
59.12771071,0.9059161377,-13.06632843,12.03182968,17.78523399
59.13779271,-2.958148499,-20.12609756,20.5994133,28.95075602
59.14787471,-9.260642395,-31.55108917,34.16899521,47.42099703
59.15795671,-9.437424774,-40.65246277,19.96593063,46.26365854
59.16803871,-5.72289917,-34.89932648,4.262386322,35.62137702
59.17812071,-4.826413422,-18.79731079,5.106780396,20.06769457
59.18820371,-2.628983002,-7.825277252,5.660329285,10.00928785
59.19828571,-0.1252894592,-1.460363159,4.461771698,4.696356534
59.20836771,2.423759766,2.042203217,0.8785231018,3.288922045
59.21844971,7.225923615,1.007704468,-7.340884552,10.34978388
59.22853171,13.31077011,-3.347488861,-13.17305649,19.02397697
59.23861371,15.60759384,-7.72019577,-11.54429352,20.89184341
59.24869571,16.69867493,-9.893376617,-8.852441254,21.33284701
59.25877771,18.06982361,-12.02793777,6.655160522,22.70420608
59.26885971,9.109307098,-16.28733032,29.95525772,35.29269145
59.27894171,-6.403533783,-18.55885666,6.841223602,20.79035223
59.28902371,-9.38174057,-15.20193741,-13.89575363,22.63201109
59.29910671,-7.540419617,-10.22927811,-8.674012299,15.38618042
59.30918871,-3.998036041,-6.602320404,-6.358926544,10.00054367
59.31927071,-0.03622467041,-5.820645905,-6.242468719,8.535200448
59.32935271,2.696342926,-7.088808746,-6.054609375,9.70462618
59.33943371,4.080364838,-8.081843719,-5.957162018,10.83758988
59.34951571,3.792812805,-8.833430786,-5.271587677,10.96378425
59.35959771,2.389930115,-9.559421082,-4.229604492,10.72305234
59.36967971,1.017434235,-10.61876816,-2.190993805,10.89008097
59.37976171,-0.1070274353,-11.68530029,0.206869812,11.68762135
59.38984371,-0.8719367981,-12.10517715,1.625918884,12.24496631
59.39992571,-0.4746629333,-11.63395706,1.811981964,11.78378294
59.41000871,0.4315525818,-10.42986099,1.361568604,10.52720794
59.42009071,1.723366241,-9.092392273,1.12206665,9.322050312
59.43017271,2.650987244,-8.076754303,0.8866062927,8.546798474
59.44025471,3.13582901,-7.363786926,0.8210426331,8.04567539
59.45033671,2.685265961,-7.026538239,0.3528163147,7.530429752
59.46041871,2.345173187,-7.066654816,-0.3743714905,7.45503867
59.47050071,2.113604736,-7.242389374,-0.7976911926,7.586556535
59.48058271,1.585353241,-7.881410522,-1.038240967,8.106042254
59.49066471,1.114881592,-8.292904816,-0.6530918884,8.392958969
59.50074671,0.4613406372,-8.381221161,0.2972817993,8.399171376
59.51082971,-0.1588197327,-8.39424408,1.223405914,8.484413911
59.52091171,-0.7909552002,-8.408165131,1.39240448,8.559301445
59.53099371,-1.004411316,-8.326135712,0.8252339172,8.42700356
59.54107571,-0.909508667,-8.382568359,-0.2874023438,8.436661569
59.55115771,-0.2761756897,-8.511749725,-1.48251709,8.644305254
59.56123971,0.2254312134,-8.753796387,-2.549049225,9.120165698
59.57132171,0.3764671326,-9.439969482,-2.733016663,9.834842724
59.58140371,0.3402424622,-10.64601151,-1.274749146,10.72745596
59.59148571,-0.008981323242,-11.65925446,0.7746391296,11.68496303
59.60156771,-0.6186634827,-12.21430023,2.75786499,12.53705284
59.61164971,-1.15365097,-12.28405518,3.988306274,12.96670772
59.62173271,-1.445843353,-12.42865448,3.475023651,12.98605808
59.63181471,-1.45213028,-12.94148804,1.681303711,13.13078738
59.64189671,-2.033820648,-13.17066147,0.6298901367,13.34164576
59.65197871,-3.245251465,-13.17605026,1.041983185,13.60976438
59.66206071,-4.194577332,-13.11392944,2.372566223,13.97135265
59.67214271,-4.820276184,-12.88864792,4.130211182,14.36700916
59.68222471,-4.577181702,-12.06670715,5.251828766,13.93333123
59.69230671,-3.669768677,-11.56195679,4.844525757,13.06198594
59.70238871,-2.827619934,-11.84546722,4.158352661,12.86866058
59.71247071,-2.721191254,-12.08945984,4.741988983,13.26824708
59.72255371,-2.858755188,-12.30396378,5.64805481,13.83692628
59.73263571,-2.406994629,-13.5511702,5.254373474,14.73215115
59.74271771,-1.127455444,-15.39773026,2.438728638,15.63037588
59.75279971,-0.4305047607,-16.91467575,-4.980143738,17.63784062
59.76288171,0.2338137817,-19.26688431,-11.73020691,22.55804189
59.77296371,2.959645386,-20.83517303,-11.47828079,23.97112568
59.78304571,6.146368561,-20.40796143,-6.943910065,22.41607956
59.79312771,7.222331085,-18.35153778,0.4209246826,19.72607875
59.80320971,7.490722961,-15.75294159,6.692732391,18.68311446
59.81329171,8.269253998,-14.20456146,7.1889505,17.93965265
59.82337371,8.863817596,-13.17455338,3.897894287,16.35022015
59.83345671,8.467441864,-12.01865707,0.1727407837,14.70290886
59.84353871,5.333109741,-10.45710434,-1.70016449,11.86101387
59.85362071,1.850451965,-9.224268036,-0.8229885864,9.443971807
59.86370271,-0.7807763672,-8.59662323,-1.102906494,8.702180499
59.87378471,-1.912123718,-7.953261108,-1.60765686,8.336374509
59.88386671,-0.8650511169,-7.228168945,-1.524280243,7.43761857
59.89394871,0.6023474121,-6.753506012,-1.217118988,6.888689606
59.90403071,2.185605011,-6.456373901,-1.602567444,7.00213222
59.91411271,3.530857544,-5.896238708,-2.060914307,7.174953218
59.92419471,3.946243744,-5.433999939,-2.073637848,7.028596513
59.93427771,3.748355255,-4.991819458,-2.125729523,6.594479102
59.94435971,2.894979858,-4.224664764,-2.150128784,5.554435574
59.95444171,1.522034912,-3.457360382,-1.742077332,4.15989958
59.96452371,0.322130127,-2.998714142,-1.594484253,3.411514965
59.97460571,0.08502319336,-2.625091095,-1.70016449,3.128720424
59.98468771,0.2724334717,-1.678309937,-2.315983887,2.873103827
59.99476971,0.4932243347,-0.6303392029,-2.625240784,2.744537653
