Time (s),Acceleration x (m/s^2),Acceleration y (m/s^2),Acceleration z (m/s^2),Absolute acceleration (m/s^2)
60.00756712,0.7325765991,-11.40164017,3.160228271,11.85416002
60.01765012,0.7020401001,-11.25674149,3.178190918,11.71784906
60.02773212,0.6418652344,-11.31212631,2.706821136,11.64916621
60.03781512,0.03921844482,-11.93917236,1.739233246,12.06525205
60.04789713,-1.396745453,-12.64181122,0.6397695923,12.73481817
60.05797913,-2.995720367,-12.84404068,0.4532574463,13.19655879
60.06806213,-4.297263794,-12.90690994,1.253343658,13.66110064
60.07814413,-4.871918793,-13.1396759,2.626288605,14.25777218
60.08822713,-4.313579865,-13.10030777,3.954027557,14.34780014
60.09830912,-2.887645111,-12.72518784,4.624633026,13.84399257
60.10839212,-2.004032593,-12.39991425,4.884792023,13.47721088
60.11847412,-1.982028351,-11.58426041,4.449946289,12.56684318
60.12855596,-2.0968396,-10.98340988,4.747527466,12.14788237
60.13863896,-1.707948303,-11.56255554,6.473887482,13.36117499
60.14872096,-0.7849676514,-12.61277161,5.273833008,13.69348372
60.15880396,-0.1040336609,-14.0819664,0.6628216553,14.09794074
60.16888596,0.6797364807,-16.68340668,-4.813390503,17.37719276
60.17896796,2.432741089,-19.17752014,-8.613088989,21.1631947
60.18905096,4.661306763,-19.7301709,-9.156309357,22.24512139
60.19913296,7.434889069,-18.80225052,-7.314689026,21.50132265
60.20921596,9.881551208,-17.17633163,-2.600242767,19.9858121
60.21929796,9.489067383,-15.328125,3.943848724,18.45393613
60.22938096,8.397537231,-13.99784134,7.455396423,17.94550444
60.23946296,8.263416138,-12.86005737,5.274132385,16.17039252
60.24954496,7.440427551,-11.10540619,-0.01272354126,13.36750428
60.25962796,5.528902588,-9.860145721,-1.669178925,11.42704668
60.26970996,2.485132141,-8.741072845,-1.22505249,9.16967774
60.27979296,-0.5996530151,-7.665858765,-1.14077774,7.773438634
60.28987496,-1.891316986,-7.132368164,-0.8261320496,7.424974729
60.29995696,-1.459465027,-7.072642365,-0.8378077698,7.270091474
60.31003996,-0.2859054565,-7.257058868,-1.114282837,7.347671168
60.32012196,1.122515717,-7.243886261,-1.392105103,7.461359549
60.33020496,2.488125916,-6.861581268,-1.583407288,7.468550509
60.34028696,2.339485016,-6.926396484,-1.78204422,7.524881394
60.35036996,2.227966919,-7.115603027,-1.893412628,7.692896361
60.36045196,1.920506287,-6.919361115,-1.754800873,7.392241117
60.37053396,1.613943787,-6.233337708,-1.614093475,6.638118052
60.38061696,1.345402222,-5.142855377,-1.534159698,5.532875794
60.39069896,1.271156616,-3.807332611,-1.441352692,4.26487026
60.40078196,1.327289886,-2.679278412,-1.700912933,3.439961636
60.41086396,1.699865112,-1.799408112,-2.22078186,3.325550033
60.42094696,2.144889679,-0.9565109253,-2.670746155,3.556451871
60.43102896,2.636617126,-0.6550378418,-2.45010498,3.658392934
60.44111096,3.172652435,-0.9497749329,-1.526375885,3.646590084
60.45119396,3.428021393,-1.365310822,-0.500559082,3.723702956
60.46127596,3.790567474,-1.909878387,0.3535647583,4.259230596
60.47135896,4.067790985,-2.894680481,1.0484198,5.10149808
60.48144096,3.956422577,-4.623734894,2.026186523,6.413862783
60.49152396,3.520379333,-7.25571167,3.604354706,8.833447534
60.50160596,2.503244476,-11.20375168,7.216493225,13.55979569
60.51168796,1.602118378,-16.55736877,13.7129837,21.55827373
60.52177096,-0.1062789917,-22.74789551,22.15393066,31.75334139
60.53185296,-3.085683289,-31.43193695,32.33815247,45.20225887
60.54193596,-5.414989471,-34.63063522,21.63361267,41.19000126
60.55201796,-5.851781158,-24.93050674,6.695875854,26.4690057
60.56209996,-4.010160828,-13.43022171,1.877845001,14.14137712
60.57218296,-2.97431488,-6.207441559,1.460812225,7.036536937
60.58226496,-2.077679443,-1.135538635,0.8759783936,2.5245867
60.59234796,-0.7629634094,1.25663681,-2.365680542,2.785263661
60.60242996,1.615440674,-0.3625460815,-6.58525589,6.790190231
60.61251296,5.396877136,-5.1226474,-10.26056305,12.67465792
60.62259496,10.09111542,-10.17988083,-12.04904388,18.72538498
60.63267696,13.3136142,-13.47991837,-9.654473419,21.26427471
60.64275996,13.24820023,-15.05614059,-6.229745178,21.00028342
60.65284196,8.801547089,-16.96137863,12.39512421,22.77706523
60.66292496,-2.13545929,-18.61992966,30.28936295,35.61892018
60.67300696,-0.9361532593,-13.7713623,1.634750519,13.89961193
60.68308996,-1.018931122,-6.940616913,-10.59856018,12.70983327
60.69317196,-0.9283694458,-3.569177856,-8.646319885,9.399986593
60.70325396,1.196611633,-3.406017151,-4.876110077,6.06706533
60.71333696,3.00125885,-4.873116302,-5.13671814,7.690298462
60.72341896,4.53287384,-6.867718506,-6.48346756,10.47606101
60.73350196,4.406686249,-8.46908844,-7.626340942,12.21905966
60.74358396,3.739523621,-9.96208374,-6.901697845,12.68308253
60.75366696,3.211421814,-11.395952,-4.086651764,12.5252415
60.76374896,1.864373016,-12.599599,-0.7902067566,12.76127769
60.77383096,0.1158590698,-13.26780945,1.802850952,13.39023758
60.78391396,-1.086291046,-13.17395462,2.93569519,13.54073169
60.79399596,-1.018332367,-12.39407639,2.848276978,12.75785295
60.80407896,-0.14040802,-10.79764618,1.605261841,10.91722231
60.81416096,0.8822653198,-8.984017639,0.2383044434,9.030379507
60.82424296,1.553020477,-7.670050049,-0.5710624695,7.846505764
60.83432596,2.020348663,-6.742578735,-1.552272034,7.207893256
60.84440796,2.484982452,-6.791826324,-1.968556366,7.495282301
60.85449096,2.908152466,-7.459887085,-1.523980865,8.150446844
60.86457296,2.755769348,-8.112080841,-0.8201445007,8.606553159
60.87465596,1.745071106,-8.570577393,-0.3614982605,8.753899188
60.88473796,0.732127533,-8.769513702,0.1143621826,8.80076474
60.89481996,0.1679507446,-8.687035217,0.6397695923,8.712180752
60.90490296,-0.3429368591,-8.611143036,0.5668711853,8.636592674
60.91498496,-0.4581971741,-8.48540451,0.3751199341,8.50604193
60.92506796,-0.05164260864,-8.247549133,-0.03188369751,8.247772441
60.93514996,0.5758525085,-8.055049438,-0.9354048157,8.129600835
60.94523296,1.216071167,-7.995024261,-1.730102234,8.26997556
60.95531496,1.28941864,-8.334069214,-1.731898499,8.609226591
60.96539696,0.9232800293,-8.8504953,-1.014290771,8.956143078
60.97547996,0.4912783813,-9.249864807,-0.3215313721,9.268480772
60.98556196,0.4441264343,-9.742490387,0.4713697815,9.763992867
60.99564496,0.4270619202,-10.68537964,1.369951172,10.78130262
61.00572696,0.325872345,-11.57408157,1.894460449,11.73262705
61.01580996,0.1676513672,-11.69473068,1.965263214,11.85989428
61.02589196,-0.4125421143,-11.53516251,1.438807983,11.63186715
61.03597396,-0.8363108826,-11.69024002,0.7424560547,11.74360969
61.04605696,-1.412013702,-12.1762793,0.4171824646,12.26497458
61.05613896,-2.37765564,-12.50918701,0.7309300232,12.75410776
61.06622196,-3.172203369,-12.46038849,1.200204163,12.91373864
61.07630396,-3.246149597,-12.63028519,2.096540222,13.20821987
61.08638696,-2.169438629,-12.88939636,3.350183258,13.49321053
61.09646896,-0.8324189758,-12.7641069,4.161496124,13.45114852
61.10655096,-0.3044668579,-12.76335846,4.61011322,13.57384113
61.11663396,-0.4614903259,-12.72578659,4.999902649,13.68055716
61.12671608,-1.123563538,-11.77960419,4.504133606,12.66130678
61.13679908,-1.626517639,-11.09358078,4.450545044,12.06318554
61.14688108,-1.168320465,-11.43666733,5.668262787,12.81762596
61.15696308,0.01496887207,-11.93228668,5.176984406,13.00695418
61.16704608,0.9611512756,-13.03324722,1.600322113,13.16625899
61.17712808,1.273252258,-15.19744675,-5.426365814,16.18731
61.18721108,2.204765167,-17.92956528,-10.62655197,20.95838513
61.19729308,4.737498322,-18.96241745,-9.654024353,21.79948055
61.20737608,7.404951324,-18.05305847,-5.044659576,20.15427534
61.21745808,8.182284851,-16.5118634,0.7927514648,18.4450501
61.22754008,7.180118866,-14.50049606,5.14839386,16.98011933
61.23762308,7.011868744,-13.44938187,5.995332642,16.30938961
61.24770508,6.698420563,-12.5093367,2.975362701,14.49845254
61.25778808,5.39178772,-11.2247081,-0.6686595154,12.4704672
61.26787008,3.331921234,-10.35711227,-0.7702981567,10.90710012
61.27795308,0.75353302,-9.20974823,-0.3713777161,9.247983341
61.28803508,-0.8866062927,-8.362210693,-0.5294490051,8.425731698
61.29811708,-1.301693115,-7.728728027,-0.9116043091,7.890415978
61.30820008,-0.513432312,-7.493117981,-1.030606842,7.581067226
61.31828208,0.6798861694,-7.45464798,-1.015488281,7.554153702
61.32836508,1.983974304,-7.412735138,-1.239572296,7.773116218
61.33844708,3.035387878,-7.404801636,-1.036295013,8.069608057
61.34852908,2.950664062,-7.331454163,-0.8011340332,7.943453549
61.35861208,2.044298859,-7.35046463,-1.471889191,7.770131652
61.36869408,1.189426575,-7.219037933,-1.564696198,7.481812511
61.37877708,1.090632019,-6.564898224,-1.231938171,6.767941973
61.38885908,0.8202941895,-5.322332153,-1.201551361,5.517592571
61.39894208,0.666713562,-3.964056702,-1.153052216,4.181839538
61.40902408,0.9741741943,-2.883902893,-1.535506897,3.409353705
61.41910608,1.390308838,-2.105222168,-1.989662476,3.213047744
61.42918908,1.940564575,-1.444346466,-2.28754303,3.329381429
61.43927108,2.289938049,-0.9568103027,-2.115700378,3.261209947
61.44935408,2.735860748,-1.035396881,-1.357077942,3.224692431
61.45943608,3.084934845,-1.448687439,-0.5969586182,3.460040157
61.46951908,3.298690338,-1.922152863,0.0845741272,3.818793312
61.47960108,3.544479218,-2.67718277,0.9307644653,4.538387709
61.48968308,3.53714447,-4.000880127,1.820514221,5.642047928
61.49976608,3.30782135,-5.950276337,3.062331848,7.464941186
61.50984808,2.687511292,-8.817414093,5.355712738,10.66082394
61.51993108,1.776954803,-13.09207489,10.02989273,16.5879095
61.53001308,1.223555603,-18.38566681,16.531772,24.75538967
61.54009608,-0.4083508301,-25.4381012,27.26879425,37.29411325
61.55017808,-3.709436188,-32.78572174,28.48546417,43.589966
61.56026008,-6.027964783,-30.52033264,13.10704376,33.75828284
61.57034308,-5.36484375,-19.31059341,4.678670654,20.58082908
61.58042508,-3.337010651,-10.51668045,3.11128006,11.46369362
61.59050808,-2.614612885,-4.883744202,2.645299072,6.138791831
61.60059008,-1.490749969,-1.830992432,0.4328997803,2.400473073
61.61067208,1.043180695,-2.573598175,-4.282444611,5.104014633
61.62075508,4.955594788,-6.152954865,-9.110803986,12.05916757
61.63083708,9.152267761,-10.54751633,-12.1337677,18.49979525
61.64092008,11.95339279,-13.03968384,-11.32844238,21.00596488
61.65100208,11.91058182,-13.19895264,-7.98349823,19.48872889
61.66108508,9.248068542,-12.79718811,0.09565109253,15.78936175
61.67116708,0.8306227112,-13.08863205,24.18161407,27.50913816
61.68124908,-0.1920506287,-11.33577713,14.22297318,18.18872432
61.69133208,2.091450806,-6.751560059,-4.792134705,8.539454592
61.70141408,0.5634283447,-4.238286438,-10.99763031,11.79950829
61.71149708,1.48955246,-4.553530884,-7.799381104,9.153346691
61.72157908,3.048859863,-5.999224548,-5.893993378,8.945691677
61.73166208,4.29891037,-7.685018921,-5.842949524,10.56788557
61.74174408,4.120780792,-9.115444336,-6.521338806,11.94152501
61.75182608,3.318000183,-10.16910324,-5.584886169,12.06692751
61.76190908,2.71220993,-11.08594666,-3.035088501,11.80957485
61.77199108,1.23089035,-12.15801727,-0.3366499329,12.22480299
61.78207408,-0.7084767151,-13.08623703,1.620230713,13.2051765
61.79215608,-1.957329712,-13.15150131,2.036365356,13.45139064
61.80223908,-1.708846436,-12.37282059,1.376387787,12.56587795
61.81232108,-0.3844006348,-10.83551743,0.4248165894,10.85065302
61.82240308,0.7833210754,-9.0482341,-0.2472857666,9.085443439
61.83248608,1.290765839,-7.518714752,-0.7448510742,7.664982133
61.84256808,1.680704956,-6.463259583,-2.04534668,6.984406676
61.85265108,2.271226959,-6.463708649,-2.898422699,7.439009043
61.86273308,2.590513,-7.333549805,-2.13066925,8.06420869
61.87281608,2.41627533,-8.302484894,-0.8936416626,8.692999327
61.88289808,1.736538849,-8.851992188,0.1293310547,9.02164394
61.89298008,1.107397156,-8.86576355,0.8533753967,8.975318454
61.90306308,0.6209088135,-8.777147827,1.084195404,8.865626397
61.91314508,0.2118095398,-8.689579926,0.9330097961,8.742091846
61.92322808,0.076640625,-8.532706146,0.9054670715,8.58095674
61.93331008,0.3378474426,-8.543334045,0.4080514526,8.559743191
61.94339308,0.7598199463,-8.536148987,-0.763711853,8.603860858
61.95347508,1.044527893,-8.463999023,-1.862876129,8.729296963
61.96355708,1.16188385,-8.57551712,-2.090103607,8.90269628
61.97364008,0.806073761,-8.875792694,-1.420396271,9.02479786
61.98372208,0.4110452271,-9.194779358,-0.4147874451,9.213304198
61.99380508,0.1181044006,-9.769284668,0.4634362793,9.780983834
62.00388708,0.09175918579,-10.58164536,1.393302612,10.67337483
62.01396908,-0.1167572021,-11.16049164,2.103725281,11.3576347
62.02405208,-0.5189707947,-11.34386032,2.357297974,11.59781667
62.03413408,-0.9533674622,-11.45732437,2.337389374,11.73211747
62.04421708,-1.209634552,-11.76298874,1.879940643,11.97352482
62.05429908,-1.688189392,-12.11700256,1.126108246,12.28575819
62.06438208,-2.46297821,-12.22687408,0.6735992432,12.49065441
62.07446408,-2.959346008,-12.20112762,0.9084608459,12.58771406
62.08454608,-2.974763947,-12.38210129,2.070045319,12.90157899
62.09462908,-2.271226959,-12.81709671,3.819457397,13.5655702
62.10471108,-1.076112213,-12.70497986,4.688101044,13.58502198
62.11479408,-0.1824705505,-12.31728607,4.563410339,13.13672507
62.12487608,-0.3071612549,-12.06251587,4.194277954,12.77460781
62.13495821,-0.982407074,-11.19447098,3.496129761,11.7687819
62.14504021,-1.721270599,-10.89135132,4.151766357,11.78225233
62.15512221,-1.616189117,-11.52603149,5.608686676,12.91970725
62.16520521,-0.3481759644,-12.36563553,4.083208923,13.02700133
62.17528721,0.8283773804,-14.08540924,0.4403842163,14.1166179
62.18537021,1.991608429,-16.6048201,-5.540278931,17.61764017
62.19545221,4.267775116,-19.03905807,-10.58059753,22.1956906
62.20553521,7.315886536,-19.41387863,-9.46601532,22.80408572
62.21561721,10.08108627,-18.07102112,-3.851341095,21.04810996
62.22569921,10.62026505,-16.12222366,2.922522583,19.52581019
62.23578221,8.156837769,-14.02343811,6.773414612,17.58038578
62.24586421,7.137607269,-13.08683578,5.807024231,15.99788232
62.25594721,6.693630524,-12.34722382,2.600093079,14.28352581
62.26602921,4.818779297,-11.57063873,-0.7189549255,12.55456932
62.27611221,1.705403595,-10.83117645,-1.629511414,11.08503912
62.28619421,-1.478625183,-9.743987274,-1.006357269,9.906784311
62.29627621,-2.895129547,-8.810827789,-0.9416917419,9.321976441
62.30635921,-2.312391357,-8.009993134,-1.171763306,8.419036348
62.31644121,-0.5903723145,-7.541766815,-1.306183777,7.676776812
62.32652421,1.273252258,-7.312443695,-1.411265259,7.55544001
62.33660621,2.43723175,-7.128027191,-1.568288727,7.69469946
62.34668821,2.995570679,-7.203170929,-1.308429108,7.910189748
62.35677121,3.056493988,-7.238647156,-1.051413574,7.927524118
62.36685321,2.26883194,-7.326963501,-1.575773163,7.830392939
62.37693621,1.389410706,-7.284002838,-1.620081024,7.590245186
62.38701821,1.065035248,-6.552923126,-1.136287079,6.735447268
62.39710121,0.554147644,-5.513784027,-0.9940827942,5.630017274
62.40718321,0.435743866,-4.094285889,-1.249451752,4.302810632
62.41726521,0.6466552734,-2.656825104,-1.850002899,3.301422936
62.42734821,1.362317047,-1.525627441,-2.469714203,3.206701587
62.43743021,1.929786987,-0.6774911499,-2.870730286,3.524792823
62.44751321,2.443967743,-0.100740509,-2.702031097,3.644735797
62.45759521,2.977757721,-0.15328125,-1.878892822,3.524311908
62.46767821,3.398682404,-0.5046006775,-1.073567505,3.599751535
62.47776021,3.662284241,-0.9774673462,-0.3261717224,3.804491591
62.48784221,3.955374756,-1.941013641,0.3623963928,4.420843196
62.49792521,4.000431061,-3.776496735,1.512305145,5.705474837
62.50800721,3.994293823,-6.502927094,3.352129211,8.335419256
62.51809021,3.18492691,-10.72399933,6.710545349,13.04528037
62.52817221,1.610351257,-16.08360397,12.45200592,20.40411722
62.53825521,-0.2194436646,-22.25182709,21.42464722,30.89024883
62.54833721,-2.512824554,-31.68715622,33.6422406,46.28380396
62.55841921,-2.516566772,-36.89063553,25.34843765,44.83074157
62.56850221,-1.320104828,-27.40830414,7.074887695,28.33746369
62.57858421,-0.9713301086,-14.10397064,2.013313293,14.28001752
62.58866721,-1.595532074,-6.107150116,1.686243439,6.533484681
62.59874921,-0.5284011841,-2.094743958,1.254391479,2.49813091
62.60883221,5.053790588,-3.066523132,0.6697073364,5.949190815
62.61891421,10.14425491,-8.14381485,-2.634970551,13.27293102
62.62899621,10.20532791,-12.6712999,-6.66010025,17.58031553
62.63907921,7.127578125,-14.20620804,-8.878786469,18.20581132
62.64916121,4.087400208,-11.75535461,-9.290729828,15.53102905
62.65924421,2.276765442,-8.828790436,-5.894442444,10.85705546
62.66932621,-0.02829116821,-6.668183441,0.3900888062,6.679643708
62.67940821,-2.154320068,-5.077890472,7.486831055,9.299392768
62.68949121,0.7583230591,-4.230951691,7.065457306,8.27022932
62.69957321,3.187920685,-4.606820068,-0.8945397949,5.673255757
62.70965621,3.057541809,-6.557862854,-6.615343323,9.803922399
62.71973821,3.284320221,-9.565109253,-7.454797668,12.56391987
62.72982121,4.044888611,-11.5073204,-5.721851349,13.47290353
62.73990321,3.567381592,-11.65551224,-4.366569672,12.94774527
62.74998521,2.760110321,-10.99134338,-3.270548859,11.79509763
62.76006821,2.493514709,-10.54646851,-1.337768097,10.91948886
62.77015021,2.160157928,-10.72759186,0.5167254639,10.95511363
62.78023321,1.044677582,-11.46346161,1.283281403,11.58227588
62.79031521,-0.01811233521,-11.93662766,1.043031006,11.98212508
62.80039821,-0.1859133911,-11.84157532,0.5167254639,11.85430196
62.81048021,0.2231858826,-11.35628448,0.1221459961,11.35913416
62.82056221,1.149459686,-10.26086243,-0.1926493835,10.32684216
62.83064521,2.03831131,-8.829688568,-0.2661465454,9.065811998
62.84072721,2.048939209,-7.48503479,-0.3324586487,7.76752383
62.85081021,1.300046539,-6.427184601,-0.8574169922,6.613167682
62.86089221,0.9199868774,-6.166875916,-1.156345367,6.341440611
62.87097521,1.007105713,-6.969357147,-0.9728269958,7.10862809
62.88105721,1.034049683,-8.180488586,-0.4544549561,8.258097939
62.89113921,0.7387138367,-9.047485657,0.2653981018,9.081471852
62.90122221,0.3778143311,-9.326206055,0.6137237549,9.354010899
62.91130421,0.2109114075,-9.131461029,0.5020559692,9.147684097
62.92138721,0.2481838989,-8.841813354,0.2278262329,8.848229396
62.93146921,0.4567002869,-8.508606262,0.01437011719,8.520866281
62.94155221,0.8595126343,-8.503217468,0.04969665527,8.546691701
62.95163421,1.114282837,-8.779542847,-0.005837860107,8.849973611
62.96171621,1.024170227,-8.883576508,-0.4186793518,8.952214733
62.97179921,0.8828640747,-8.834927673,-0.8122109985,8.916001496
62.98188121,0.6658154297,-8.72879837,-0.8411009216,8.794468826
62.99196421,0.4282594299,-8.699459381,-0.4412823486,8.72116562
63.00204621,0.2291734314,-8.976533203,0.3613485718,8.986725855
63.01212821,0.3570075989,-9.564510498,1.363215179,9.667764536
63.02221121,0.6343807983,-10.18182678,2.269430695,10.45094978
63.03229321,0.3878434753,-10.70364166,2.39980957,10.97622218
63.04237621,-0.2463876343,-11.13549362,1.84401535,11.28983249
63.05245821,-0.9217831421,-11.51719986,1.066232758,11.60312152
63.06254121,-1.919159088,-12.0315303,0.09744735718,12.18402187
63.07262321,-2.980302429,-12.75976593,-0.2856060791,13.10631146
63.08270521,-3.640279999,-13.16138077,0.5019062805,13.66475364
63.09278821,-3.886817322,-13.10674438,2.015408936,13.81868194
63.10287021,-3.500470734,-12.8557164,3.74655899,13.84050013
63.11295321,-2.415826263,-12.64196091,5.091811523,13.84131268
63.12303521,-1.651066589,-12.64959503,5.833818512,14.02753413
63.13311821,-2.198478241,-12.51846771,5.81181427,13.97578354
63.14320021,-2.842738495,-11.34880005,4.72597229,12.6178936
63.15328221,-2.748135223,-10.53973251,5.399122467,12.1568389
63.16336521,-1.850451965,-11.34894974,5.439987488,12.72070346
63.17344721,-0.8629554749,-12.90586212,1.407523041,13.01103725
63.18353021,-0.1880090332,-14.58042984,-2.562970276,14.80517134
63.19361221,0.513432312,-16.4057341,-5.373974762,17.27111255
63.20369521,2.027982788,-17.83496201,-7.133715363,19.31549841
63.21377721,4.593946838,-17.70937317,-7.637567596,19.82570766
63.22385921,6.956783295,-17.23635681,-5.548811188,19.39788998
63.23394221,8.49603241,-16.05396561,-0.3911366272,18.16770118
63.24402421,8.291856995,-14.47145645,5.413492584,17.53521731
63.25410721,7.910450134,-13.67870499,6.082451477,16.93158018
63.26418921,7.752827911,-12.83221527,2.318229218,15.1705727
63.27427221,6.765780487,-11.85519699,-0.2803669739,13.65284172
63.28435421,3.971541138,-11.00616257,-0.6391708374,11.71824615
63.29443621,1.494043121,-10.35711227,-0.3951782227,10.47177661
63.30451921,-0.06526428223,-9.257498932,-0.8196954346,9.293946767
63.31460121,-0.7149133301,-8.467591553,-0.6786886597,8.524777186
63.32468421,-0.05269042969,-8.04322403,-0.8747808838,8.090826328
63.33476621,1.397344208,-7.690407715,-1.036145325,7.884702835
63.34484821,2.636916504,-7.295229492,-1.29645401,7.864762869
63.35493121,3.473227386,-6.984026642,-1.514999542,7.945763665
63.36501321,3.429218903,-6.706653442,-1.190923462,7.626076407
63.37509621,2.927761688,-6.515201569,-1.175056458,7.238811896
63.38517821,1.751956787,-6.609355774,-1.665287018,7.037479462
63.39526121,0.9006770325,-6.479276276,-1.34091156,6.677595674
63.40534321,0.2685415649,-5.907914429,-0.9196875,5.98509754
63.41542521,0.2453398132,-4.791086884,-0.885408783,4.878386399
63.42550821,0.692460022,-3.589984589,-1.086440735,3.814163565
63.43559021,1.432371368,-2.459235992,-1.601519623,3.265638453
63.44567321,2.127825165,-1.723665619,-2.126627655,3.467161415
63.45575521,2.920726318,-1.318607941,-2.339185638,3.967512896
63.46583821,3.525319061,-1.090781708,-2.082319794,4.23718479
63.47592021,3.820954285,-1.398541718,-1.312919769,4.275437861
63.48600221,4.208049316,-1.798360291,-0.6713539124,4.625202143
63.49608521,4.475393372,-2.435884552,-0.09580078125,5.096259135
63.50616721,4.39950119,-3.571572876,0.9190887451,5.740772392
63.51625021,4.135001221,-5.32742157,2.478096771,7.184749076
63.52633221,3.507356415,-8.014334106,4.294868774,9.745614295
63.53641521,2.160606995,-12.0661084,7.919431458,14.59371745
63.54649721,1.036594391,-17.18127136,14.29497345,22.37446937
63.55657921,-0.2652484131,-23.38886261,23.49110001,33.15027949
63.56666221,-0.5037025452,-30.06782364,28.77077087,41.61832519
63.57674421,-0.213306427,-31.02732834,20.52307205,37.20130495
63.58682721,-0.02439926147,-20.97318604,7.307054901,22.20964158
63.59690921,0.1890568542,-11.83289337,1.208137665,11.89591126
63.60699221,-0.3728746033,-6.331683197,0.2911445618,6.349331676
63.61707421,-0.1459465027,-2.714305573,0.1032852173,2.720188037
63.62715621,2.368674316,-1.877845001,-0.6047424316,3.082634145
63.63723921,5.785768433,-4.932991791,-2.395618286,7.971732016
63.64732121,6.801107025,-10.25547363,-4.725074158,13.18165854
63.65740421,5.596262512,-14.84687576,-8.167914734,17.84552339
63.66748621,4.822072449,-15.73033859,-9.979747009,19.24295417
63.67756821,3.215164032,-13.78678024,-6.386469269,15.53060137
63.68765121,1.344653778,-11.16004257,-0.05867797852,11.24091131
63.69773321,-1.307530975,-8.593479767,10.57925034,13.69226312
63.70781621,1.128353577,-5.426515503,6.482569427,8.529006899
63.71789821,4.56565567,-3.549418945,-1.901645508,6.08767954
63.72798121,4.302802277,-3.705244904,-4.509971466,7.251399165
63.73806321,3.204087067,-5.376220093,-6.14292572,8.769575407
63.74814521,2.977158966,-8.251141663,-6.561006317,10.95406857
63.75822821,2.266287231,-11.12052475,-5.655688934,12.68025811
63.76831021,1.572180634,-12.64420624,-5.669460297,13.94598449
63.77839321,1.523082733,-13.02905594,-4.96113327,14.02458281
63.78847521,1.257684631,-12.42940292,-2.903961182,12.82594317
63.79855821,1.215023346,-11.27949417,-0.3189866638,11.34923006
63.80864021,1.382075958,-10.2452948,0.9503736877,10.38168626
63.81872221,1.952689362,-9.618997192,1.671424255,9.956493448
63.82880521,2.041155396,-9.620045013,2.147883453,10.06603123
63.83888721,1.92125473,-9.301657104,1.676813049,9.644881888
63.84897021,1.739682312,-9.108109589,1.085093536,9.336036783
63.85905221,1.767374725,-8.897048492,0.2404000854,9.074077226
63.86913521,1.400936737,-8.377928009,-0.9617500305,8.548524117
63.87921721,0.8213420105,-7.974965973,-2.074685669,8.281244206
63.88929921,0.3520678711,-7.874375153,-1.868863678,8.100764611
63.89938221,-0.186512146,-8.168214111,-0.5321434021,8.187654435
63.90946421,-0.6309379578,-8.356372833,0.4532574463,8.392406803
63.91954721,-0.8848100281,-8.499026184,0.503253479,8.559766289
63.92962921,-1.027164001,-8.850345612,0.5920188904,8.929399179
63.93971221,-0.830173645,-9.002279663,0.5459147644,9.056944868
63.94979421,-0.5517526245,-8.988208923,0.276026001,9.009357411
63.95987621,-0.2793191528,-8.872050476,-0.1513352966,8.877736266
63.96995921,0.02769241333,-8.618926849,-0.6276448059,8.641794079
63.98004121,0.3996688843,-8.313711548,-0.9324110413,8.375376127
63.99012421,0.855920105,-8.031398621,-1.278191986,8.177391869
64.00020621,1.366208954,-8.084987183,-1.209185486,8.288285359
64.01028921,1.782792664,-8.796307983,-0.2468367004,8.978547331
64.02037121,2.005978546,-10.0050444,1.50003067,10.31382351
64.03045321,1.800156555,-11.23683289,3.055595856,11.78319324
64.04053621,1.159788208,-12.02928497,3.971541138,12.72092546
64.05061821,0.3745211792,-12.13915649,3.93845993,12.76757037
64.06070121,-0.4355941772,-12.06685684,2.948119354,12.42940803
64.07078321,-1.218615875,-12.51128265,1.613943787,12.6736748
64.08086521,-1.918111267,-13.02800812,0.3978726196,13.174462
64.09094821,-2.427801361,-13.33516937,0.1528321838,13.55523218
64.10103021,-2.424657898,-13.29250809,1.240620117,13.56867257
64.11111321,-1.814975739,-12.80167877,3.229085083,13.32681908
64.12119521,-1.014889526,-11.91447372,4.498595123,12.77583825
64.13127871,-0.6177653503,-11.14926498,4.631818085,12.08889914
64.14136071,-0.9385482788,-10.79105988,4.281995544,11.64746032
64.15144371,-1.797013092,-10.48913773,3.639232178,11.24701192
64.16152571,-1.900447998,-11.06633743,5.275329895,12.40583058
64.17160771,-0.4372407532,-11.8909726,6.714137878,13.66257868
64.18169071,0.840352478,-13.32753525,2.359992371,13.56093478
64.19177271,1.282832336,-15.2457962,-5.685327301,16.32185367
64.20185571,2.318678284,-17.85741531,-11.09402985,21.1504385
64.21193771,4.796625366,-18.93218033,-9.839488678,21.86894155
64.22201971,7.38444397,-18.37204514,-5.682782593,20.59990469
64.23210271,8.468639374,-17.19204895,-0.5459147644,19.17243915
64.24218471,8.306077423,-16.16698059,4.418062592,18.70511857
64.25226771,8.95228363,-16.27281052,6.753805389,19.7626322
64.26234971,8.778495026,-15.50296143,5.110522614,18.5343257
64.27243271,7.017107849,-13.22095688,0.1815724182,14.96885005
64.28251471,4.791236572,-11.60282181,-1.271455994,12.61736986
64.29259671,2.098336487,-10.74720108,-0.4833448792,10.96079237
64.30267971,-0.2398013306,-9.463769989,-0.7746391296,9.498447919
64.31276171,-1.6416362,-8.004304962,-0.9321116638,8.223910231
64.32284471,-1.610800323,-7.131320343,-1.224004669,7.412731949
64.33292671,-0.3188369751,-6.751859436,-1.408271484,6.90452688
64.34300971,0.8223898315,-6.768325195,-1.6615448,7.017640779
64.35309171,1.650018768,-6.677314453,-1.536704407,7.047733726
64.36317371,1.757046204,-6.247857513,-1.362167358,6.631623842
64.37325671,1.704056396,-5.795498199,-1.705553284,6.276983319
64.38333871,1.829944611,-5.407355347,-1.889820099,6.013286051
64.39342171,1.476080475,-4.86757782,-1.664837952,5.35199148
64.40350371,1.151106262,-4.021387482,-1.486558685,4.439195831
64.41358671,0.9478289795,-3.002905426,-1.670675812,3.564684901
64.42366871,1.148112488,-2.072739716,-1.981130219,3.088573968
64.43375071,1.690434723,-1.204395447,-2.374661865,3.153911368
64.44383371,2.193388824,-0.4372407532,-2.614912262,3.440915598
64.45391571,2.436483307,-0.129181366,-2.183060303,3.273971749
64.46399871,2.873574371,-0.2523751831,-1.609153748,3.303104401
64.47408071,3.105292511,-0.7223977661,-0.9689350891,3.332196771
64.48416371,3.159629517,-1.211580505,0.04655319214,3.384280308
64.49424571,3.554658051,-2.016606445,1.119521942,4.237407791
64.50432771,3.739224243,-3.349734192,2.088007965,5.437121882
64.51441071,3.719615021,-5.67724411,3.110232239,7.465934715
64.52449271,3.129691772,-9.597891083,5.433401184,11.46456856
64.53457571,2.312391357,-15.13143402,10.81246536,18.74078057
64.54465771,1.458566895,-21.69049438,19.30295929,29.07248186
64.55474071,-0.1637594604,-30.68663681,29.7935939,42.77095666
64.56482271,-3.459006958,-37.89953751,26.12068176,46.15874444
64.57490471,-5.875581665,-31.84477844,11.08474915,34.226949
64.58498771,-4.805606689,-17.75712387,4.303101654,18.89248495
64.59506971,-4.040397949,-8.264463959,3.675157471,9.906208283
64.60515271,-3.588936768,-2.324665833,2.683320007,5.048241735
64.61523471,-1.042132874,0.6732998657,-1.132095795,1.679587605
64.62531771,2.995870056,-0.9782157898,-6.530469818,7.251150224
64.63539971,7.083569641,-5.58368866,-10.85033661,14.1097251
64.64548171,10.72130493,-10.22867935,-12.38674164,19.31330187
64.65556471,12.79374527,-12.5278981,-10.37492523,20.6946182
64.66564671,12.60139526,-12.4681723,-6.554120636,18.89992012
64.67572971,10.60215271,-12.62265106,2.856659546,16.73013645
64.68581171,1.530567169,-13.53021378,26.41197601,29.71534616
64.69589371,-0.9339079285,-11.98258209,9.833052063,15.52879166
64.70597671,-1.188977509,-8.032745819,-8.429420929,11.70443549
64.71605871,-1.989213409,-5.661676483,-9.706415405,11.41166292
64.72614171,0.5303471375,-5.414241028,-6.382277985,8.3862236
64.73622371,2.43723175,-6.13589035,-5.150040436,8.373300752
64.74630671,3.345991974,-6.962172089,-5.323529663,9.381229693
64.75638871,3.35347641,-8.025111694,-6.084547119,10.61460953
64.76647071,2.777623901,-9.182355194,-5.09690094,10.86320582
64.77655371,2.020797729,-10.46174469,-2.815046082,11.0207173
64.78663571,0.7845185852,-11.95878159,-0.5607339478,11.99759763
64.79671871,-0.5269042969,-13.21077805,0.8503816223,13.24860119
64.80680071,-1.292113037,-13.43141922,1.29405899,13.55533722
64.81688371,-1.064436493,-12.59121643,1.149160309,12.68827513
64.82696571,0.1401086426,-11.09627518,0.7420069885,11.12193902
64.83704771,1.362766113,-9.257199554,0.3793112183,9.364654402
64.84713071,1.811682587,-7.76704834,0.1460961914,7.976877698
64.85721271,1.668729858,-6.547534332,-0.9467811584,6.822848359
64.86729571,1.928739166,-6.373745728,-1.901645508,6.925382661
64.87737771,2.61625946,-7.225773926,-1.947749634,7.927821329
64.88746071,2.916385345,-8.357121277,-1.034498749,8.911619784
64.89754271,2.046544189,-9.135352936,0.1047821045,9.362371263
64.90762471,1.40527771,-9.345216522,0.7596702576,9.480768755
64.91770771,0.9066645813,-9.246122589,0.7978408813,9.324664802
64.92778971,0.2704875183,-8.9102211,0.7493417358,8.945765288
64.93787271,-0.1796264648,-8.614286499,0.4999603271,8.630652228
64.94795471,-0.07858657837,-8.286168823,-0.2026785278,8.289019737
64.95803771,0.2857557678,-8.122409363,-1.220262451,8.218529714
64.96811971,0.7595205688,-8.091274109,-1.678609314,8.298392461
64.97820171,1.107247467,-8.302335205,-1.352138214,8.484282207
64.98828471,0.9535171509,-8.57327179,-0.746048584,8.658335442
64.99836671,0.7439529419,-9.144783325,0.1971400452,9.177112413
65.00844971,0.682281189,-10.20592667,1.251248016,10.30495358
65.01853171,0.6864724731,-11.20914047,2.350861359,11.47356195
65.02861471,0.6759942627,-11.76164154,2.954855347,12.14596024
65.03869671,0.3776646423,-12.03647003,2.847378845,12.37444171
65.04877871,-0.2585124207,-12.41832596,2.207010498,12.61556751
65.05886171,-1.04018692,-12.88041504,1.244362335,12.98212302
65.06894371,-2.078876953,-12.83820282,0.6840774536,13.0234075
65.07902671,-2.998564453,-12.66426453,1.019978943,13.05432273
65.08910871,-3.499273224,-12.72114624,2.162103882,13.36963604
65.09919171,-3.316652985,-12.86005737,3.662733307,13.77667877
65.10927371,-2.619552612,-12.95211594,4.617298279,13.99781435
65.11935571,-2.013612671,-12.88999512,4.259542236,13.72407775
65.12943871,-2.06166275,-12.6353746,3.063529358,13.16390355
65.13952058,-2.476001129,-11.83334244,2.166295166,12.28215818
65.14960358,-2.640059967,-11.43097916,2.974464569,12.10308393
65.15968558,-1.865570526,-11.94336365,5.368436279,13.22665478
65.16976858,-0.04580474854,-13.1729068,5.024002533,14.0985167
65.17985058,1.341360626,-14.63686249,-0.176333313,14.69925458
65.18993258,2.605182495,-16.74852127,-6.75724823,18.247201
65.20001558,5.132526855,-18.30543365,-10.01911514,21.48986741
65.21009758,7.968828735,-18.5688858,-7.485334167,21.54845653
65.22018058,10.54137909,-17.63677414,-1.929936676,20.63737219
65.23026258,10.8344696,-15.80353638,3.886068878,19.55093412
65.24034558,8.725804596,-13.76118347,6.048472137,17.38084726
65.25042758,7.897127838,-12.60783188,4.433779907,15.52354525
65.26050958,7.129224701,-11.69877228,1.39000946,13.77023035
65.27059258,5.316943359,-11.06648712,-1.274749146,12.34350069
65.28067458,2.187101898,-10.37417679,-2.066901855,10.80180735
65.29075758,-0.9642947388,-9.698930969,-1.223256226,9.823211394
65.30083958,-2.445913696,-9.021888885,-0.7957452393,9.381374279
65.31092158,-2.235601044,-8.330476685,-1.13613739,8.699744938
65.32100458,-0.5688171387,-8.027357025,-1.121467896,8.125251011
65.33108658,1.62412262,-7.625143433,-1.122665405,7.876608678
65.34116958,2.531236267,-6.925348663,-1.067879333,7.450367603
65.35125158,2.329755249,-6.992558899,-1.397643585,7.501802921
65.36133458,2.477498016,-7.08835968,-1.365909576,7.63207366
65.37141658,2.163900146,-6.77595932,-1.392703857,7.248152357
65.38149858,1.863025818,-5.933810577,-1.536105652,6.406293292
65.39158158,1.346899109,-4.914280701,-1.304088135,5.25974694
65.40166358,0.7800279236,-3.69282074,-1.332229614,4.002524744
65.41174658,0.6045927429,-2.373913422,-1.691632233,2.977014768
65.42182858,0.7915539551,-1.246607666,-2.01960022,2.501873975
65.43191158,1.293759613,-0.170944519,-2.410736847,2.741293146
65.44199358,1.745220795,0.4167333984,-2.270777893,2.894113783
65.45207658,2.47704895,0.04176315308,-1.75165741,3.034109316
65.46215858,3.203488312,-0.5978567505,-1.251098328,3.490704382
65.47224058,3.511248322,-0.7668553162,-0.2915936279,3.605822887
65.48232358,3.785927124,-1.284478912,0.6047424316,4.043370336
65.49240558,3.857328644,-2.410287781,1.479373627,4.782992555
65.50248858,3.813170471,-4.598587189,2.689008179,6.551186012
65.51257058,3.165018311,-8.361162872,5.549110565,10.52231028
65.52265258,1.849553833,-13.82046021,12.32342331,18.60894225
65.53273558,-0.005987548828,-21.19517441,23.1514563,31.38830009
65.54281758,-2.344275055,-31.64135147,34.46822296,46.84793637
65.55290058,-3.619473267,-39.49252487,27.23676086,48.11030295
65.56298258,-4.614005127,-31.81394257,6.264772339,32.75153977
65.57306558,-4.7762677,-16.94536194,1.458866272,17.66596488
65.58314758,-3.475023651,-7.031477966,2.470612335,8.223223035
65.59322958,-0.2347119141,-1.885628815,1.658700714,2.522295337
65.60331258,7.076833649,-2.739902344,-1.421593781,7.720723297
65.61339458,13.92554169,-8.561895447,-7.198979645,17.8620288
65.62347758,15.06901382,-13.52272934,-12.27537323,23.67750355
65.63355958,12.08227478,-13.38905731,-12.86275177,22.15171783
65.64364258,8.713530121,-10.28226791,-8.175548859,15.76357319
65.65372458,4.42524765,-7.893684998,0.7234455872,9.078350793
65.66380658,-2.409838715,-6.768325195,12.64360748,14.54229551
65.67388958,-2.906805267,-5.710624695,5.251679077,8.284979445
65.68397158,0.6119274902,-4.846022644,-3.245101776,5.864220004
65.69405458,2.10971283,-5.215753784,-6.338419189,8.475289587
65.70413658,2.647095337,-6.961573334,-7.855065308,10.82463246
65.71421958,3.631598053,-9.49759964,-7.926017761,12.89242649
65.72430158,3.994293823,-10.84794159,-6.03769455,13.0417014
65.73438358,3.569028168,-10.84210373,-4.209097137,12.16575826
65.74446658,2.365231476,-10.56547897,-2.442620544,11.09910181
65.75454858,1.64747406,-10.86410797,-0.4093986511,10.99593652
65.76463158,0.5995033264,-11.7050592,1.119372253,11.77373388
65.77471358,-0.6899153137,-12.13286957,1.675765228,12.26746495
65.78479658,-1.20873642,-11.77646072,1.135089569,11.89262373
65.79487858,-0.5111869812,-11.03879471,0.3838018799,11.0572874
65.80496058,0.7334747314,-9.839488678,-0.2612068176,9.870245773
65.81504358,2.102976837,-8.441695404,-0.6442602539,8.723520169
65.82512558,2.52030899,-6.97609314,-1.372645569,7.54334069
65.83520858,2.10028244,-6.251899109,-1.864822083,6.85383033
65.84529058,1.689087524,-6.593189392,-1.606758728,6.993199313
65.85537358,1.415306854,-7.455546112,-0.8842112732,7.640032127
65.86545558,1.017284546,-8.55920105,0.04400848389,8.619554931
65.87553758,0.425565033,-9.400152283,0.7009922791,9.435854954
65.88562058,-0.01092727661,-9.668993225,0.7705975342,9.699658239
65.89570258,-0.2827619934,-9.534872131,0.6536906433,9.561435685
65.90578558,-0.3594026184,-9.118288422,0.3658392334,9.132699071
65.91586758,-0.1788780212,-8.725654907,0.08951385498,8.727947275
65.92595058,0.2088157654,-8.372539215,-0.0722996521,8.375454864
65.93603258,0.7343728638,-8.166417847,-0.4077520752,8.209503377
65.94611458,1.107546844,-8.18587738,-0.9056167603,8.309957293
65.95619758,1.011746063,-8.340954895,-1.255439301,8.495368532
65.96627958,0.6899153137,-8.531808014,-1.215921478,8.645588249
65.97636258,0.4787045288,-8.891360321,-0.4938230896,8.917920589
65.98644458,0.545615387,-9.448052673,0.780327301,9.49590997
65.99652758,0.9624984741,-10.28885422,2.142494659,10.55354006
66.00660958,0.973276062,-11.27829666,2.913241882,11.68906413
66.01669158,0.4951702881,-11.85025726,2.722089386,12.16895893
66.02677458,-0.4950205994,-12.29947311,2.064656525,12.48138177
66.03685658,-1.780397644,-12.89493484,1.298100586,13.08182807
66.04693958,-3.154689789,-13.32903214,0.5983058167,13.71032951
66.05702158,-4.247118073,-13.29939377,0.7182064819,13.97954603
66.06710458,-4.334835663,-13.20164703,1.76677597,14.00699047
66.07718658,-3.506158905,-13.14985474,3.683689728,14.09898577
66.08726858,-1.872456207,-12.82967056,5.119054871,13.93955745
66.09735158,-0.8863069153,-12.72848099,5.135370941,13.75397408
66.10743358,-1.116079102,-12.79823593,4.397555237,13.57862171
66.11751658,-1.812730408,-12.19139786,3.324736176,12.76597211
66.12759858,-2.238445129,-12.23884918,4.164938965,13.12047188
66.13768171,-1.707948303,-12.7468927,5.002597046,13.799505
66.14776371,-0.3035687256,-13.925392,3.084485779,14.26613994
66.15784571,0.6809339905,-15.6586377,-2.539020081,15.87775893
66.16792871,2.507735138,-17.95067139,-9.511969757,20.46931624
66.17801071,5.416935425,-19.11225586,-10.69795349,22.56252917
66.18809371,8.213420105,-18.57143051,-6.516698456,21.32664202
66.19817571,10.2187999,-17.43259872,-0.7098239136,20.21937733
66.20825771,9.004075928,-15.38545578,4.128414917,18.29834535
66.21834071,7.617658997,-14.21578812,5.707032166,17.10811435
66.22842271,7.509733429,-13.48306183,3.570824432,15.84108076
66.23850571,7.042854309,-12.17957245,-0.1398092651,14.06994415
66.24858771,4.815037079,-11.12291977,-1.248852997,12.18456237
66.25867071,1.673070831,-10.0156723,0.26210495,10.15783228
66.26875271,-0.8896000671,-8.955726471,0.07708969116,9.000131539
66.27883471,-1.958826599,-8.036338348,-0.8342152405,8.313582306
66.28891771,-1.457519073,-7.335645447,-1.40527771,7.609918621
66.29899971,-0.02679428101,-6.987020416,-1.550176392,7.156969965
66.30908271,1.19346817,-6.610702972,-2.089654541,7.035084659
66.31916471,1.915267181,-6.657854919,-2.424957275,7.340006696
66.32924771,2.485880585,-6.784491577,-1.716630249,7.426691569
66.33932971,2.469414825,-6.717131653,-1.292262726,7.272400578
66.34941271,2.298170929,-6.460415497,-1.579216003,7.036510584
66.35949471,1.930385742,-5.81301178,-1.831291809,6.393052851
66.36957671,1.349892883,-4.983287201,-1.840722198,5.481206102
66.37965971,0.9794132996,-4.18185379,-1.785786438,4.651471244
66.38974171,1.209634552,-3.398083649,-2.053280182,4.150439463
66.39982471,1.534908142,-2.583777008,-2.29802124,3.783219297
66.40990671,1.988614655,-1.868414612,-2.29098587,3.562888949
66.41998871,2.357447662,-1.477427673,-2.085313568,3.476907345
66.43007171,2.847378845,-1.244661713,-1.549427948,3.472387656
66.44015371,3.26575882,-1.328188019,-0.8893006897,3.635948267
66.45023671,3.37682785,-1.456321564,-0.2538720703,3.686229762
66.46031871,3.410956879,-1.702260132,0.4888833618,3.843347932
66.47040171,3.414399719,-2.442321167,1.210382996,4.368991316
66.48048371,3.604953461,-3.905977478,2.092648315,5.712401114
66.49056571,3.62845459,-6.200855255,3.37458252,7.937511939
66.50064871,2.950065308,-9.801617432,6.377637634,12.06021772
66.51073071,2.710563354,-14.98129623,11.97434921,19.36934252
66.52081371,2.097138977,-21.36746613,19.74948074,29.17205152
66.53089571,0.4679269409,-29.92756531,30.64262833,42.83513501
66.54097871,-2.308649139,-36.06165939,24.39507019,43.59922693
66.55106071,-4.775818634,-29.33554642,8.392148438,30.88382882
66.56114271,-4.26852356,-16.49569702,3.381468201,17.37131661
66.57122571,-3.030148773,-7.94368103,3.44942688,9.175097585
66.58130771,-1.745669861,-3.206781464,2.565814362,4.462534477
66.59139071,2.573298798,-3.095562744,0.05673202515,4.025865612
66.60147271,8.199349365,-6.988217926,-4.996908875,11.87575758
66.61155571,10.39483383,-10.95766342,-9.958790588,18.09144737
66.62163771,10.23751099,-12.16355576,-12.33779343,20.12411157
66.63171971,9.346264343,-10.36324951,-10.03617966,17.18937171
66.64180271,7.237749023,-8.414901123,-4.812492371,12.09775412
66.65188471,2.62449234,-7.253765717,7.790549469,10.96347291
66.66196771,-1.87799469,-6.50337616,15.17244873,16.613969
66.67204971,-0.1258882141,-5.321733398,1.520538025,5.536129523
66.68213271,0.7993377686,-5.203928375,-6.212830353,8.143652276
66.69221471,0.7545808411,-6.496640167,-7.892786865,10.25045415
66.70229671,1.944755859,-9.003327484,-8.08064621,12.25311488
66.71237971,3.109932861,-11.31377289,-6.92460022,13.62436155
66.72246171,3.095712433,-11.80085999,-5.770200806,13.49588638
66.73254471,2.624043274,-11.36466705,-5.250780945,12.79108912
66.74262671,2.334245911,-10.97847015,-3.560346222,11.77504039
66.75270971,2.264191589,-11.12531479,-0.6249504089,11.37056532
66.76279171,1.369202728,-11.24371857,2.008672943,11.50350774
66.77287371,0.4489164734,-10.9247319,2.827470245,11.29362126
66.78295671,0.2230361938,-10.55799454,1.850302277,10.72122252
66.79303871,0.8798703003,-9.951006775,0.4113446045,9.998295453
66.80312171,1.959125977,-9.104816437,-0.3050656128,9.318203795
66.81320371,2.271376648,-8.158634033,-0.7438032532,8.501511892
66.82328671,2.101180573,-7.496111755,-1.449435883,7.918807715
66.83336871,2.492017822,-7.503296814,-1.578916626,8.062418596
66.84345071,2.224973145,-8.051157532,-0.710123291,8.383073314
66.85353371,1.595382385,-8.515791321,0.3616479492,8.671489838
66.86361571,0.6658154297,-8.857231293,0.7682025146,8.915379491
66.87369871,0.03847000122,-9.059011688,1.026415558,9.117055534
66.88378071,-0.2222877502,-8.908275146,1.093476105,8.97788772
66.89386371,-0.254021759,-8.431217194,1.119372253,8.508991989
66.90394571,-0.04745132446,-8.08768158,0.8900491333,8.136647493
66.91402771,0.4180805969,-8.099506989,0.3532653809,8.117980123
66.92411071,0.688717804,-8.415799255,-0.7252418518,8.475021243
66.93419271,0.6393205261,-8.70305191,-1.93532547,8.938530526
66.94427571,0.4770579529,-8.684191132,-2.598596191,9.077194614
66.95435771,0.3550616455,-8.569080505,-2.294129333,8.877963667
66.96444071,0.4327500916,-8.603508911,-1.083297272,8.682233077
66.97452271,0.6792874146,-9.075776825,0.7908055115,9.135454544
66.98460471,0.9193881226,-9.855205994,2.586770782,10.23043219
66.99468771,1.303639069,-10.58404037,3.619173889,11.26142998
67.00476971,1.418300629,-11.30928223,3.373235321,11.88655365
67.01485271,1.007105713,-11.94785431,2.186353455,12.18792952
67.02493471,-0.1263372803,-12.14529373,0.7080276489,12.16656994
67.03501771,-1.463955688,-11.95698532,-0.2915936279,12.04980046
67.04509971,-2.644850006,-11.9586319,-0.4320016479,12.25523292
67.05518171,-3.226240997,-12.51053421,0.7072792053,12.93917853
67.06526471,-3.024610291,-13.23233322,2.716999969,13.84286815
67.07534671,-2.062710571,-13.23712326,4.65112793,14.18129748
67.08542971,-0.9921368408,-12.58223511,5.3004776,13.68912118
67.09551171,-1.132844238,-12.18166809,4.696483612,13.10470648
67.10559471,-2.4034021,-11.60671371,3.349734192,12.3171776
67.11567671,-3.118016052,-10.75483521,2.935246124,11.5760172
67.12575871,-2.832709351,-11.17770584,4.56685318,12.40247951
67.1358415,-1.348695374,-12.69854324,4.813839569,13.64716202
67.1459235,0.4468208313,-14.46292419,2.744093628,14.7277247
67.1560065,1.745220795,-16.25335098,-1.517843628,16.41709667
67.1660885,3.608396301,-18.0048587,-7.581434326,19.86639392
67.1761715,6.07511673,-18.9338269,-9.628277893,22.09299843
67.1862535,8.854237518,-18.58834534,-6.29860199,21.53129098
67.1963355,10.98834961,-17.58094025,-0.2080673218,20.7334652
67.2064185,10.53209839,-16.27625336,5.206622772,20.07362549
67.2165005,9.595496063,-15.12559616,6.60860733,19.09269218
67.2265835,9.134155426,-14.10801224,5.110821991,17.56671017
67.2366655,7.577392731,-12.20442078,1.737436981,14.47008826
67.2467485,5.234464874,-10.84285217,-1.050814819,12.0859951
67.2568305,1.964664459,-9.878557434,-1.656455383,10.20733304
67.2669125,-0.8708889771,-8.837921448,-1.40288269,8.990849958
67.2769955,-1.942510529,-7.729177094,-1.420995026,8.095230235
67.2870775,-1.576671295,-6.985523529,-1.407073975,7.298170217
67.2971605,-0.07140151978,-6.709198151,-1.575024719,6.891962048
67.3072425,1.310375061,-6.510860596,-1.945504303,6.920503991
67.3173255,2.030677185,-6.659800873,-2.003733215,7.24510485
67.3274075,2.128723297,-6.754254456,-1.482666779,7.235310422
67.3374895,1.858834534,-6.561455383,-1.260528717,6.935192515
67.3475725,1.614392853,-6.290967865,-1.355581055,6.634767589
67.3576545,1.090182953,-5.743556213,-1.403331757,6.012177381
67.3677375,0.4114942932,-4.750371552,-1.348994751,4.95531475
67.3778195,0.2257305908,-3.599414978,-1.445693665,3.885456557
67.3879025,0.386945343,-2.48408432,-1.849104767,3.120831627
67.3979845,0.8428971863,-1.28941864,-2.412233734,2.862157872
67.4080665,1.498982849,-0.08816665649,-3.022065582,3.374552315
67.4181495,1.759441223,0.7156617737,-2.897674255,3.464725282
67.4282315,2.178120575,0.4896318054,-2.293530579,3.200661035
67.4383145,2.825374603,-0.107177124,-1.644480286,3.270862882
67.4483965,3.106789398,-0.4102967834,-0.5599855042,3.183405029
67.4584795,3.308869171,-1.339564362,0.4547543335,3.598589915
67.4685615,3.480562134,-2.976859589,1.560953979,4.838655092
67.4786435,3.196003876,-5.529351654,2.981499939,7.048227605
67.4887265,2.388582916,-9.688602448,6.223308563,11.7602685
67.4988085,2.443518677,-15.85263428,13.62227234,21.0438376
67.5088915,2.150428162,-23.66922958,24.69265137,34.27220159
67.5189735,1.510658569,-34.40655121,34.64904694,48.85334491
67.5290565,-0.7794291687,-39.88605652,23.3319809,46.21565045
67.5391385,-3.285368042,-29.48957611,6.077960815,30.28812226
67.5492205,-3.886817322,-14.59375214,2.423011322,15.29561814
67.5593035,-2.927162933,-5.862259369,2.498005371,7.012445977
67.5693855,0.205821991,-1.598076782,1.054407349,1.925613396
67.5794685,7.575297089,-4.244273987,-2.907853088,9.157215583
67.5895505,13.05540115,-10.4563559,-10.17583923,19.57872779
67.5996335,13.53230942,-13.93676834,-14.278358,24.10867929
67.6097155,11.77197006,-12.30845444,-12.73865982,21.26853977
67.6197975,9.864786072,-9.133856049,-6.093378754,14.76044021
67.6298805,6.153553619,-6.747368774,5.802383881,10.819467
67.6399625,-0.4227209473,-5.195545807,14.35589676,15.27298795
67.6500455,-1.86272644,-4.041745148,2.371967468,5.042983571
67.6601275,-1.487905884,-3.227438507,-4.428091736,5.67787105
67.6702105,0.08277786255,-4.560266876,-6.900650024,8.271750535
67.6802925,1.758094025,-7.459737396,-9.027277679,11.84188832
67.6903745,3.267405396,-10.68537964,-7.37037323,13.38565193
67.7004575,3.370091858,-12.35246292,-5.003495178,13.74684776
67.7105395,2.23021225,-12.43464203,-3.134481812,13.01611099
67.7206225,0.6180647278,-11.81328415,-1.077160034,11.87838205
67.7307045,-0.3300636292,-11.70416107,0.7557783508,11.7331807
67.7407875,-1.363813934,-11.90968369,1.795665894,12.12126107
67.7508695,-2.04534668,-11.80654816,2.3237677,12.2056511
67.7609515,-1.595382385,-11.38801849,1.841919708,11.64580948
67.7710345,-0.4414320374,-10.7416626,1.177301788,10.81499964
67.7811165,1.066232758,-9.564660187,0.4102967834,9.632648661
67.7911995,2.351609802,-8.149802399,-0.649050293,8.507091987
67.8012815,3.093467102,-6.975045319,-1.927691345,7.869993001
67.8113645,3.248694305,-6.330635376,-2.762056274,7.632818209
67.8214465,3.182831268,-6.727310486,-1.917512512,7.685309069
67.8315285,3.407364349,-7.518115997,-0.2802172852,8.258978247
67.8416115,3.000959473,-8.376580811,0.9063652039,8.943956715
67.8516935,2.164498901,-9.004225616,1.34674942,9.358144498
67.8617765,1.525178375,-9.112450562,1.553619232,9.368919737
67.8718585,0.800684967,-9.012757874,1.202150116,9.127763461
67.8819415,0.4096980286,-8.674311676,0.5159770203,8.699296972
67.8920235,0.3359014893,-8.384664001,-0.2146536255,8.394134643
67.9021055,0.4188290405,-8.047265625,-1.341061249,8.168986906
67.9121885,0.8175997925,-7.835156708,-2.363734589,8.224681833
67.9222705,1.354832611,-7.960895233,-2.339335327,8.407372603
67.9323535,1.434317322,-8.176297302,-1.574276276,8.449109394
67.9424355,0.9434880066,-8.513995056,-0.4451742554,8.577672269
67.9525185,0.3640429688,-9.019194489,0.6010002136,9.046524071
67.9626005,0.00853225708,-9.97031662,1.597627716,10.09750962
67.9726825,0.1097218323,-10.88147186,2.409838715,11.14566245
67.9827655,0.1722917175,-11.33008896,2.45833786,11.59500001
67.9928475,-0.0983454895,-11.36346954,1.907633057,11.52289789
68.0029305,-0.4351451111,-11.47349075,1.354533234,11.56136245
68.0130125,-1.080303497,-12.18256622,1.003213806,12.27144708
68.0230955,-2.136656799,-12.90002426,0.7515870667,13.09735895
68.0331775,-3.14630722,-13.35268295,0.8583151245,13.74518447
68.0432595,-3.66707428,-13.49862946,1.707050171,14.09164473
68.0533425,-3.233276367,-13.49608475,2.886746979,14.17503748
68.0634245,-1.609902191,-12.99178345,3.957320709,13.67620596
68.0735075,-0.1221459961,-12.33345245,4.645589447,13.1799268
68.0835895,0.2538720703,-11.89681046,5.14719635,12.96503684
68.0936725,-0.4487667847,-11.31167725,4.52823349,12.19263435
68.1037545,-1.36785553,-10.77803696,4.320615234,11.69208388
68.1138365,-1.61469223,-11.22904907,6.090534668,12.87607808
68.1239195,-0.9035211182,-12.42012222,5.654940491,13.67677368
68.1340015,-0.1143621826,-13.97389114,0.9439370728,14.00620325
68.1440845,-0.1038839722,-15.89260117,-5.425168304,16.793392
68.1541665,0.6165678406,-18.3088765,-9.077722778,20.44505234
68.1642495,2.633473663,-19.10462173,-8.547974396,21.09477711
68.1743315,5.28760437,-18.06398575,-5.870043182,19.71607841
68.1844135,7.652686157,-16.77741119,-1.607507172,18.51024611
68.1944965,8.597221985,-15.50805084,3.20842804,18.01959703
68.2045785,8.79436203,-14.55318649,5.132526855,17.76172493
68.2146615,9.085207214,-13.63888779,3.40960968,16.73874811
68.2247435,8.426576843,-12.21804245,0.8699908447,14.86757017
68.2348265,6.572682037,-10.77504318,0.07544311523,12.62170339
68.2449085,4.158951416,-9.556427307,-0.2360591125,10.42486948
68.2549905,1.934427338,-8.470585327,-0.8943901062,8.734572604
68.2650735,0.1469943237,-7.828720093,-1.096020813,7.906435812
68.2751555,0.001347198486,-7.675438843,-0.9008267212,7.72812086
68.2852385,0.7948471069,-7.603438568,-1.037193146,7.714909566
68.2953205,1.284628601,-7.457791443,-0.9740245056,7.63004899
68.3054035,1.942809906,-7.294780426,-1.01444046,7.616916781
68.3154855,1.851799164,-7.540868683,-1.351090393,7.881580164
68.3255675,1.488953705,-7.400610352,-1.47084137,7.690864129
68.3356505,1.198108521,-7.116800537,-1.447489929,7.360675309
68.3457325,0.8723858643,-6.386618958,-1.660946045,6.65647809
68.3558155,0.3776646423,-5.61647049,-1.557810516,5.840731542
68.3658975,0.3227288818,-5.020709381,-1.518292694,5.255177383
68.3759805,0.5243595886,-4.097429352,-2.005828857,4.59208337
68.3860625,1.046174469,-3.054847412,-2.397414551,4.021712354
68.3961445,1.768572235,-1.903890839,-2.764750671,3.794271254
68.4062275,2.165247345,-1.056952057,-2.794987793,3.690176212
68.4163095,2.359243927,-0.3423381042,-2.480491791,3.440358529
68.4263925,2.643053741,-0.05388793945,-1.729054413,3.158839368
68.4364745,2.94632309,0.04490661621,-0.793200531,3.051557542
68.4465575,3.405867462,-0.139360199,0.1401086426,3.411595648
68.4566395,3.590583344,-0.9862989807,1.043779449,3.86711132
68.4667215,3.606450348,-2.686912537,2.223326569,5.016887892
68.4768045,3.527564392,-5.329517212,3.706442413,7.388178369
68.4868865,2.865341492,-9.275162201,6.593189392,11.73494619
68.4969695,2.233804779,-14.64165253,12.34782257,19.28306497
68.5070515,1.817520447,-21.04713226,20.12594788,29.17771298
68.5171345,2.597997437,-29.46008743,28.73604309,41.23598568
68.5272165,2.727029114,-35.47023926,23.33362747,42.54447945
68.5372985,0.5397775269,-29.02958267,8.810678101,30.34198541
68.5473815,-0.7619155884,-15.97298401,3.22713913,16.31352692
68.5574635,-1.363364868,-7.586673431,2.840044098,8.214756722
68.5675465,-1.303040314,-2.82926651,3.264261932,4.51199169
68.5776285,1.082848206,-0.7469467163,2.157313843,2.52675536
68.5877115,5.246889038,-3.221151581,-1.846560059,6.427709245
68.5977935,9.287436676,-8.288414154,-6.103707275,13.86396522
68.6078755,10.58718384,-11.85534668,-9.213041382,18.37165855
68.6179585,9.704918518,-12.18915253,-8.284073181,17.64615401
68.6280405,7.893086243,-11.08145599,-4.757257233,14.41287528
68.6381235,4.972958679,-10.94029953,3.569477234,12.53641255
68.6482055,-1.660946045,-11.15914444,15.93451401,19.52418969
68.6582885,-3.067421265,-9.404193878,0.5334906006,9.906187356
68.6683705,-1.652713165,-7.07428894,-8.632099457,11.28229435
68.6784525,-1.643731842,-5.671555939,-7.211553497,9.320670844
68.6885355,-0.1353186035,-6.340365143,-6.415658569,9.021042963
68.6986175,2.546504517,-8.881780243,-6.252797241,11.15653077
68.7087005,3.41904007,-10.0104332,-5.117707672,11.75115057
68.7187825,2.94392807,-9.847272491,-3.431314545,10.83556217
68.7288655,2.442919922,-9.503587189,-1.199156342,9.885545161
68.7389475,1.90493866,-9.997559967,0.337098999,10.18300704
68.7490295,0.9684860229,-11.31212631,0.6484515381,11.37201197
68.7591125,0.1748364258,-12.33869156,0.8473878479,12.3689912
68.7691945,-0.0001496887207,-12.75332932,0.9499246216,12.78865769
68.7792775,0.5508544922,-12.51652176,0.8972341919,12.56072398
68.7893595,1.4438974,-11.51585266,0.5053491211,11.61701683
68.7994425,2.811902618,-9.733658752,0.199385376,10.13364019
68.8095245,3.573069763,-8.18587738,0.1309776306,8.932668759
68.8196065,3.687881012,-7.06500824,-0.2588117981,7.973819118
68.8296895,3.144660645,-6.593638458,-0.6242019653,7.331751958
68.8397715,2.412982178,-6.816375275,-1.2753479,7.342476908
68.8498545,2.067799988,-7.187902679,-1.806293793,7.694442084
68.8599365,1.240021362,-7.694299622,-1.475781097,7.932075989
68.8700195,0.7357200623,-7.993227997,-0.6140231323,8.050465963
68.8801015,0.2076182556,-8.074508972,-0.1258882141,8.078158721
68.8901845,-0.1948947144,-8.038733368,-0.220790863,8.044126224
68.9002665,-0.1179547119,-8.002808075,-0.3490740967,8.011285984
68.9103485,0.2222877502,-8.236172791,-0.2038760376,8.241693971
68.9204315,0.7077282715,-8.488398285,-0.3110531616,8.523528543
68.9305135,0.7647596741,-8.533155212,-0.796942749,8.604342682
68.9405965,0.5852828979,-8.456664276,-0.9877958679,8.534252599
68.9506785,0.1459465027,-8.555009766,-0.699944458,8.584836324
68.9607605,0.03996688843,-9.109007721,0.01122665405,9.109102319
68.9708435,0.4535568237,-10.0966539,0.9322613525,10.14974113
68.9809255,1.13853241,-11.24536514,1.925895081,11.46575619
68.9910085,1.636097717,-11.8272052,2.300565948,12.15944909
69.0010905,1.50826355,-11.69308411,1.877395935,11.93849615
69.0111735,0.6941065979,-11.61704224,1.217867432,11.70130999
69.0212555,-0.1079255676,-12.11505661,0.4715194702,12.12470928
69.0313385,-1.228046265,-12.53687943,-0.1080752563,12.5973459
69.0414205,-2.610870667,-12.72339157,-0.009879455566,12.98851171
69.0515025,-3.332669678,-13.10360092,1.013093262,13.55866521
69.0615855,-3.020419006,-13.34998856,2.82223114,13.9753395
69.0716675,-1.665436707,-13.2538884,4.504283295,14.09708498
69.0817505,-0.3755690002,-13.13069458,5.070406036,14.08066794
69.0918325,-0.1692979431,-13.2869696,4.706662445,14.09698175
69.1019155,-0.9912387085,-13.0215715,4.142186279,13.70042283
69.1119975,-1.799857178,-11.60641434,3.61558136,12.28905074
69.1220795,-2.333647156,-11.39774826,4.917274475,12.63068338
69.1321625,-0.9051676941,-12.10876968,5.475164337,13.31987449
69.14224508,0.8626560974,-13.2432605,2.639910278,13.53134326
69.15232808,1.922751617,-15.25073593,-2.61401413,15.59214514
69.16241008,3.195105743,-17.41269012,-8.388406219,19.59019747
69.17249308,5.504353638,-18.2570842,-10.09515701,21.57617268
69.18257508,8.549471283,-17.31943405,-7.36797821,20.67228478
69.19265708,10.63253952,-15.69980209,-1.947150879,19.06111432
69.20274008,10.58748322,-14.44705719,4.918621674,18.57431295
69.21282208,9.17352356,-13.84470978,7.076384583,18.05283197
69.22290508,8.293952637,-13.17350555,4.369264069,16.16853016
69.23298708,7.106022949,-11.89606201,0.9699829102,13.89074225
69.24307008,4.985083466,-10.63508423,-0.9291178894,11.78216168
69.25315208,1.915865936,-9.389524384,-1.451381836,9.692276289
69.26323408,-0.1707948303,-8.673563232,-1.188378754,8.756261422
69.27331708,-1.058149567,-8.029901733,-1.386117554,8.217075162
69.28339908,-0.9277706909,-7.463778992,-1.243015137,7.62324353
69.29348208,-0.3897894287,-7.370223541,-0.9114546204,7.436590642
69.30356408,0.752485199,-7.21589447,-0.7514373779,7.293834733
69.31364708,1.843715973,-6.791676636,-0.5852828979,7.061778543
69.32372908,1.881138153,-6.370302887,-1.01444046,6.719265516
69.33381108,1.326691132,-6.736291809,-1.751956787,7.085696104
69.34389408,1.241667938,-6.778953094,-1.404229889,7.033335333
69.35397608,0.8719367981,-6.184539185,-1.213526459,6.362503059
69.36405908,0.3180885315,-5.257516937,-1.001267853,5.36145521
69.37414108,0.1448986816,-4.157903595,-0.9177415466,4.260446864
69.38422408,0.2995271301,-2.765798492,-1.354682922,3.094272713
69.39430608,0.6438111877,-1.441801758,-1.717977448,2.33339488
69.40438808,1.266965332,-0.3336561584,-2.122286682,2.494118751
69.41447108,1.71887558,0.3603007507,-2.131118317,2.761524066
69.42455308,2.273621979,0.2821632385,-1.892215118,2.971439222
69.43463608,3.003953247,-0.1450483704,-1.465901642,3.345690028
69.44471808,3.384312286,-0.7587721252,-0.8493338013,3.570808409
69.45480108,3.875740356,-1.517394562,0.3686833191,4.178489794
69.46488308,4.209097137,-2.82462616,1.669777679,5.33696254
69.47496508,4.212090912,-4.808600464,2.752775574,6.960037473
69.48504808,3.880380707,-8.110883331,4.771477661,10.17893815
69.49513008,3.352877655,-13.23727295,9.582323456,16.6819695
69.50521308,2.705623627,-20.06038422,19.48153793,28.0939448
69.51529508,1.935924225,-29.41383362,30.66508163,42.53549861
69.52537808,0.05807922363,-38.64334076,31.95375183,50.14332871
69.53546008,-2.966381378,-35.14736069,15.78722031,38.64418076
69.54554208,-4.488715668,-20.1774408,3.907624054,21.03680611
69.55562508,-4.137545929,-9.447004852,1.563348999,10.4311671
69.56570708,-3.90927063,-2.819836121,1.273401947,4.98552155
69.57579008,-1.775906982,1.200653229,-0.9662406921,2.351389985
69.58587208,3.222498779,-0.5351371765,-5.306165771,6.23107257
69.59595508,7.672145691,-6.627468109,-10.6885231,14.7319272
69.60603708,11.28203888,-12.61756165,-15.25672348,22.78716469
69.61611908,13.02965469,-14.55333618,-14.05517212,24.06489889
69.62620208,10.78716797,-12.75362869,-7.517367554,18.31744667
69.63628408,6.747518463,-12.13556396,9.023086395,16.55949897
69.64636708,-0.1628613281,-13.87809036,28.95593582,32.11034312
69.65644908,2.480192413,-9.960287476,3.674708405,10.90239253
69.66653208,2.298320618,-4.362827454,-6.929090881,8.50463647
69.67661408,0.8541238403,-2.871628418,-7.726632385,8.287136135
69.68669608,1.262774048,-3.795058136,-6.393953705,7.541863731
69.69677908,2.504741364,-5.97916626,-6.854246521,9.434238381
69.70686108,3.443139954,-7.773185577,-6.760990448,10.86225661
69.71694408,3.02940033,-9.072483673,-6.833140411,11.75495786
69.72702608,2.897973633,-10.65738785,-5.147346039,12.18496361
69.73710908,2.321372681,-12.06446182,-2.129322052,12.46892227
69.74719108,0.8268804932,-13.20763458,0.3742218018,13.23878335
69.75727308,-0.7312294006,-13.84949982,1.420695648,13.94136714
69.76735608,-1.426982574,-13.55431366,1.681004333,13.73249699
69.77743808,-1.079854431,-12.34123627,1.272653503,12.45358764
69.78752108,-0.05388793945,-10.48524582,0.3260220337,10.49045157
69.79760308,1.199455719,-8.477920074,-0.629740448,8.585475866
69.80768608,2.520608368,-7.069049835,-0.9295669556,7.562342682
69.81776808,2.913690948,-5.906866608,-1.879940643,6.84944121
69.82785008,2.964884491,-5.435796204,-2.465522919,6.664624796
69.83793308,2.821782074,-6.169270935,-1.886077881,7.041281681
69.84801508,2.674488373,-7.24987381,-1.139131165,7.810965249
69.85809808,2.008223877,-8.20458847,-0.480201416,8.460427206
69.86818008,1.357676697,-8.71128479,0.1520837402,8.817760383
69.87826308,0.8418493652,-8.851842499,0.2420466614,8.895077996
69.88834508,0.4155358887,-8.785380707,0.589025116,8.81490413
69.89842708,0.4204756165,-8.655450897,1.341959381,8.768950049
69.90851008,0.5993536377,-8.61772934,1.427880707,8.755759651
69.91859208,0.6503974915,-8.578211517,0.3748205566,8.610994146
69.92867508,0.6512956238,-8.727451172,-1.031355286,8.812280277
69.93875708,0.4577481079,-9.081165619,-1.578168182,9.228635714
69.94884008,-0.05643264771,-9.807006226,-1.075214081,9.86593336
69.95892208,-0.3393443298,-10.77863571,-0.016615448,10.78398899
69.96900508,-0.3198847961,-11.81073944,1.216520233,11.877534
69.97908708,-0.2392025757,-11.9891684,2.238894196,12.19877141
69.98916908,-0.4492158508,-11.25928619,2.970123596,11.65310923
69.99925208,-0.6858737183,-11.0919342,3.005150757,11.5122699
