Time (s),Acceleration x (m/s^2),Acceleration y (m/s^2),Acceleration z (m/s^2),Absolute acceleration (m/s^2)
10.00910558,0.2510279846,-9.768087158,-1.469045105,9.881125204
10.01918858,-2.874622192,-8.580157471,-1.477577362,9.168739817
10.02927058,-3.71272934,-7.678282928,-1.515448608,8.662388375
10.03935258,-2.532134399,-7.488178253,-1.517993317,8.049150382
10.04943558,-0.9083111572,-7.60673172,-1.764979706,7.861459787
10.05951758,0.5655239868,-7.19374054,-2.136656799,7.5256244
10.06959958,1.340163116,-6.826105042,-1.943708038,7.222862878
10.07968158,1.745370483,-6.389163666,-1.739382935,6.847859773
10.08976433,1.899250488,-5.96389801,-1.792971497,6.510758687
10.09984633,1.725312195,-5.296885071,-1.709894257,5.827300575
10.10992833,1.090182953,-4.393962708,-1.601220245,4.802011393
10.12001133,0.9580078125,-3.21651123,-1.874402161,3.844100275
10.13009333,1.018781433,-2.038760376,-2.274370422,3.219816811
10.14017533,1.421144714,-1.079255676,-2.539020081,3.103396218
10.15025833,2.338886261,-0.3959266663,-2.92282196,3.764310704
10.16034033,2.808010712,-0.183817749,-2.580633545,3.818164823
10.17042233,3.05739212,-0.6262976074,-1.756597137,3.581274741
10.18050533,3.285068665,-1.090033264,-1.008153534,3.60502735
10.19058733,3.385509796,-1.609902191,-0.08367599487,3.749728432
10.20066933,3.373983765,-2.187101898,0.8129594421,4.102204799
10.21075133,3.145409088,-3.284020844,1.615141296,4.825668103
10.22083433,2.832409973,-5.081183624,2.893782349,6.497303253
10.23091633,1.729503479,-8.175099792,6.199208679,10.40450033
10.24099833,-0.4574487305,-13.00675232,11.80669785,17.57222181
10.25108133,-3.31949707,-20.18447617,20.15229309,28.7149274
10.26116333,-10.14664993,-31.53058182,34.9268692,48.13541614
10.27124533,-13.84366196,-38.79048477,22.72514282,47.0402041
10.28132733,-10.29828461,-32.78108139,5.011129303,34.72413253
10.29141033,-6.398444366,-17.72389297,3.305725708,19.13123872
10.30149233,-3.614533539,-8.015830994,4.423750763,9.843168699
10.31157433,-1.468296661,-2.324216766,2.810256042,3.9313379
10.32165733,1.580712891,-0.1712438965,-0.06391708374,1.591245772
10.33173933,5.956263885,-4.670288086,-4.628075867,8.871739204
10.34182133,9.724378052,-11.87196213,-10.1803299,18.41592056
10.35190433,10.57296341,-16.14018631,-11.73185349,22.58161986
10.36198633,10.02525238,-14.37565567,-9.706265717,20.03438932
10.37206833,9.298513641,-10.48389862,1.39360199,14.08249313
10.38215133,4.504732361,-8.07241333,14.32161804,17.04597354
10.39223333,1.598525848,-7.1000354,7.487130432,10.44140363
10.40231533,-1.113235016,-5.203928375,0.7412585449,5.373046339
10.41239733,-3.538940735,-5.079686737,-5.681435394,8.402739256
10.42248033,-2.209255829,-7.347470856,-8.765621796,11.6491315
10.43256233,1.400337982,-10.06252487,-9.68710556,14.03764109
10.44264433,3.736978912,-11.65012344,-7.657476196,14.43354874
10.45272733,3.702999573,-11.19716537,-5.35316803,12.9516457
10.46280933,2.613864441,-10.34109558,-3.021915894,11.08614093
10.47289133,1.082848206,-10.22463776,-0.8015830994,10.31301668
10.48297333,-0.3303630066,-11.25823837,0.3600013733,11.26883632
10.49305633,-1.791175232,-12.27567261,0.8884025574,12.43743164
10.50313833,-2.9368927,-12.3102507,0.6632707214,12.67310298
10.51322033,-2.307601318,-11.40867554,0.2395019531,11.64217602
10.52330333,-0.7571255493,-10.15428406,0.2460882568,10.18544468
10.53338533,0.3215313721,-8.829688568,0.05807922363,8.835731765
10.54346733,1.395547943,-7.611970825,-0.4408332825,7.751386191
10.55355033,2.042203217,-7.042554932,-1.085542603,7.412595813
10.56363233,2.424059143,-6.884333954,-1.791773987,7.515355663
10.57371433,1.840273132,-7.219037933,-1.642085266,7.628732392
10.58379633,1.115031281,-7.842491455,-0.7933502197,7.960990614
10.59387933,0.5608836365,-8.314909058,0.2526745605,8.337634408
10.60396133,-0.2430944824,-8.599167938,0.9307644653,8.652809177
10.61404333,-0.7734416199,-8.137228546,1.58894577,8.326911133
10.62412633,-1.428329773,-7.342680817,2.216440887,7.801775293
10.63420833,-2.147584076,-6.865473175,1.736688538,7.400197724
10.64429033,-2.298170929,-6.804849243,0.3948788452,7.193294943
10.65437333,-1.843117218,-7.69564682,-0.8610095215,7.95998734
10.66445533,-0.7277865601,-8.952583008,-2.156715088,9.237414993
10.67453733,0.2848576355,-9.803563385,-2.875520325,10.22054872
10.68462033,0.6834786987,-10.36953644,-2.185455322,10.61935234
10.69470233,0.6310876465,-10.88132217,-0.4260140991,10.90792977
10.70478433,0.2874023438,-11.27275818,2.009421387,11.45405829
10.71486633,-0.1704954529,-11.48247208,4.348157959,12.27936119
10.72494933,-0.6610253906,-11.31242569,4.703818359,12.26922315
10.73503133,-1.250499573,-11.47364044,2.278561707,11.76435368
10.74511333,-2.108814697,-12.09200455,-0.3082090759,12.27838207
10.75519633,-3.783083038,-12.38165222,-1.356479187,13.01756755
10.76527833,-5.422324219,-12.29692841,-0.9274713135,13.47131216
10.77536033,-6.371949463,-12.20726486,0.5722599792,13.7821093
10.78544233,-6.610702972,-12.08287354,2.829565887,14.0607137
10.79552533,-5.45031601,-11.60057648,4.574487305,13.60901368
10.80560733,-3.893403625,-11.6029715,4.752317505,13.12905408
10.81568933,-3.69042572,-11.67122955,3.302133179,12.67836444
10.82577233,-4.280498657,-10.66367477,2.252216492,11.70935983
10.83585433,-4.823868713,-10.44542862,2.802621918,11.84193304
10.84593633,-4.884492645,-12.25711121,4.117936707,13.82217227
10.85601933,-3.447780304,-15.1011969,4.556225281,16.14597552
10.86610133,-1.388063507,-17.94363602,1.793869629,18.0864248
10.87618333,0.6740483093,-20.3883522,-5.908513184,21.23793245
10.88626533,3.783831482,-21.3292955,-10.6394252,24.13407541
10.89634833,7.472760315,-21.02018829,-8.82714386,23.99185135
10.90643033,9.56076828,-20.31904633,-3.133883057,22.67362249
10.91651233,8.324938202,-18.90059601,4.560117188,21.15021972
10.92659533,6.395151215,-16.50767212,8.432714081,19.60897408
10.93667733,5.925577698,-14.32895279,5.597010956,16.48508085
10.94675933,4.789739685,-12.56846375,0.02424957275,13.45022212
10.95684233,2.698288879,-11.04852448,-2.106719055,11.56671609
10.96692433,-0.1143621826,-9.645342407,-1.873953094,9.826362962
10.97700633,-2.818339233,-8.103698273,-1.792971497,8.765141671
10.98708933,-3.474724274,-6.831044769,-2.210902405,7.97652624
10.99717133,-1.99849411,-6.304589539,-2.131268005,6.948678383
11.00725333,-0.02903961182,-6.444099426,-2.105521545,6.779416029
11.01733533,1.539548492,-6.238427124,-2.508782959,6.897983363
11.02741833,2.421664124,-6.062692566,-2.56955658,7.015933245
11.03750033,2.620450745,-6.046825562,-2.417622528,7.01966952
11.04758233,2.425106964,-6.143524475,-2.237696686,6.973616223
11.05766533,2.04534668,-6.045029297,-1.900747375,6.658728319
11.06774733,1.364861755,-5.422922974,-1.682052155,5.839541133
11.07782933,0.7490423584,-4.330644379,-1.867815857,4.77538284
11.08791233,0.6535409546,-2.896925812,-2.344574432,3.783691875
11.09799433,1.119671631,-1.524130554,-2.639461212,3.247059285
11.10807633,1.854493561,-0.6405180359,-2.539319458,3.208980061
11.11815833,2.549947357,-0.2550695801,-2.057172089,3.286221085
11.12824133,2.866539001,-0.7926017761,-1.428329773,3.299301345
11.13832333,3.248245239,-1.542691956,-0.5554948425,3.638622009
11.14840533,3.898792419,-1.929936676,0.2375559998,4.356795928
11.15848833,4.063599701,-2.373164978,0.8782237244,4.787069192
11.16857033,3.746109924,-3.711831207,2.17752182,5.705491368
11.17865233,3.051254883,-5.957162018,4.623285828,8.134660872
11.18873533,1.306034088,-9.18519928,8.051007843,12.28382425
11.19881733,-0.707428894,-13.88108414,13.22410034,19.18493634
11.20889933,-4.950804749,-20.88861191,21.33154083,30.26349632
11.21898133,-10.84360062,-31.52234894,33.93847458,47.57165347
11.22906433,-9.620344391,-36.68915451,18.50092712,42.2010591
11.23914633,-6.556216278,-28.72721146,4.134402466,29.75449434
11.24922833,-5.427563324,-15.42676987,3.13118866,16.65076619
11.25931133,-3.350931702,-6.564748535,3.327879639,8.086992611
11.26939333,-0.997375946,-0.9854008484,2.494263153,2.861314783
11.27947533,1.047821045,0.3495231628,0.6982978821,1.30679582
11.28955833,3.620670776,-4.919669495,-4.600233765,7.64686573
11.29964033,6.001769257,-11.85489761,-11.65895508,17.67741681
11.30972233,7.260651398,-15.87463852,-14.64389786,22.78519149
11.31980433,8.11223053,-15.69935303,-11.58186539,21.12859616
11.32988733,7.547305298,-14.08960052,-0.3200344849,15.98690346
11.33996933,2.774630127,-12.98414932,17.5165741,21.97992434
11.35005133,2.488275604,-9.548643494,11.54204819,15.18509086
11.36013433,2.910397797,-4.672683105,0.8096662903,5.564165907
11.37021633,-1.179547119,-2.325114899,-6.418802032,6.928095715
11.38029833,-2.049088898,-4.045187988,-7.280410309,8.577102392
11.39038133,1.056802368,-7.780520325,-7.838000793,11.0944844
11.40046333,3.128045197,-10.59092606,-7.027735748,13.08974603
11.41054533,3.037782898,-11.32859207,-5.97093338,13.16119936
11.42062833,2.424957275,-11.30718658,-4.265080719,12.32573729
11.43071033,1.339115295,-11.18444183,-2.546803894,11.54864403
11.44079233,0.719254303,-11.8789975,-0.9782157898,11.94088834
11.45087433,-0.369282074,-12.50110382,0.6737489319,12.52469176
11.46095733,-1.568887482,-12.52011429,1.830543365,12.75011995
11.47103933,-1.676813049,-11.8604361,1.530118103,12.07571562
11.48112133,-0.6409671021,-10.62206131,0.7111711121,10.66512024
11.49120433,0.3592529297,-9.437724152,0.5725593567,9.461898543
11.50128633,1.169218597,-8.269104309,0.3758683777,8.359810718
11.51136833,1.541494446,-7.318281555,-0.2996768188,7.484868485
11.52145133,1.366059265,-6.912176056,-1.006656647,7.117419009
11.53153333,1.206790466,-7.093898163,-1.382075958,7.327337056
11.54161533,0.4388873291,-7.671247559,-1.155447235,7.770181433
11.55169733,-0.5411247253,-8.192463684,-0.5496569824,8.228693698
11.56178033,-1.044228516,-8.532107391,-0.02844085693,8.595817507
11.57186233,-1.090182953,-8.454718323,0.5376818848,8.541654559
11.58194433,-1.157991943,-8.30293396,0.8472381592,8.425999655
11.59202733,-1.189127197,-8.221353607,0.4902305603,8.32135834
11.60210933,-0.8216413879,-8.221353607,-0.1100212097,8.263041472
11.61219133,-0.2956352234,-8.324638824,-0.7906558228,8.367326238
11.62227433,0.2788700867,-8.349187775,-1.307530975,8.455550974
11.63235633,0.7590715027,-8.32404007,-1.639540558,8.51785923
11.64243833,1.05186264,-8.345146179,-1.377285919,8.523191672
11.65252033,1.013542328,-8.660540314,-0.425565033,8.730024752
11.66260333,0.4472698975,-9.466614075,1.080453186,9.538564435
11.67268533,-0.2498304749,-10.44183609,2.731669464,10.79612774
11.68276733,-1.086590424,-11.12471603,3.558999023,11.73057798
11.69285033,-1.749861145,-11.33188522,3.556304626,12.00503808
11.70293233,-2.209405518,-11.41002274,2.771486664,11.94785461
11.71301433,-3.147804108,-11.8444194,0.8515791321,12.28511818
11.72309733,-4.286336517,-12.45065872,-0.8711883545,13.1966114
11.73317933,-5.388793945,-12.63447647,-0.6671626282,13.75187994
11.74326133,-6.178701324,-12.58777359,1.126257935,14.06758156
11.75334333,-6.190826111,-12.44407242,3.62261673,14.36330805
11.76342633,-5.187761993,-12.08032883,5.372178497,14.2023773
11.77350833,-3.976780243,-12.2174437,5.147346039,13.84109399
11.78359033,-4.238885193,-12.54301666,3.299887848,13.64495051
11.79367333,-5.102140045,-11.57752441,1.434766388,12.73300668
11.80375533,-5.284610596,-10.71007828,1.519340515,12.03915618
11.81383733,-4.705315247,-11.92330536,3.71736969,13.34631184
11.82392033,-2.823728027,-14.60048813,4.816683655,15.63163891
11.83400233,-1.052611084,-17.88061707,1.359323273,17.96307926
11.84408433,1.106648712,-20.47936295,-4.873265991,21.08026801
11.85416633,4.944218445,-21.09383514,-8.353678436,23.22023085
11.86424933,8.01747757,-20.39254349,-7.57050705,23.18293237
11.87433133,9.375154266,-18.7136348,-3.372636566,21.20066797
11.88441333,8.111781464,-16.3699585,2.971021729,18.50955185
11.89449633,6.446494446,-14.44002182,6.837331696,17.22848297
11.90457833,6.202052765,-13.0812973,5.606890411,15.52491603
11.91466033,5.388793945,-11.78259796,0.9258247375,12.98945212
11.92474333,3.895349579,-10.67085983,-0.6128256226,11.37613964
11.93482533,1.911824341,-9.592502289,-0.546663208,9.796428591
11.94490733,-0.8779243469,-8.450976105,-1.154399414,8.574519595
11.95498933,-2.709066467,-7.507787476,-1.582808533,8.137026284
11.96507233,-2.431693268,-7.135511627,-1.745071106,7.737824726
11.97515433,-1.169517975,-7.45464798,-1.672771454,7.729017605
11.98523633,0.1794767761,-7.584128723,-1.807341614,7.798570645
11.99531933,0.9201365662,-7.470365295,-1.578018494,7.690458459
12.00540133,1.038540344,-7.417525177,-1.354682922,7.611400109
12.01548333,0.9038204956,-7.304659882,-1.622026978,7.536970147
12.02556633,0.8485853577,-6.856342163,-1.484463043,7.066339611
12.03564833,0.6881190491,-6.068829803,-1.251846771,6.234687109
12.04573033,0.9523196411,-4.707710266,-1.227297821,4.957389292
12.05581333,1.093925171,-3.332969055,-1.465302887,3.801640114
12.06589533,1.414708099,-1.815574493,-1.925146637,3.000649817
12.07597733,1.499132538,-1.002465363,-2.547851715,3.121519427
12.08605921,2.198478241,-0.7164102173,-2.61625946,3.491613343
12.09614221,2.611768799,-0.886456604,-2.10851532,3.471739971
12.10622421,3.244203644,-1.171912994,-1.355431366,3.706134312
12.11630621,3.729644165,-1.421893158,-0.5170248413,4.024840424
12.12638921,4.183949432,-1.55032608,0.3122506714,4.47285639
12.13647121,4.267475739,-2.209704895,1.105600891,4.931176151
12.14655321,3.735332336,-3.85538269,2.124382324,5.773186608
12.15663621,3.423830109,-6.256240082,3.675307159,8.023156193
12.16671821,2.493514709,-9.720635834,6.46939682,11.93991088
12.17680021,0.240100708,-14.48373093,9.928104401,17.561417
12.18688221,-1.691183167,-20.13178574,14.39691147,24.80765925
12.19696521,-5.348527679,-29.46772156,31.77038315,43.66131706
12.20704721,-8.968150635,-36.15491547,26.21603348,45.55091711
12.21712921,-8.017028503,-30.17290512,9.016200714,32.49567394
12.22721221,-5.6667659,-16.80989365,3.666176147,18.11423771
12.23729421,-3.79580658,-8.012238464,2.537074127,9.221760023
12.24737621,-2.767445068,-1.939666443,1.04138443,3.536317244
12.25745821,-1.250499573,0.9315129089,-1.314416656,2.039401046
12.26754121,1.691033478,-2.347568207,-5.207520905,5.95725983
12.27762321,4.966372375,-8.94524826,-10.68687653,14.79498736
12.28770521,8.420738983,-15.33845352,-14.47968933,22.71207618
12.29778821,9.897418213,-17.68916519,-13.89380768,24.57444494
12.30787021,9.130113831,-15.68004318,-7.877967682,19.78092787
12.31795221,4.387526093,-14.31652863,15.68737793,21.68656735
12.32803521,-0.116308136,-13.05180862,27.35905655,30.31305348
12.33811721,3.543431396,-8.87504425,6.81457901,11.73715483
12.34819921,1.743873596,-4.231999512,-10.00624191,11.00344456
12.35828221,-1.768272858,-2.769391022,-11.08519821,11.56191744
12.36836421,0.3391946411,-4.418960724,-8.055199127,9.193938213
12.37844621,3.951482849,-7.322173462,-8.045918427,11.57433559
12.38852821,4.968318329,-9.089997253,-7.669002228,12.88898104
12.39861121,3.900289307,-9.810149689,-6.461762695,12.37762783
12.40869321,1.963466949,-10.58284286,-3.479664001,11.31193295
12.41877521,-0.639919281,-11.96042816,-0.5623805237,11.99073018
12.42885821,-2.94392807,-13.40552307,1.060245209,13.76585926
12.43894021,-4.440066833,-14.002332,1.706601105,14.78823797
12.44902221,-4.846771088,-13.02411621,1.551074524,13.98301202
12.45910521,-3.301235046,-11.03235809,1.271306305,11.58565051
12.46918721,-1.293609924,-9.17112854,0.8904981995,9.304623172
12.47926921,0.3173400879,-7.712262268,-0.263152771,7.723272843
12.48935121,1.492396545,-6.445296936,-1.886377258,6.879499924
12.49943421,2.416574707,-5.921985168,-2.973865814,7.053624567
12.50951621,2.77433075,-6.414161682,-2.888393555,7.561825079
12.51959821,1.990111542,-7.548353119,-1.587897949,7.966153316
12.52968121,0.9273216248,-8.517288208,-0.2880010986,8.572459883
12.53976321,0.1842668152,-8.922345886,0.5807922363,8.943127529
12.54984521,-0.3369493103,-8.936266937,1.40991806,9.053080721
12.55992821,-0.9821076965,-8.864416351,1.533261566,9.049491909
12.57001021,-1.255738678,-8.432115326,0.9490264893,8.577767762
12.58009221,-0.9536668396,-8.089178467,0.6170169067,8.168537113
12.59017521,-0.1817221069,-7.855514374,-0.05628295898,7.857817558
12.60025721,0.4537065125,-8.036787415,-1.31396759,8.15612116
12.61033921,0.6812333679,-8.383915558,-2.188898163,8.691685346
12.62042121,0.6321354675,-8.782237244,-2.032623138,9.036528265
12.63050421,0.1466949463,-9.292526093,-1.123413849,9.361336404
12.64058621,-0.425565033,-10.21086639,0.230969696,10.22234049
12.65066821,-0.9008267212,-11.1941716,1.705253906,11.359087
12.66075121,-1.352886658,-11.48037643,2.89363266,11.91647831
12.67083321,-1.801653442,-11.07157654,3.480412445,11.74474491
12.68091521,-2.290536804,-10.93895233,2.837798767,11.53084294
12.69099821,-2.794688416,-11.83079773,1.357377319,12.23194716
12.70108021,-3.386707306,-12.48613495,0.1408570862,12.93805214
12.71116221,-4.148024139,-12.46607666,-0.07604187012,13.13830103
12.72124421,-4.604724426,-12.42925323,0.6893165588,13.27271564
12.73132721,-4.368665314,-12.63342865,2.738854523,13.64514859
12.74140921,-3.423530731,-12.59914993,4.856351166,13.92994215
12.75149121,-2.272873535,-12.43958176,5.434898071,13.76398436
12.76157421,-2.318229218,-12.78356644,4.468208313,13.73894621
12.77165621,-3.328478394,-11.81358353,2.733166351,12.57416886
12.78173821,-4.217629395,-10.10683273,1.834884338,11.10420038
12.79182021,-4.877307587,-10.3607048,2.632425842,11.74997869
12.80190321,-3.724554749,-11.74727142,3.339106293,12.76794129
12.81198521,-1.453926544,-13.64756973,2.101779327,13.88479522
12.82206721,-0.3180885315,-16.58925247,-2.258952484,16.74536784
12.83215021,2.085014191,-19.60083984,-7.570656738,21.11528002
12.84223221,5.542374573,-20.81032471,-8.840765533,23.27974797
12.85231421,8.644224243,-20.96495316,-5.505401459,23.33583765
12.86239721,9.251212006,-19.32646042,0.2318678284,21.4278034
12.87247921,7.280110931,-16.46171768,5.45495636,18.80810233
12.88256121,6.051316223,-14.56456284,5.842500458,16.81902881
12.89264421,5.531596985,-13.13787964,2.45130249,14.46413947
12.90272621,4.017794952,-11.81627792,-0.1368154907,12.48141894
12.91280821,2.336042175,-11.30524063,0.2552192688,11.54689117
12.92289021,-0.6818321228,-10.54227722,-0.6921606445,10.58695378
12.93297321,-3.489543457,-9.40868454,-1.61124939,10.16348281
12.94305521,-3.708088989,-8.79436203,-1.55855896,9.670565314
12.95313721,-2.301015015,-8.568631439,-1.66858017,9.027750252
12.96322021,-0.007484436035,-8.446635132,-2.0968396,8.70301312
12.97330221,1.665137329,-8.096812592,-2.169738007,8.546275182
12.98338421,2.334694977,-7.656278687,-2.03831131,8.259789159
12.99346721,2.44785965,-7.346423035,-1.664688263,7.920425196
13.00354921,2.110311584,-6.587052155,-1.630858612,7.106502015
13.01363121,1.728605347,-5.967041473,-1.316212921,6.350281635
13.02371321,1.495839386,-4.693340149,-1.219813385,5.074733679
13.03379621,1.109043732,-3.208727417,-1.510508881,3.715850739
13.04387821,1.172661438,-1.85688858,-1.87335434,2.886628921
13.05396021,1.25319397,-0.5547463989,-2.41627533,2.777881416
13.06404321,1.443747711,0.1636097717,-2.708916779,3.073988569
13.07412521,1.890119476,0.2432441711,-2.283501434,2.97423909
13.08420738,2.40564743,-0.01332229614,-1.529070282,2.850503985
13.09429038,3.14750473,-0.3888912964,-0.7120692444,3.250394603
13.10437238,3.860921173,-0.784069519,0.005987548828,3.939735164
13.11445437,4.057312775,-1.819316711,0.3594026184,4.461039172
13.12453737,3.511098633,-3.798201599,1.026714935,5.273356858
13.13461937,2.867586823,-6.406677246,2.354603577,7.403561678
13.14470137,1.546434174,-10.04605911,5.3602034,11.49115063
13.15478338,-0.8337661743,-14.81364487,9.452543335,17.59232264
13.16486638,-2.340083771,-20.40062668,14.03451508,24.87225712
13.17494838,-5.770200806,-28.5833606,30.77779724,42.3978363
13.18503037,-11.01319794,-34.14190155,25.90977036,44.25241429
13.19511337,-11.22291183,-28.73230087,8.869805145,32.0962974
13.20519537,-8.059839478,-16.80405579,2.978057098,18.87342384
13.21527737,-5.805677032,-7.983198853,2.901416473,10.28861348
13.22536037,-4.037254486,-2.368674316,2.35654953,5.240550304
13.23544238,-2.483485565,0.6867718506,-0.470022583,2.619213118
13.24552438,0.8523275757,-0.8967851257,-5.371729431,5.512364551
13.25560637,5.719156952,-6.14292572,-9.890233154,12.97154596
13.26568937,10.1577269,-12.38314911,-10.70259384,19.26310755
13.27577137,12.11191315,-16.14183289,-8.447533264,21.8773405
13.28585338,12.77039383,-16.72621765,-5.161416779,21.66770728
13.29593638,10.54227722,-16.49839142,13.11348038,23.56480206
13.30601838,0.6948550415,-15.12784149,25.48495377,29.64485251
13.31610037,-1.069974976,-11.49354904,2.88075943,11.89728082
13.32618338,-3.356470184,-6.880442047,-6.469247131,10.02285056
13.33626537,-4.666545868,-4.466112671,-6.160139923,8.925812938
13.34634737,-3.446433105,-3.930227051,-5.753884735,7.77378771
13.35643037,0.1399589539,-6.329587555,-7.124883728,9.531381603
13.36651238,3.111878815,-9.426347809,-8.058492279,12.78589538
13.37659438,3.596720581,-10.35097504,-8.17539917,13.67173123
13.38667637,3.098706207,-10.41204803,-7.564519501,13.23762364
13.39675937,2.434687042,-10.76216995,-4.692142639,11.99033801
13.40684137,1.56903717,-11.68350403,-0.9638456726,11.8277277
13.41692337,0.3697311401,-12.68806503,2.073937225,12.86176158
13.42700637,-0.5950126648,-13.00136353,3.810027008,13.56118724
13.43708838,-0.7899073792,-12.33629654,3.848047943,12.94664586
13.44717038,-0.3029699707,-11.21692429,2.76026001,11.55552753
13.45725338,0.4317022705,-10.00459534,1.292262726,10.096942
13.46733537,0.9457333374,-9.008716278,0.2393522644,9.06138345
13.47741737,1.222358093,-8.168962555,-0.8077203369,8.299308446
13.48749937,1.377285919,-7.322173462,-1.586700439,7.617660992
13.49758237,0.9621990967,-6.988367615,-1.620230713,7.237973237
13.50766438,0.6583309937,-7.232360229,-1.231040039,7.365860015
13.51774638,0.416434021,-7.722441101,-0.7481442261,7.769764066
13.52782938,0.03023712158,-8.062683563,-0.3511697388,8.070384174
13.53791137,-0.3957769775,-8.101153564,-0.4270619202,8.122050872
13.54799337,-1.072070618,-8.175548859,-0.3737727356,8.254007548
13.55807637,-1.399589539,-8.020471344,0.006137237549,8.141673607
13.56815838,-1.29765152,-7.821385345,0.3089575195,7.934319312
13.57824038,-0.9241781616,-7.807913361,0.07619155884,7.862787131
13.58832237,-0.286204834,-7.885003052,-0.3671864319,7.898734849
13.59840537,0.3183879089,-7.928412781,-0.6234535217,7.959258406
13.60848737,0.3617976379,-7.959398346,-0.6400689697,7.993285172
13.61856937,-0.1402583313,-8.233478394,-0.3251239014,8.241088788
13.62865237,-0.3860472107,-8.85872818,0.1728904724,8.868821147
13.63873438,-0.3191363525,-9.794881439,0.8244854736,9.834700134
13.64881638,-0.08307723999,-10.72265213,1.529070282,10.83144619
13.65889938,0.3200344849,-11.09432922,2.228116608,11.32038279
13.66898137,0.4029620361,-11.07531876,2.293530579,11.31747969
13.67906337,0.1637594604,-11.50118317,1.658551025,11.621309
13.68914637,-0.4360432434,-12.07494003,0.6560856628,12.10060986
13.69922837,-1.887874146,-12.55529114,-0.1546284485,12.69737431
13.70931038,-3.175945587,-13.04597076,0.1930984497,13.42837557
13.71939238,-4.036506042,-13.47527802,1.725312195,14.17226872
13.72947538,-4.433630219,-13.50805984,3.578458557,14.66049533
13.73955737,-4.014501801,-13.33786377,4.638554077,14.68097471
13.74963937,-3.709735565,-13.72031845,4.388573914,14.87510865
13.75972237,-4.211791534,-13.74576553,3.625311127,14.8266024
13.76980437,-4.720433807,-12.32267487,2.647993469,13.45892568
13.77988638,-4.457131348,-11.04104004,2.547103271,12.17613732
13.78996938,-3.924987946,-11.77990356,4.091441803,13.07331459
13.80005138,-2.464475098,-13.32064957,4.281546478,14.20721586
13.81013337,-0.9755213928,-14.58252548,1.795516205,14.72499813
13.82021637,0.5800437927,-16.09992004,-2.589315491,16.31712079
13.83029837,2.778072968,-17.54396713,-7.120093689,19.13646274
13.84038038,5.745801544,-18.19361618,-7.795638885,20.61052864
13.85046238,8.161478119,-17.58887375,-5.128185883,20.05683164
13.86054538,8.192313995,-15.71462128,-0.07574249268,17.72199389
13.87062737,6.40742569,-13.29460373,5.502407684,15.75049468
13.88070937,5.433101807,-11.89920547,6.634054413,14.66698211
13.89079237,4.207001495,-11.03026245,3.137924652,12.2152414
13.90087437,2.392624512,-10.30202682,-0.1845661926,10.57782933
13.91095638,0.6911128235,-9.935139771,-0.7622149658,9.988273667
13.92103938,-1.943109283,-9.262738037,-0.5411247253,9.47981042
13.93112138,-3.69401825,-8.572972412,-1.305135956,9.425762922
13.94120337,-3.504662018,-8.210426331,-1.746268616,9.096329505
13.95128537,-2.269730072,-8.130642242,-1.425934753,8.561092675
13.96136837,-0.7677534485,-7.815098419,-0.9954299927,7.915559963
13.97145037,0.9845027161,-7.592810669,-0.6345304871,7.682619891
13.98153238,2.046394501,-7.533533936,-0.2622546387,7.810930899
13.99161538,2.471061401,-7.294481049,-0.3146456909,7.708086671
14.00169738,2.521356812,-6.912176056,-0.5706134033,7.37977084
14.01177937,2.50519043,-6.312523041,-0.7069798279,6.828158369
14.02186237,1.934277649,-5.436095581,-0.9187893677,5.84266541
14.03194437,1.363364868,-4.484524384,-0.9611512756,4.784718851
14.04202637,1.200353851,-3.560046844,-1.182091827,3.938543385
14.05210937,1.439406738,-2.422711945,-1.606758728,3.243932572
14.06219138,1.473984833,-1.62756546,-1.752705231,2.809550897
14.07227338,1.671573944,-1.307530975,-1.492695923,2.594597815
14.08235558,2.330952759,-1.082848206,-1.18298996,2.829375593
14.09243858,2.77433075,-1.575174408,-0.5514532471,3.237620454
14.10252058,3.099903717,-2.128124542,0.06152206421,3.760598634
14.11260258,3.1346315,-2.705623627,0.7688012695,4.211575625
14.12268558,2.99078064,-3.597918091,1.518442383,4.91888714
14.13276758,2.418670349,-5.112169189,2.696642303,6.265470437
14.14284958,1.990560608,-7.487579498,4.149221649,8.788755234
14.15293258,0.8863069153,-11.18309464,7.28609848,13.37663547
14.16301458,-1.651066589,-16.49015854,12.20067856,20.57930773
14.17309658,-5.852080536,-23.31162323,22.12758545,32.66969027
14.18317958,-11.60791122,-32.19340347,31.24228134,46.33831
14.19326158,-12.83296371,-34.2553656,17.02050568,40.34616021
14.20334358,-8.292006683,-24.20032516,6.553521881,26.40760803
14.21342558,-4.880750427,-12.2412442,4.822222137,14.03294733
14.22350858,-3.738775177,-5.629942474,3.485052795,7.603965089
14.23359058,-1.065035248,-1.55152359,0.5113366699,1.950125821
14.24367258,3.688180389,-1.676663361,-2.207309875,4.61368524
14.25375558,8.823551331,-7.386090546,-6.061495056,13.00581078
14.26383758,11.22725281,-13.63200211,-10.63613205,20.61577047
14.27391958,10.73462723,-15.63498688,-12.00832855,22.44738272
14.28400258,10.27134064,-14.48313217,-8.496331787,19.68372957
14.29408458,8.097411346,-13.25224182,8.720415802,17.81110989
14.30416658,0.9768685913,-10.91919342,13.95967072,17.74980179
14.31424958,-1.472188568,-8.016878815,4.085304565,9.117422799
14.32433158,-3.401676178,-5.075046387,-3.414399719,6.998972931
14.33441358,-2.886447601,-5.241799622,-6.264173584,8.663019896
14.34449558,0.1489402771,-7.495812378,-8.757239227,11.52816661
14.35457858,4.030817871,-10.24319916,-9.467512207,14.51910497
14.36466058,5.301824799,-11.34071686,-8.177195435,14.95285024
14.37474258,4.971910858,-10.85632416,-6.529871063,13.60951461
14.38482558,4.276906128,-10.14230896,-4.097579041,11.74514841
14.39490758,4.023183746,-10.384655,-0.8381071472,11.16823578
14.40498958,3.104993134,-10.88536377,2.200124817,11.53137789
14.41507258,1.161434784,-11.32050888,3.290756836,11.84617798
14.42515458,-0.1359173584,-11.54788605,2.269580383,11.76958541
14.43523658,-0.3878434753,-11.26242966,0.6087840271,11.28553775
14.44531858,-0.2101629639,-10.41728714,-0.3086581421,10.42397763
14.45540158,0.09340576172,-9.322463837,-0.3851490784,9.330884011
14.46548358,-0.2330653381,-8.193810883,-0.3857478333,8.206196294
14.47556558,-0.679586792,-7.415279846,-0.3484753418,7.454505246
14.48564858,-1.024768982,-7.194189606,-0.8737330627,7.319147834
14.49573058,-1.321601715,-7.526199188,-1.284628601,7.748585417
14.50581258,-1.521585846,-8.297694855,-0.7900570679,8.472966043
14.51589558,-1.596280518,-9.098679199,0.1121168518,9.238324786
14.52597758,-1.259331207,-9.42036026,0.5858816528,9.522203518
14.53605958,-1.073268127,-9.286239166,0.713865509,9.375273132
14.54614258,-1.252894592,-8.842262421,0.7273374939,8.960154541
14.55622458,-1.284478912,-8.245154114,0.8812174988,8.391006895
14.56630658,-1.416654053,-7.838000793,0.4381388855,7.977037723
14.57638858,-1.241218872,-7.787256317,-0.1184037781,7.886444363
14.58647158,-0.7890092468,-7.933053131,-0.7337741089,8.005891082
14.59655358,-0.2630030823,-8.133186951,-1.052162018,8.205177969
14.60663558,-0.1037342834,-8.476872253,-0.7316784668,8.509023292
14.61671858,-0.1442999268,-8.9102211,0.1363664246,8.912432795
14.62680058,-0.4120930481,-9.513766022,1.245559845,9.603800494
14.63688258,-0.9054670715,-10.27822632,1.983824615,10.50701513
14.64696558,-1.451082458,-10.86395828,1.890568542,11.12229649
14.65704758,-1.768422546,-11.01409607,1.346150665,11.2360915
14.66712958,-2.141746216,-11.23653351,0.5592370605,11.45248917
14.67721258,-2.868484955,-11.92375443,0.1014889526,12.2643559
14.68729458,-3.731590118,-12.53553223,0.4207749939,13.08592315
14.69737658,-4.415068817,-12.71396118,1.188079376,13.51107598
14.70745858,-4.784350891,-12.77443542,2.261347504,13.82714383
14.71754158,-4.359534302,-12.93594955,3.920048218,14.20250359
14.72762358,-2.962040405,-12.80033157,5.061574402,14.07983335
14.73770558,-2.155218201,-12.2943837,5.273234253,13.55004928
14.74778858,-3.007695465,-11.71209457,3.91510849,12.71013241
14.75787058,-4.061803436,-10.73253159,2.904410248,11.83727504
14.76795258,-4.288432159,-10.08707382,4.512216797,11.85326154
14.77803558,-4.693340149,-10.92024124,5.27937149,13.00580155
14.78811758,-4.433330841,-12.34916977,2.890489197,13.43545102
14.79819958,-3.655847626,-13.78378647,-0.552052002,14.27104596
14.80828158,-2.87836441,-15.8774826,-3.854933624,16.5903571
14.81836458,-1.126257935,-17.65578461,-7.270081787,19.12718683
14.82844658,1.331331482,-18.42503494,-8.431516571,20.30627558
14.83852858,4.014352112,-18.6353476,-5.604345703,19.86957205
14.84861158,5.28880188,-17.75068726,0.7195536804,18.53580537
14.85869358,5.217250671,-16.71304504,5.87034256,18.46636134
14.86877558,5.48070282,-16.22535919,5.471571808,17.97883429
14.87885858,6.181844788,-15.24085648,2.928510132,16.70554048
14.88894058,6.150709534,-14.05128021,0.4369413757,15.34472617
14.89902258,5.121898956,-12.63208145,0.5013075256,13.64018475
14.90910558,3.217259674,-11.13564331,1.031954041,11.63693434
14.91918758,0.5548960876,-9.931846619,-0.4510121155,9.957554863
14.92926958,-0.6007008362,-9.233548737,-1.130748596,9.32190196
14.93935158,-0.7658074951,-8.640332336,-0.757275238,8.707196437
14.94943458,0.4077520752,-7.998167725,-1.100212097,8.083774821
14.95951658,2.251617737,-7.739505615,-1.642085266,8.225945151
14.96959858,3.662882996,-7.564968567,-1.652713165,8.566033041
14.97968158,3.577410736,-6.940467224,-2.017504578,8.064631274
14.98976358,2.896027679,-6.321354675,-2.240091705,7.305101786
14.99984558,2.464924164,-5.821094971,-2.046244812,6.644404836
15.00992858,1.760189667,-4.971611481,-1.896855469,5.604752363
15.02001058,0.8708889771,-3.974385223,-1.739981689,4.42512393
15.03009258,0.9021739197,-2.787503357,-1.495090942,3.289284067
15.04017558,0.4863386536,-2.18216217,-1.956132202,2.970658213
15.05025758,0.8535250854,-1.617386627,-2.23140976,2.885070898
15.06033958,1.478924561,-0.9443861389,-2.521057434,3.071614172
15.07042158,1.881587219,-0.7135661316,-2.31912735,3.070488357
15.08050458,2.490371246,-0.9527687073,-1.484013977,3.051559378
15.09058658,2.991828461,-1.402134247,-0.5905220032,3.356446666
15.10066858,3.455564117,-1.979633331,0.1923500061,3.987087912
15.11075158,3.329376526,-2.959046631,0.7147636414,4.511273886
15.12083358,2.671195221,-4.529580688,1.486259308,5.464554131
15.13091558,2.015109558,-6.630312195,2.968027954,7.538626948
15.14099858,0.8620573425,-9.968819733,6.07272171,11.70463407
15.15108058,-1.04602478,-14.78610214,9.560019836,17.63850798
15.16116258,-3.223097534,-21.14996841,17.47451157,27.62368687
15.17124558,-7.722441101,-30.48051544,32.20178604,45.00725433
15.18132758,-11.39550293,-34.2089621,19.81654129,41.14372229
15.19140958,-11.04044128,-26.7571582,8.300089874,30.11193037
15.20149158,-7.411687317,-14.69569016,5.096751251,17.23001136
15.21157458,-4.407434692,-7.709268494,4.122427368,9.790439657
15.22165658,-2.302661591,-3.012335815,2.158062286,4.36275719
15.23173858,0.7631130981,-0.8949888611,-1.780247955,2.133689163
15.24182158,5.215454407,-3.629352722,-5.820196838,8.616719625
15.25190358,8.911717987,-9.175170135,-9.716594238,16.062835
15.26198558,10.43959076,-14.01475616,-11.18324432,20.74761189
15.27206858,10.1869162,-15.18262756,-9.427695007,20.57102026
15.28215058,9.552685089,-13.44010117,-4.125421143,16.99732954
15.29223258,6.984924774,-12.90436523,18.57098145,23.6684002
15.30231558,0.1212478638,-12.13361801,22.05079514,25.16896806
15.31239758,-0.5977070618,-9.583221588,3.097508698,10.08910055
15.32247958,-4.236490173,-5.448819122,-6.369704132,9.392050338
15.33256158,-4.638853455,-4.503834229,-8.280181274,10.50546934
15.34264458,-1.940115509,-5.941444702,-9.249715118,11.16342435
15.35272658,1.606159973,-8.615034943,-8.68793335,12.34012815
15.36280858,2.926863556,-10.5133873,-6.978937225,12.95389546
15.37289158,2.242037659,-10.91440338,-6.22959549,12.76553148
15.38297358,1.106199646,-10.93206665,-5.536536713,12.30394236
15.39305558,0.4182302856,-11.54294632,-3.178340607,11.97983202
15.40313858,0.1287322998,-12.17388428,0.06960525513,12.17476387
15.41322058,-0.6580316162,-12.47939896,2.603835297,12.76512288
15.42330258,-0.9656419373,-12.22777222,2.965183868,12.61915976
15.43338558,-0.4688250732,-11.27545258,1.778451691,11.42447015
15.44346758,0.8186476135,-10.14664993,0.6462062073,10.20011133
15.45354958,1.890119476,-9.174272003,0.4701722717,9.378746206
15.46363158,2.217488708,-8.431815948,0.4399351501,8.72962309
15.47371458,2.53093689,-7.569010162,-0.3888912964,7.990418814
15.48379658,2.598446503,-7.095095673,-1.306333466,7.668038468
15.49387858,2.149979095,-7.170089722,-1.519789581,7.63821688
15.50396158,1.943408661,-7.726782074,-1.300196228,8.072825322
15.51404358,1.523831177,-8.321794739,-0.6102809143,8.4821443
15.52412558,0.8873547363,-8.625962219,0.2245330811,8.674389762
15.53420858,0.3067121887,-8.315507812,1.022972717,8.383806756
15.54429058,-0.6111790466,-8.036637726,1.366807709,8.174915845
15.55437258,-1.491648102,-7.783065033,1.483265533,8.062331673
15.56445558,-1.968256989,-7.608078918,1.288520508,7.963490786
15.57453758,-1.880090332,-7.780071259,0.8027806091,8.044172123
15.58461958,-1.494492188,-8.052205353,-0.2230361938,8.192756745
15.59470258,-1.020428009,-8.361312561,-1.11158844,8.496378636
15.60478458,-0.7268884277,-8.643326111,-1.182840271,8.754116983
15.61486658,-0.6456074524,-8.970246277,-0.4863386536,9.006589395
15.62494858,-0.5246589661,-9.65911377,0.8065228271,9.706916344
15.63503158,-0.7216493225,-10.21296204,1.763632507,10.38921416
15.64511358,-0.9900411987,-10.59212357,2.636317749,10.96008369
15.65519558,-1.31396759,-10.92952194,3.261717224,11.48127867
15.66527858,-1.759890289,-11.42005188,2.456242218,11.81304045
15.67536058,-2.092348938,-12.13047455,0.9966275024,12.34988272
15.68544258,-2.347119141,-12.86739212,0.1945953369,13.08115498
15.69552558,-3.094664612,-13.50267105,0.2504292297,13.85502758
15.70560758,-3.491639099,-13.62781082,1.154549103,14.11530216
15.71568958,-3.366649017,-13.46315323,3.152444458,14.23125878
15.72577158,-2.910098419,-13.21362213,4.022435303,14.11553996
15.73585458,-3.071013794,-13.50701202,3.08673111,14.19149071
15.74593658,-4.066593475,-13.27394669,1.795067139,13.9984681
15.75601858,-4.978048096,-11.6851506,1.254690857,12.76314838
15.76610158,-5.369633789,-10.80303497,1.994153137,12.22763994
15.77618358,-5.061873779,-12.17612961,3.654350739,13.68338327
15.78626558,-2.77433075,-14.47504898,4.46850769,15.40102318
15.79634858,0.3769161987,-16.84357361,3.800596619,17.27114855
15.80643058,3.712429962,-18.48715576,0.08592132568,18.8564166
15.81651258,6.596781921,-18.90778107,-5.386847992,20.73740215
15.82659558,8.657247162,-18.39060654,-8.880133667,22.18150381
15.83667758,9.588610382,-16.46501083,-7.388635254,20.43599671
15.84675958,7.497159576,-13.4993779,-1.044827271,15.47683008
15.85684158,4.00402359,-11.09178452,4.938230896,12.78460062
15.86692458,2.764600983,-10.68957092,6.22600296,12.67568767
15.87700658,2.336491241,-11.30808472,2.9568013,11.91950692
15.88708858,1.608405304,-11.82166672,0.03143463135,11.93062277
15.89717158,0.5108876038,-11.56614807,-1.010099487,11.62140647
15.90725358,-1.389261017,-10.41998154,-1.719025269,10.65181249
15.91733558,-2.297721863,-9.675280151,-2.151925049,10.17454437
15.92741858,-1.472487946,-9.655670929,-2.340233459,10.04374903
15.93750058,-0.0462538147,-9.305249634,-2.283052368,9.58134324
15.94758258,1.003363495,-8.552315369,-2.267335052,8.904473298
15.95766558,1.918410645,-7.908504181,-1.29765152,8.240669709
15.96774758,1.651665344,-7.454348602,-1.289568329,7.74327437
15.97782958,1.165775757,-7.030579834,-1.7796492,7.345422874
15.98791158,1.405577087,-6.56070694,-1.566193085,6.889955245
15.99799458,1.397493896,-5.700146484,-1.262923737,6.00330205
16.00807658,1.134191437,-4.642595673,-1.313518524,4.956351048
16.01815858,1.309776306,-3.439098358,-1.639839935,4.028893955
16.02824158,1.400487671,-2.541864166,-1.863474884,3.448909654
16.03832358,1.836081848,-1.679956512,-2.199376373,3.321250799
16.04840558,2.208058319,-0.7920030212,-2.070793762,3.129053712
16.05848858,2.252216492,-0.6318360901,-1.438957672,2.746323934
16.06857058,2.680475922,-0.5304968262,-1.005908203,2.91173992
16.07865258,3.190764771,-0.9617500305,-0.3939807129,3.355765746
16.08873521,3.800895996,-1.404678955,0.3534150696,4.067534333
16.09881721,3.879482574,-2.486030273,1.010548553,4.717196195
16.10889921,3.297642517,-4.369563446,1.600471802,5.703423609
16.11898221,2.531535645,-6.968608704,2.919229431,7.968191793
16.12906421,0.8619076538,-10.65035248,6.27869339,12.39334028
16.13914621,-1.303190002,-15.55175995,11.38098312,19.31533894
16.14922821,-3.028651886,-21.27630569,18.0446759,28.06179333
16.15931121,-7.224576416,-29.4379335,33.98487808,45.53853721
16.16939321,-11.34730316,-32.95427124,22.37352402,41.41642016
16.17947521,-11.5206427,-25.30891983,5.8737854,28.4212594
16.18955821,-8.711584167,-14.23809174,1.048868866,16.72468478
16.19964021,-6.306236115,-6.414910126,0.4343966675,9.006019449
16.20972221,-3.566932526,-1.855541382,-0.6277944946,4.069418557
16.21980521,0.910556488,-2.768193512,-3.62725708,4.652848844
16.22988721,6.280190277,-8.360564117,-7.798482971,13.04439186
16.23996921,9.984836426,-13.51539459,-11.30733627,20.2538565
16.25005221,11.33682495,-15.4448822,-11.45313309,22.32134054
16.26013421,10.54826477,-14.48897003,-8.286168823,19.7447901
16.27021621,8.249644775,-13.59188553,7.520361328,17.58840032
16.28029821,0.06227050781,-11.92061096,24.6297821,27.36294958
16.29038121,0.2601589966,-8.73942627,8.154891815,11.95606602
16.30046321,0.3056643677,-4.14907196,-4.526886292,6.148245956
16.31054521,-1.830543365,-2.27227478,-7.030579834,7.612041414
16.32062821,0.03592529297,-4.166435852,-7.385940857,8.480129756
16.33071021,3.425177307,-7.623197479,-8.105045471,11.6420248
16.34079221,4.478536835,-10.4656366,-7.135811005,13.43527596
16.35087521,3.677702179,-11.46450943,-6.968608704,13.91121767
16.36095721,2.378553772,-11.39071289,-6.078709259,13.1284639
16.37103921,1.535656586,-11.79621964,-3.200344849,12.31873557
16.38112221,0.495769043,-12.25950623,0.2079176331,12.27128802
16.39120421,-1.246308289,-12.71396118,2.921175385,13.1046312
16.40128621,-2.111658783,-12.67294647,3.162473602,13.23117207
16.41136821,-1.509011993,-11.93213699,1.531165924,12.12425171
16.42145121,-0.4093986511,-10.76576248,0.3674858093,10.77980959
16.43153321,0.453407135,-9.576784973,0.2303709412,9.590279413
16.44161521,1.035696259,-8.518785095,0.2755769348,8.585936692
16.45169821,1.311123505,-7.621999969,-0.5866300964,7.75616292
16.46178021,1.306183777,-7.277566223,-1.21577179,7.493142681
16.47186221,1.04722229,-7.803871765,-0.9865983582,7.935393208
16.48194521,0.7062313843,-8.375083923,-0.5774990845,8.424624543
16.49202721,0.3932322693,-8.659941559,-0.4420307922,8.68012734
16.50210921,0.08681945801,-8.509055328,-0.2131567383,8.512167526
16.51219221,-0.325872345,-8.231831818,-0.1899549866,8.240469086
16.52227421,-0.6818321228,-7.911198578,0.09265731812,7.941066891
16.53235621,-0.7605683899,-7.691904602,0.512384491,7.746379706
16.54243921,-0.5529501343,-7.697592773,0.4351451111,7.72968561
16.55252121,-0.1601669312,-7.969128113,0.06900650024,7.971036207
16.56260321,0.1836680603,-8.197253723,-0.5183720398,8.215680868
16.57268521,0.5056484985,-8.371341705,-0.9219328308,8.43712051
16.58276821,0.5569917297,-8.441994781,-0.82373703,8.500356367
16.59285021,0.1386117554,-8.599916382,-0.3471281433,8.608035371
16.60293221,-0.3228785706,-9.184750214,0.5117857361,9.204662498
16.61301521,-0.4080514526,-9.919572144,1.514849854,10.0428675
16.62309721,-0.2573149109,-10.38001465,2.199376373,10.61358429
16.63317921,-0.05328918457,-10.84569626,2.578537903,11.148131
16.64326221,-0.4710704041,-11.35134476,2.024090881,11.54001209
16.65334421,-1.346000977,-11.81253571,0.7804769897,11.91456515
16.66342621,-2.753074951,-12.18121902,-0.04565505981,12.48853887
16.67350921,-4.301455078,-12.39766891,-0.1017883301,13.123074
16.68359121,-5.332510986,-12.59316238,0.6144721985,13.68944807
16.69367321,-5.893095245,-12.93385391,1.900447998,14.33962521
16.70375621,-5.523214417,-13.16796707,3.427572327,14.68500958
16.71383821,-4.592449951,-13.24625427,4.551734619,14.74015389
16.72392021,-4.223467255,-12.95076874,4.73884552,14.42278556
16.73400221,-4.149221649,-11.06903183,4.15730484,12.53086946
16.74408521,-4.338877258,-10.07135651,4.289180603,11.77519206
16.75416721,-3.366798706,-11.00092346,4.247118073,12.26350939
16.76424921,-0.9473799133,-12.53313721,3.581003265,13.06907194
16.77433221,1.301393738,-14.44645844,2.45489502,14.71123029
16.78441421,3.070564728,-16.87455917,-1.019829254,17.18194304
16.79449621,5.143454132,-19.06181076,-6.21896759,20.69983835
16.80457921,8.092471619,-19.93614258,-8.155041504,23.00961929
16.81466121,10.36399796,-19.28050598,-5.589376831,22.59184583
16.82474321,10.25622208,-16.91527451,-0.6345304871,19.79189814
16.83482621,7.591613159,-14.4867247,4.675826569,17.01061836
16.84490821,6.110742645,-13.151651,6.721173248,15.98378145
16.85499021,5.651048584,-12.35081635,4.421056366,14.28365338
16.86507321,3.837569733,-11.52588181,0.2983296204,12.15162102
16.87515521,1.779798889,-10.90736801,-1.013392639,11.09798746
16.88523721,-0.9961784363,-9.808652802,-1.271755371,9.940794887
16.89531921,-3.212319946,-8.873697052,-1.398541718,9.540304908
16.90540221,-3.513643341,-8.099656677,-1.860331421,9.022802271
16.91548421,-2.177372131,-7.848778381,-1.865420837,8.356079606
16.92556621,-0.297431488,-7.794141998,-1.190175018,7.890097056
16.93564921,0.8421487427,-7.405849457,-0.8220904541,7.498776793
16.94573121,1.632505188,-7.058122559,-0.5065466309,7.262145463
16.95581321,2.357597351,-6.90588913,-0.3483256531,7.305539042
16.96589621,1.986069946,-6.562054138,-0.3478765869,6.864841328
16.97597821,1.507365417,-6.037095795,-0.05658233643,6.222690551
16.98606021,0.8997789001,-5.179678802,-0.3972738647,5.272238717
16.99614321,0.2267784119,-4.175866241,-0.8976832581,4.277279807
17.00622521,0.0889151001,-2.917433167,-1.363813934,3.221693751
17.01630721,0.6348298645,-1.848805389,-1.688937836,2.583331442
17.02639021,1.437610474,-0.8478369141,-1.969903564,2.581873614
17.03647221,1.931732941,-0.4131408691,-1.850152588,2.706536926
17.04655421,2.59994339,-0.5216651917,-1.381327515,2.989967543
17.05663621,3.129841461,-0.9979747009,-0.7604187012,3.371957544
17.06671921,3.397185516,-1.705553284,-0.08861572266,3.802319579
17.07680121,3.408861237,-2.484683075,1.044378204,4.345654237
17.08688333,3.155438232,-3.523223419,2.274071045,5.24797988
17.09696633,2.719844055,-5.139113159,3.209924927,6.641660469
17.10704833,2.077679443,-7.575297089,4.15850235,8.887914246
17.11713033,0.4297563171,-11.44085861,7.408693542,13.63695994
17.12721333,-1.966460724,-17.12932938,13.39878708,21.83594257
17.13729533,-5.194497986,-24.79473907,24.36468338,35.14825303
17.14737733,-10.07360184,-33.84162598,30.25583267,46.49890873
17.15746033,-11.4582225,-34.1306749,14.91663071,38.97049786
17.16754233,-9.12906601,-22.32143234,6.033203888,24.85931892
17.17762433,-6.59693161,-11.26332779,3.89519989,13.62184429
17.18770733,-4.371210022,-4.841531982,1.950593719,6.808283547
17.19778933,-1.341360626,-0.5607339478,-2.016606445,2.486035487
17.20787133,2.281106415,-0.09639953613,-5.666915588,6.109555764
17.21795333,5.77439209,-4.084107056,-8.128845978,10.77504856
17.22803633,9.818981323,-10.46997757,-10.29020142,17.66128732
17.23811833,12.31204697,-15.47092804,-10.09770172,22.20134444
17.24820033,12.23346039,-16.36292313,-8.155340881,21.9980088
17.25828333,10.28601013,-14.88235199,2.763253784,18.30087366
17.26836533,1.698817291,-13.48306183,24.06785065,27.63947125
17.27844733,-1.594484253,-11.82690582,13.8391713,18.27404563
17.28853033,0.5881269836,-8.007448425,-1.148112488,8.110689608
17.29861233,-0.7746391296,-3.987108765,-6.995402985,8.089052169
17.30869433,0.227227478,-3.931125183,-6.969506836,8.004961153
17.31877733,3.293151855,-6.277046814,-7.495063934,10.31611115
17.32885933,5.02789444,-8.679251404,-7.713010712,12.6530495
17.33894133,4.721631317,-9.502389679,-7.917485504,13.23917628
17.34902433,3.163521423,-9.73276062,-6.702462158,12.23345806
17.35910633,1.647324371,-10.58853104,-3.642375641,11.31801959
17.36918833,-0.0853225708,-11.85789139,0.07499404907,11.85843549
17.37927033,-2.090253296,-13.35462891,1.965113525,13.65931709
17.38935333,-3.497776337,-14.04858582,1.84985321,14.5951759
17.39943533,-3.477718048,-13.11542633,1.150956573,13.6174018
17.40951733,-2.008223877,-11.15330658,0.9999206543,11.37668898
17.41960033,-0.5638774109,-9.178313599,0.2778222656,9.199814317
17.42968233,0.4423301697,-7.89802597,-0.1663041687,7.912150611
17.43976433,1.271306305,-7.237898712,-0.06676116943,7.349003643
17.44984733,2.252964935,-6.982230377,-0.798589325,7.380049929
17.45992933,2.545606384,-7.461084595,-1.495689697,8.024025353
17.47001133,2.02304306,-8.461903381,-0.993633728,8.75692983
17.48009433,1.373094635,-9.270222473,-0.07035369873,9.371625431
17.49017633,0.7328759766,-9.427994385,0.4840933228,9.468818916
17.50025833,0.06541397095,-8.968450012,0.9222322083,9.015979528
17.51034133,-0.9500743103,-8.466094666,0.83661026,8.560217101
17.52042333,-1.427281952,-8.09112442,0.6113287354,8.238759068
17.53050533,-1.378633118,-7.877817993,0.2350112915,8.000992183
17.54058833,-1.05425766,-7.897127838,-0.6081852722,7.990367741
17.55067033,-0.5971083069,-8.041577454,-1.509610748,8.203805878
17.56075233,-0.4384382629,-8.309669952,-2.081271973,8.577560017
17.57083433,-0.4884342957,-8.702004089,-1.888622589,8.917978387
17.58091733,-0.8476872253,-9.379345551,-0.7917036438,9.450793154
17.59099933,-1.142124939,-10.11880783,0.6230044556,10.20210056
17.60108133,-1.103804626,-10.83431992,1.860331421,11.04815395
17.61116433,-0.9648934937,-11.27575195,2.341430969,11.55663881
17.62124633,-1.034049683,-11.30509094,2.079775085,11.54122196
17.63132833,-1.387464752,-11.16333572,1.194216614,11.31243901
17.64141133,-2.168540497,-11.6957785,0.3796105957,11.9011725
17.65149333,-3.464844818,-12.323573,0.2300715637,12.80345789
17.66157533,-4.628225555,-12.26863724,0.3695814514,13.11779409
17.67165833,-5.509742432,-12.37805969,1.238374786,13.60541052
17.68174033,-5.512137451,-12.70887177,3.145858154,14.20547445
17.69182233,-4.519102478,-12.48957779,4.591102753,14.05311585
17.70190533,-3.262615356,-12.3115979,4.978796539,13.67510573
17.71198733,-2.863545227,-12.29109055,4.533921661,13.40996807
17.72206933,-2.858755188,-11.04852448,3.724854126,12.00487037
17.73215133,-3.334316254,-10.75588303,4.058210907,11.96978531
17.74223433,-2.97790741,-11.71868088,4.688101044,12.9681805
17.75231633,-1.549278259,-12.82413208,4.066144409,13.54223604
17.76239833,-0.2796185303,-14.70527023,2.050735474,14.85020792
17.77248133,0.5909710693,-17.19414459,-3.8565802,17.63125253
17.78256333,2.589614868,-19.30610275,-8.66218689,21.31818919
17.79264533,5.736071777,-19.72627899,-8.635542297,22.28455055
17.80272833,8.287815399,-19.10671738,-5.445226593,21.5268443
17.81281033,8.458759918,-17.43244904,0.06227050781,19.3763974
17.82289233,6.28572876,-15.09311371,5.229225769,17.16558387
17.83297533,5.608536987,-13.71717499,6.503974915,16.1838891
17.84305733,4.852159882,-12.7190506,3.438349915,14.04065361
17.85313933,3.496578827,-11.45537842,0.07379653931,11.97736215
17.86322233,1.528022461,-10.52566177,-1.151705017,10.6981696
17.87330433,-1.031205597,-9.336235199,-1.380878448,9.493971664
17.88338633,-2.851719818,-8.287366333,-1.169967041,8.842034242
17.89346833,-2.792892151,-7.794441376,-1.398092651,8.396917648
17.90355133,-1.569486237,-7.697742462,-1.280287628,7.959752664
17.91363333,-0.06331832886,-7.523055725,-1.336570587,7.641125414
17.92371533,1.473236389,-7.03926178,-1.346000977,7.316648857
17.93379833,2.587519226,-6.879693604,-0.9716294861,7.414142141
17.94388033,2.442321167,-6.560407562,-1.111139374,7.087913006
17.95396233,2.330952759,-6.292015686,-1.297801208,6.834258565
17.96404533,1.994003448,-5.867648163,-1.20753891,6.313754425
17.97412733,1.317260742,-4.94361969,-1.538350983,5.34238479
17.98420933,0.9681866455,-4.043990479,-1.547931061,4.437041237
17.99429233,1.089434509,-3.132984924,-1.707798615,3.730822723
18.00437433,1.57023468,-2.025288391,-2.166893921,3.356018367
18.01445633,1.958227844,-1.451830902,-2.552192688,3.529328091
18.02453933,2.401605835,-1.174607391,-2.309397583,3.532807709
18.03462133,2.831362152,-1.140628052,-1.662143555,3.475681974
18.04470333,3.136278076,-1.640588379,-0.9931846619,3.676164601
18.05478533,3.379971313,-2.149080963,-0.06706054688,4.005902168
18.06486833,3.532953186,-2.701282654,1.023571472,4.563593403
18.07495033,3.502266998,-3.806584167,1.959575043,5.531355304
18.08503233,3.23881485,-5.54387146,2.948718109,7.065364172
18.09511588,2.59994339,-8.326435089,4.822072449,9.967026117
18.10519788,0.8012837219,-12.63387772,9.091643829,15.58572774
18.11527987,-2.030677185,-18.46485214,14.23764267,23.4048047
18.12536287,-6.092181244,-26.30015854,26.98393661,38.16996
18.13544487,-10.86949677,-35.08194672,29.63881577,47.19479151
18.14552687,-10.77594131,-33.08165634,11.87690186,36.76380959
18.15560987,-7.920928345,-20.40541672,4.723128204,22.39263444
18.16569188,-5.087171173,-10.23406815,3.883673859,12.07055856
18.17577388,-2.714754639,-4.945415955,2.59171051,6.208381035
18.18585688,-0.0715512085,-1.385668488,-0.1287322998,1.393473623
18.19593887,3.375780029,-1.273252258,-2.433489532,4.351888489
18.20602087,6.446344757,-4.74124054,-4.947511597,9.408113179
18.21610387,8.150101776,-9.615254974,-7.313940582,14.57295488
18.22618587,8.059689789,-13.77330826,-8.980874176,18.31170994
18.23626788,7.413782959,-14.58237579,-9.672585754,19.00444097
18.24634988,5.743107147,-13.05255707,-4.908891907,15.08143712
18.25643288,0.7222480774,-12.18481155,10.36444702,16.0129022
18.26651487,-3.562441864,-11.27500351,14.85316269,18.98507672
18.27659687,-0.9505233765,-8.85408783,7.677833862,11.75786965
18.28667987,0.5932164001,-5.048252106,-0.4176315308,5.100114814
18.29676188,0.06526428223,-4.502936096,-6.884483643,8.226591514
18.30684388,1.93772049,-6.77715683,-8.696315918,11.19421842
18.31692688,4.906347198,-9.108858032,-8.639434204,13.47899703
18.32700887,5.631738739,-10.04201752,-7.431895294,13.70370989
18.33709087,4.571044464,-10.03737717,-6.685547333,12.89728386
18.34717387,3.370840302,-10.18212616,-4.06958725,11.47169551
18.35725587,2.087259521,-10.78746735,-0.7012916565,11.00990073
18.36733788,0.2908451843,-11.70715485,0.8171507263,11.73924192
18.37742088,-1.65914978,-12.52101242,0.7020401001,12.64995614
18.38750288,-2.230062561,-12.37776031,0.3565585327,12.58210091
18.39758487,-1.277443542,-10.97023727,-0.03158432007,11.04440879
18.40766687,-0.290994873,-9.281000061,-0.5016069031,9.299099399
18.41774987,0.3704795837,-8.144563293,-0.69620224,8.182656288
18.42783187,0.8580157471,-7.463180237,-0.8894503784,7.564811448
18.43791388,1.424288177,-7.091802521,-1.972148895,7.497441635
18.44799688,2.252216492,-7.682025146,-2.30505661,8.330622753
18.45807888,1.989063721,-8.770112457,-1.148561554,9.065894365
18.46816087,1.214723969,-9.472751312,0.1535806274,9.551552688
18.47824387,0.4637356567,-9.81583786,1.018332367,9.879409115
18.48832587,-0.3875440979,-9.620943146,1.63579834,9.766707411
18.49840787,-1.014141083,-8.863218842,2.232307892,9.196104006
18.50849087,-1.664239197,-8.260572052,2.309397583,8.737279893
18.51857288,-1.812730408,-7.994575195,1.286424866,8.297837852
18.52865488,-1.645977173,-8.168513489,-0.4122427368,8.342889041
18.53873788,-1.22864502,-8.553512878,-1.846560059,8.836398316
18.54881987,-0.6707551575,-8.757688293,-2.654280396,9.175631921
18.55890187,-0.3251239014,-8.823102264,-2.636467438,9.214325785
18.56898487,-0.3755690002,-9.042246552,-1.737287292,9.215283062
18.57906688,-0.578846283,-9.765692139,-0.1345701599,9.783757719
18.58914888,-0.5716612244,-10.54886353,1.836680603,10.72281278
18.59923087,-0.5614823914,-10.8172554,3.598217468,11.41382696
18.60931388,-0.6735992432,-10.79061081,4.423601074,11.68157798
18.61939587,-0.9743238831,-11.00945572,3.243754578,11.51865296
18.62947787,-1.663640442,-11.83034866,0.63887146,11.9638207
18.63956087,-2.662513275,-12.28974335,-1.001716919,12.61468213
18.64964288,-3.991749115,-12.19678665,-1.28941864,12.89799465
18.65972488,-5.004093933,-12.42012222,-0.6337820435,13.40530014
18.66980788,-5.112019501,-12.9154422,1.025517426,13.92813974
18.67988987,-4.467609558,-13.2299382,3.273991699,14.34258769
18.68997187,-2.994672546,-13.30388443,4.885690155,14.48555739
18.70005487,-1.727407837,-13.1688652,4.871769104,14.1469814
18.71013687,-1.957180023,-12.30576004,3.783831482,13.0222757
18.72021888,-2.750530243,-10.86829926,2.83974472,11.56501169
18.73030188,-3.587888947,-10.74750046,2.943628693,11.70669309
18.74038388,-3.337160339,-12.06191711,4.769382019,13.39303881
18.75046587,-1.274300079,-13.21182587,5.462291107,14.35314626
18.76054887,0.9809101868,-14.62159424,2.306403809,14.83484754
18.77063087,2.294728088,-16.88892929,-4.528383179,17.63541788
18.78071287,4.242926788,-18.75285324,-9.135502625,21.28683491
18.79079488,7.138505402,-19.20206909,-7.865992584,21.94428299
18.80087788,9.130263519,-18.23672653,-3.08673111,20.6268712
18.81095988,7.947572937,-15.74141556,3.154240723,17.91383024
18.82104187,5.323529663,-13.0946196,6.682104492,15.6352023
18.83112487,4.665348358,-12.31354385,5.38475235,14.22618696
18.84120687,3.839365997,-12.21789276,1.325643311,12.87536271
18.85128888,3.250789948,-11.91911407,-0.899329834,12.38715907
18.86137187,1.549877014,-11.01933517,-1.494941254,11.2277654
18.87145388,-1.405726776,-9.571845245,-1.212778015,9.750236904
18.88153587,-2.664608917,-8.383316803,-1.066232758,8.860981525
18.89161888,-1.857337646,-7.990982666,-1.26022934,8.30022199
18.90170087,-0.6572831726,-7.742349701,-1.121018829,7.85064859
18.91178287,0.4725672913,-7.260202332,-1.455423431,7.419711255
18.92186587,1.415306854,-7.038513336,-1.27654541,7.292004639
18.93194788,2.12019104,-7.008425903,-0.9957293701,7.389500705
18.94202988,1.932182007,-6.638545074,-1.420545959,7.058438838
18.95211288,1.490151215,-6.350394287,-1.484463043,6.689670304
18.96219487,1.09991272,-5.938750305,-1.200353851,6.157874028
18.97227687,0.7885601807,-4.968767395,-1.381028137,5.217060025
18.98235987,0.250279541,-4.045637054,-1.421593781,4.295433378
18.99244187,0.3335064697,-3.212769012,-1.452579346,3.541623646
19.00252388,0.9201365662,-2.293530579,-1.913770294,3.125612029
19.01260588,1.573228455,-1.559457092,-2.23140976,3.144223864
19.02268888,1.97514267,-1.197360077,-2.14354248,3.151132191
19.03277087,2.604134674,-1.601819,-1.676214294,3.486694118
19.04285287,3.256478119,-1.915267181,-1.020577698,3.913371558
19.05293587,3.568579102,-2.189945984,-0.1273851013,4.188895699
19.06301787,3.919898529,-2.741848297,0.6137237549,4.822861537
19.07309988,3.907624054,-3.916156311,1.587299194,5.755460427
19.08318288,3.738775177,-5.971532135,3.383563843,7.815762288
19.09326446,3.453618164,-9.304351501,6.350543976,11.78252282
19.10334646,1.542093201,-14.21503967,10.90452393,17.98204789
19.11342946,-1.897304535,-20.10888336,16.39824966,26.01671668
19.12351146,-7.098688202,-28.99784866,30.94649643,42.99944468
19.13359346,-10.28331573,-36.56386505,26.00197861,46.03005216
19.14367646,-8.140521698,-30.84006775,7.585924988,32.7860356
19.15375846,-6.52792511,-16.45947235,3.769611053,18.10353567
19.16384046,-5.651647339,-7.027885437,4.589905243,10.11926487
19.17392346,-4.561464386,-1.698068848,3.295546875,5.87801194
19.18400546,-2.230811005,0.7628137207,0.06855743408,2.358623037
19.19408746,1.681154022,-1.022972717,-3.959266663,4.421373602
19.20416946,5.766009521,-5.766608276,-8.73583374,11.95054091
19.21425246,8.834029541,-10.67969147,-9.902807007,17.03412676
19.22433446,10.18721558,-13.6572995,-7.654781799,18.67878142
19.23441646,11.13564331,-14.31563049,-4.920567627,18.79233392
19.24449946,11.06124802,-14.34676575,2.953508148,18.35494771
19.25458146,4.040397949,-13.55042175,16.2876297,21.56908961
19.26466346,-3.77230545,-11.11363907,9.493857422,15.09558182
19.27474646,-5.992787933,-8.639284515,-3.316503296,11.02496886
19.28482846,-4.761897583,-6.926995239,-4.949906616,9.755024713
19.29491046,-1.786834259,-6.349047089,-5.384003906,8.514145504
19.30499346,1.665287018,-7.829318848,-5.540727997,9.735043975
19.31507546,3.925886078,-9.572743378,-5.924230499,11.92252089
19.32515746,4.326902161,-9.709259491,-6.393804016,12.40453675
19.33524046,3.820954285,-9.268875275,-6.058501282,11.71397363
19.34532246,3.307521973,-9.129515076,-4.897665253,10.87542514
19.35540446,2.820135498,-9.793683929,-1.463207245,10.29613445
19.36548746,1.535357208,-10.72130493,1.44973526,10.92727933
19.37556946,-0.2565664673,-11.56016052,1.837728424,11.70813322
19.38565146,-1.16772171,-11.69113815,0.8378077698,11.77914289
19.39573446,-1.091081085,-10.99328934,0.2345622253,11.0497913
19.40581646,-0.4043092346,-9.88020401,0.1100212097,9.889084988
19.41589846,0.4911286926,-8.671018524,0.4454736328,8.696333503
19.42598146,0.8695417786,-7.746990051,0.3165916443,7.802063062
19.43606346,1.092727661,-7.265591125,-0.8831634521,7.400192283
19.44614546,1.614841919,-7.291187897,-1.65570694,7.649215701
19.45622746,1.66034729,-7.917635193,-1.459465027,8.220446359
19.46631046,1.108444977,-8.65634903,-0.6105802917,8.748361966
19.47639246,0.4981640625,-9.170978851,0.3314108276,9.190476248
19.48647446,-0.07080276489,-9.407786407,1.097368011,9.471835866
19.49655746,-0.7771838379,-9.256900177,1.404529266,9.395047529
19.50663946,-1.204545135,-8.765172729,1.508712616,8.975265774
19.51672146,-1.081351318,-8.366701355,1.27654541,8.532325616
19.52680446,-0.8508306885,-8.298443298,0.503253479,8.357113024
19.53688646,-0.6568341064,-8.318651276,-0.9156459045,8.394629087
19.54696846,-0.4873864746,-8.539891205,-1.956281891,8.774641087
19.55705146,-0.5496569824,-8.68089798,-2.205962677,8.973649417
19.56713346,-0.859662323,-8.880882111,-1.895358582,9.121484009
19.57721546,-1.143621826,-9.512867889,-0.9457333374,9.627924901
19.58729846,-1.069226532,-10.45081741,0.5231620789,10.51839002
19.59738046,-1.030008087,-11.12815887,1.97155014,11.34829708
19.60746246,-0.8729846191,-11.1715686,3.231330414,11.66222721
19.61754546,-1.10455307,-11.14791779,3.592828674,11.76454531
19.62762746,-1.316512299,-11.92495193,2.705473938,12.29866954
19.63770946,-1.717378693,-12.6274411,1.058448944,12.78757102
19.64779246,-2.824476471,-12.87098465,-0.02380050659,13.17727133
19.65787446,-3.995341644,-13.15554291,0.650098114,13.7642178
19.66795646,-4.72597229,-13.47976868,2.377356262,14.48070442
19.67803946,-5.057682495,-13.56763596,4.065395966,15.03955924
19.68812146,-4.866230621,-13.20913147,4.30594574,14.72081938
19.69820346,-4.472249908,-13.20419174,3.361858978,14.34063439
19.70828546,-4.506828003,-12.77144165,3.006947021,13.8731017
19.71836846,-4.789290619,-11.47004791,2.958298187,12.77696489
19.72845046,-4.974605255,-10.7973468,3.349285126,12.35099616
19.73853246,-4.074077911,-11.91133026,4.446503448,13.35100342
19.74861546,-1.535057831,-13.67660934,3.448977814,14.18807576
19.75869746,0.6929090881,-15.3401001,-0.3421884155,15.3595536
19.76877946,2.905458069,-17.16031494,-6.081104279,18.4363208
19.77886246,5.412893829,-18.7030069,-9.070088654,21.47948777
19.78894446,7.735014954,-18.80075363,-7.716902618,21.74510013
19.79902646,8.363408203,-17.15223175,-3.024161224,19.32074538
19.80910946,6.136938171,-14.63087494,3.018922119,16.15049233
19.81919146,4.362228699,-12.93550049,6.003266144,14.91292783
19.82927346,3.786675568,-11.96836166,4.258644104,13.25581542
19.83935646,2.89363266,-11.65147064,0.2037263489,12.00713881
19.84943846,2.047142944,-11.28099106,-0.9524693298,11.50472735
19.85952046,0.5878276062,-10.16072067,-1.805245972,10.33657094
19.86960346,-1.675765228,-8.806187439,-2.195185089,9.229082505
19.87968546,-2.065554657,-8.086334381,-2.046244812,8.593162258
19.88976746,-1.240171051,-7.844437408,-1.58774826,8.099022597
19.89985046,-0.03861968994,-7.81030838,-1.516047363,7.956180496
19.90993246,1.019380188,-7.726782074,-1.508562927,7.93839148
19.92001446,1.491797791,-7.556585999,-0.9364526367,7.759149189
19.93009746,1.272803192,-7.327711945,-0.9380992126,7.49636048
19.94017946,0.9707313538,-7.001240845,-1.317260742,7.189914366
19.95026146,1.142424316,-6.393504639,-1.438209229,6.652103477
19.96034346,0.9267228699,-5.362598419,-1.352437592,5.607616653
19.97042646,0.7593708801,-4.393513641,-1.229243774,4.625002325
19.98050846,1.24032074,-3.326682129,-1.476529541,3.845172169
19.99059146,1.159638519,-2.633024597,-1.989363098,3.497877294
