Time (s),Acceleration x (m/s^2),Acceleration y (m/s^2),Acceleration z (m/s^2),Absolute acceleration (m/s^2)
10.00810242,4.641098785,-10.13482452,-7.536378021,13.4555364
10.01818442,3.353326721,-10.60215271,-6.802304535,13.03540522
10.02826642,1.889520721,-11.43861328,-3.230881348,12.03539599
10.03834842,0.1199006653,-12.64944534,1.657503204,12.75814095
10.04842942,-1.600920868,-13.29056213,4.621639252,14.1619751
10.05851242,-1.917213135,-12.92322601,4.711602173,13.88829262
10.06859342,-1.002465363,-11.67212769,2.837349701,12.05379836
10.07867542,0.04116439819,-10.07764343,0.7875123596,10.1084503
10.08875742,0.5942642212,-8.413553925,-0.2586621094,8.438480058
10.09883942,1.055604858,-7.001989288,-1.106499023,7.167042326
10.10892142,1.688638458,-6.242468719,-2.529440002,6.943916927
10.11900342,1.93412796,-6.190826111,-2.382595367,6.90969895
10.12908542,1.76333313,-6.715036011,-2.031874695,7.233917827
10.13916742,1.6814534,-7.710316315,-1.534608765,8.039358635
10.14924942,1.60421402,-8.7124823,-0.7312294006,8.889068955
10.15933142,1.39120697,-9.176367645,0.3959266663,9.289668343
10.16941342,0.9789642334,-8.884624329,1.257984009,9.026485706
10.17949542,0.2576142883,-8.353678436,1.413360901,8.476313914
10.18957742,-0.2938389587,-7.519313507,0.6837780762,7.556055149
10.19965942,-0.3603007507,-6.892566833,-0.3222798157,6.9094977
10.20974142,-0.093256073,-6.978039093,-1.331481171,7.104545614
10.21982342,0.2856060791,-7.666158142,-2.09100174,7.95134201
10.22990542,0.442180481,-8.710386658,-1.931732941,8.932969913
10.23998742,0.1686991882,-9.968969421,-0.6146218872,9.98932284
10.25006942,-0.4923262024,-11.06768463,0.74065979,11.10336008
10.26015142,-1.007554779,-11.8749559,1.872306519,12.06380023
10.27023342,-1.662891998,-12.20501953,2.372715912,12.54422147
10.28031542,-2.406395874,-12.17822525,2.10267746,12.59051881
10.29039692,-2.79064682,-12.24423798,1.444346466,12.64101301
10.30047892,-3.200494537,-12.39003479,1.114731903,12.8451841
10.31056092,-4.173022156,-12.17912338,0.7954458618,12.89875554
10.32064192,-5.146148529,-12.05742645,1.117575989,13.15725478
10.33072392,-5.560636597,-12.08945984,2.524949341,13.54441168
10.34080592,-4.951702881,-11.97973801,4.324507141,13.66509591
10.35088792,-3.833677826,-11.46570694,4.967569885,13.07043503
10.36096992,-3.416944427,-11.30913254,3.93037674,12.45069674
10.37105192,-3.67410965,-11.64712967,2.60338623,12.48728678
10.38113392,-3.792513428,-11.66988235,2.615810394,12.54638499
10.39121592,-3.585942993,-12.35575607,3.990551605,13.47027087
10.40129792,-2.877166901,-14.33523972,3.863914948,15.12306271
10.41137992,-1.616189117,-16.50407959,0.9828561401,16.61212559
10.42146192,0.1188528442,-18.32444412,-3.750301208,18.7046555
10.43154392,2.79304184,-19.17841827,-8.141120453,21.02119531
10.44162592,5.54851181,-19.28843948,-9.585766296,22.24223003
10.45170792,7.414082336,-18.51380035,-7.127129059,21.178418
10.46178992,6.541097717,-16.86991882,-0.1193019104,18.09404193
10.47187192,5.945935364,-15.57136917,5.635630646,17.59494297
10.48195392,6.668183441,-14.62279175,5.629643097,17.02890455
10.49203592,7.016209717,-13.90847717,2.552192688,15.78564612
10.50211792,5.113815765,-12.88131317,-0.09804611206,13.85961593
10.51219992,2.157313843,-10.96155533,-0.8949888611,11.20761809
10.52228192,-0.8728349304,-9.409582672,-1.455273743,9.561375871
10.53236392,-2.869383087,-8.411009216,-1.688638458,9.045990006
10.54244592,-2.888543243,-7.84069519,-2.054328003,8.604675862
10.55252792,-0.8562194824,-7.566764832,-1.87215683,7.841811845
10.56260992,1.804347839,-7.281009064,-1.481469269,7.646143819
10.57269092,3.660787354,-6.633755035,-1.293759613,7.686474085
10.58277292,4.453987885,-6.201304321,-1.494641876,7.779983143
10.59285492,4.209246826,-5.995632019,-1.69193161,7.51851014
10.60293692,3.819607086,-5.963448944,-1.830842743,7.314650145
10.61301892,3.278182983,-5.550008698,-1.478176117,6.613175096
10.62310092,1.951940918,-4.577481079,-1.084943848,5.093182652
10.63318292,1.447489929,-3.503464508,-1.117875366,3.95210526
10.64326492,1.412911835,-2.084265747,-1.450334015,2.905847951
10.65334692,1.529369659,-0.9452842712,-1.705104218,2.477885046
10.66342892,2.010918274,-0.0672102356,-2.038760376,2.864411526
10.67351092,2.461780701,0.1089733887,-1.638343048,2.959122735
10.68359292,2.884801025,-0.2279759216,-0.9262738037,3.038426095
10.69367492,2.892584839,-1.122964783,-0.2588117981,3.113692422
10.70375692,2.950364685,-2.024689636,0.3101550293,3.591687074
10.71383892,2.616858215,-3.178041229,1.016087036,4.240321431
10.72392092,1.954785004,-5.029690704,1.964514771,5.742672834
10.73400292,0.9794132996,-7.496111755,3.592379608,8.369954188
10.74408492,-0.1371148682,-11.08385101,7.241940308,13.24070441
10.75416692,-1.651665344,-16.12057709,11.65281784,19.95968857
10.76424892,-5.823040924,-22.60494278,21.78255295,31.9275877
10.77433092,-12.18810471,-30.43905167,26.86014404,42.38576531
10.78441292,-15.06197845,-32.54786636,12.05293579,37.83516963
10.79449492,-11.69143753,-25.34080353,5.732778625,28.49053853
10.80457692,-6.090834045,-14.47415085,5.655239868,16.69074714
10.81465892,-3.410058746,-7.686216431,3.76182724,9.211827607
10.82474092,-2.270628204,-3.560196533,0.0549357605,4.223004823
10.83482192,-0.3212319946,-2.689008179,-4.117188263,4.928001032
10.84490492,3.626209259,-5.978567505,-8.797804871,11.23806182
10.85498592,9.066047058,-11.67886368,-12.90017395,19.62150743
10.86506792,12.40515335,-15.67061279,-11.83394119,23.22709838
10.87514992,12.06685684,-15.85742432,-4.866230621,20.51212179
10.88523192,10.29214737,-15.8310791,20.51648575,27.88328443
10.89531392,3.247197418,-13.0308522,20.54223221,24.54242662
10.90539592,2.636018372,-8.028105469,-3.458557892,9.130207717
10.91547792,0.6505471802,-3.22594162,-6.361321564,7.16214514
10.92555992,-2.208956451,-0.9948312378,-5.150938568,5.692218015
10.93564192,-1.96107193,-2.141746216,-7.904612274,8.421150466
10.94572392,2.951412506,-6.338868256,-7.616461487,10.33937001
10.95580592,6.773264923,-9.94457016,-6.336922302,13.59883001
10.96588792,6.721472626,-11.26871658,-4.746479645,13.95318016
10.97596992,5.826483765,-11.72466843,-2.787353668,13.38600401
10.98605192,3.554957428,-11.83304306,-1.291514282,12.42282736
10.99613392,0.5334906006,-12.47580643,-0.4236190796,12.4943912
11.00621592,-1.887874146,-13.32035019,-0.3553610229,13.45816033
11.01629792,-3.196153564,-13.57601852,0.6517446899,13.96239405
11.02637992,-3.12175827,-12.56053024,1.15844101,12.99439419
11.03646192,-2.021097107,-10.90991272,0.8574169922,11.12862044
11.04654392,-0.3897894287,-9.624535675,0.2377056885,9.635358154
11.05662592,0.5665718079,-8.437354431,-1.593885498,8.605255626
11.06670792,1.109642487,-7.106472015,-3.266058197,7.899391565
11.07678992,1.523681488,-6.731801147,-3.870052185,7.913030765
11.08687192,2.24892334,-7.272177429,-3.088377686,8.214639218
11.09695292,1.961520996,-8.159532166,-1.18298996,8.474962833
11.10703592,1.767225037,-8.750353546,0.09445358276,8.92752446
11.11711692,1.399888916,-9.116043091,0.5141807556,9.237224283
11.12719892,0.7032376099,-9.076076202,0.8523275757,9.143093823
11.13728092,0.01601669312,-8.370593262,1.125958557,8.445997322
11.14736292,-0.7065307617,-7.795189819,0.6605763245,7.854968562
11.15744492,-1.039288788,-7.374863892,-0.3447331238,7.455707849
11.16752692,-0.8717871094,-7.183711395,-1.270557861,7.34711096
11.17760892,-0.3222798157,-7.399861908,-1.479373627,7.553169326
11.18769092,0.1555265808,-7.844138031,-1.146914978,7.929067028
11.19777292,0.4224215698,-8.327632599,-0.4842430115,8.352388639
11.20785492,0.4064048767,-9.06934021,0.1715432739,9.080061886
11.21793692,0.406255188,-10.2586171,0.6622229004,10.28799335
11.22801892,0.2676434326,-11.40134079,1.10694809,11.45807745
11.23810092,-0.07170089722,-12.03272781,1.306183777,12.10362738
11.24818292,-0.7837701416,-11.98677338,1.586850128,12.11672914
11.25826492,-1.669029236,-11.53561157,1.763782196,11.78842316
11.26834692,-2.592009888,-11.71598648,1.381626892,12.07856562
11.27842892,-4.029021606,-12.02688995,0.6776408386,12.7019012
11.28851133,-5.398074646,-11.73065598,0.4297563171,12.92022407
11.29859333,-6.236780548,-11.64593216,1.229393463,13.26787759
11.30867533,-5.856720886,-11.70416107,3.357518005,13.51153186
11.31875733,-4.335883484,-11.32140701,5.20692215,13.19417222
11.32883933,-3.368594971,-10.8862619,5.397026825,12.60896621
11.33892133,-3.305875397,-11.10690308,4.037254486,12.27157414
11.34900333,-3.694766693,-11.05091949,3.870501251,12.2782288
11.35908533,-4.116290131,-11.61838943,6.064039764,13.73693546
11.36916633,-3.877835999,-13.52766907,4.994962921,14.93268553
11.37924833,-2.572250977,-15.79650101,0.1787283325,16.00555725
11.38933033,-1.04602478,-17.89289154,-4.601431274,18.50467253
11.39941233,1.438358917,-18.91421768,-8.802445221,20.91170841
11.40949433,4.50712738,-19.42016556,-9.501641235,22.08479598
11.41957633,7.439679108,-19.7872023,-6.330785065,22.06719374
11.42965833,8.76741806,-18.81302811,-0.1977388,20.7566073
11.43974033,7.331603851,-17.11271393,6.493347015,19.7170218
11.44982233,7.31064743,-15.85832245,7.207212524,18.89115849
11.45990433,8.519084473,-14.77936615,3.028951263,17.32567487
11.46998633,8.084987183,-13.68349503,-0.2911445618,15.89622027
11.48006833,4.290228424,-11.99320999,-1.829794922,12.86822813
11.49015033,-0.3116519165,-9.714648285,-1.252445526,9.800007041
11.50023233,-3.297492828,-8.615633698,-1.05306015,9.28501689
11.51031433,-3.860472107,-8.3170047,-1.69432663,9.324513649
11.52039633,-2.042801971,-8.255482635,-1.74806488,8.682267231
11.53047833,0.5712121582,-8.280480652,-1.725611572,8.477639911
11.54056033,1.937121735,-7.944579163,-1.582509155,8.329052402
11.55064233,2.470612335,-8.020171967,-1.503922577,8.52577661
11.56072433,2.994373169,-7.911048889,-1.896556091,8.668788278
11.57080633,3.310665436,-7.227719879,-1.590442657,8.107400824
11.58088833,2.9568013,-6.033353577,-1.04961731,6.800421002
11.59097033,2.040556641,-4.582420807,-1.089584198,5.133190585
11.60105233,1.518292694,-3.067421265,-1.651964722,3.800430681
11.61113433,1.246607666,-1.658850403,-2.191742249,3.018203011
11.62121633,1.332229614,-0.4917274475,-2.521656189,2.894025149
11.63129733,1.790875854,0.4004173279,-2.60578125,3.187109393
11.64137933,2.43378891,0.5137316895,-2.167792053,3.299480428
11.65146133,3.017574921,0.48559021,-1.65331192,3.474909576
11.66154333,3.230132904,0.1396595764,-1.112636261,3.419243019
11.67162533,3.477867737,-0.4453239441,-0.4815486145,3.53917596
11.68170733,3.490441589,-1.356479187,0.2519261169,3.753223287
11.69178933,2.717449036,-2.980003052,1.144969025,4.192362284
11.70187133,1.708397369,-5.39762558,2.55084549,6.209653467
11.71195333,0.4617897034,-8.957223358,6.112089844,10.85369717
11.72203533,-1.006806335,-14.13854874,11.2697644,18.10855624
11.73211733,-5.193001099,-20.93441666,19.497854,29.07547716
11.74219933,-12.88505539,-30.98571487,32.90247894,46.99693925
11.75228133,-15.83317474,-36.60817291,17.39936783,43.51535071
11.76236333,-10.31924103,-30.65849533,3.466491394,32.53377682
11.77244533,-5.916895752,-17.08591965,2.458637238,18.24782734
11.78252733,-2.523153076,-8.014932861,2.618504791,8.801250909
11.79260933,0.3616479492,-3.293151855,2.428549805,4.107735695
11.80269133,3.01068924,-2.945574646,0.1365161133,4.214178015
11.81277333,6.449637909,-7.262297974,-6.141578522,11.49163991
11.82285533,10.28316605,-12.87757095,-11.29700775,19.97993298
11.83293733,12.29333588,-15.36464905,-10.66038162,22.37950589
11.84301933,12.26324844,-13.7634288,-1.364712067,18.48463345
11.85310133,9.691895599,-12.1669986,18.34360428,24.05112291
11.86318333,3.916904755,-10.64436493,11.36361923,16.05541932
11.87326533,2.267933807,-6.919660492,-3.31605423,8.001339934
11.88334733,-1.206940155,-3.641627197,-3.229085083,5.01449336
11.89342933,-3.325933685,-3.514092407,-6.918912048,8.442868248
11.90351033,-0.5502557373,-6.032156067,-10.56787399,12.18070806
11.91359233,4.066144409,-9.41332489,-10.41294617,14.6141597
11.92367433,5.331463165,-11.42095001,-7.539072418,14.68673591
11.93375633,4.717889099,-11.90534271,-4.643643494,13.62200747
11.94383833,3.315754852,-11.80100967,-2.655777283,12.54237667
11.95392033,1.461710358,-11.46031815,-0.8451425171,11.58403017
11.96400233,-0.6162684631,-11.4475946,0.933608551,11.50212302
11.97408433,-2.321522369,-11.75939621,1.678759003,12.10335066
11.98416633,-3.068618774,-11.57138718,1.415905609,12.05480033
11.99424833,-2.703527985,-10.84479813,1.075214081,11.22830331
12.00433033,-1.415905609,-10.06102798,0.9725276184,10.20660976
12.01441233,-0.1601669312,-9.114246826,0.7089257812,9.14317912
12.02449433,0.7415579224,-7.880811768,-0.02320175171,7.915657938
12.03457633,1.159039764,-7.032974854,-0.7418572998,7.166342213
12.04465833,1.559157715,-6.709946594,-1.463955688,7.04255084
12.05474033,1.206940155,-6.882986755,-1.822310486,7.22170525
12.06482233,0.841999054,-7.36453537,-1.121767273,7.49691306
12.07490433,0.3421884155,-7.826325073,-0.1523831177,7.835284148
12.08498633,0.08756790161,-8.419242096,0.70907547,8.449502567
12.09506833,-0.06900650024,-8.720415802,1.324445801,8.820689901
12.10515033,-0.4567002869,-8.578810272,1.297352142,8.68836483
12.11523233,-0.3882925415,-8.125403137,0.6872209167,8.163652358
12.12531433,-0.02065704346,-8.027506714,-0.1766326904,8.029476313
12.13539633,0.5307962036,-7.987839203,-1.216370544,8.097337651
12.14547833,1.166374512,-7.837701416,-2.095193024,8.196330081
12.15556033,1.694176941,-7.989485779,-2.324665833,8.49153636
12.16564233,1.665436707,-8.471782837,-1.716330872,8.80287314
12.17572333,1.110091553,-9.186696167,-0.4495152283,9.264434881
12.18580533,0.2023791504,-10.19919067,0.877325592,10.23885481
12.19588733,-0.676892395,-11.23428818,1.960323486,11.4241097
12.20596933,-1.130598907,-12.04126007,2.603984985,12.37137566
12.21605133,-1.344504089,-12.599599,2.606829071,12.93650432
12.22613333,-1.473984833,-12.91349625,2.213896179,13.18454978
12.23621533,-2.15881073,-12.90975403,1.405427399,13.16424852
12.24629733,-3.109783173,-12.50454666,0.5310955811,12.8963755
12.25637933,-4.381837921,-12.46248413,0.5120851135,13.22029672
12.26646133,-5.521268463,-12.86335052,1.735491028,14.10539334
12.27654333,-5.853876801,-13.26571381,3.54657486,14.92733163
12.28662546,-5.261109467,-13.27349762,4.869523773,15.08566451
12.29670746,-4.322411499,-12.91574158,4.694088593,14.4060435
12.30678946,-4.271367645,-12.67504211,2.633623352,13.63221354
12.31687146,-4.540507965,-12.12059509,1.317410431,13.01001953
12.32695346,-4.617897034,-11.76433594,1.54568573,12.73238852
12.33703546,-3.738625488,-11.80505127,2.329904938,12.60019893
12.34711746,-1.899549866,-13.20299423,4.24502243,13.99812708
12.35719946,0.256716156,-15.47856216,3.276686096,15.82366777
12.36728146,2.592309265,-17.46448242,-3.480861511,17.99568311
12.37736346,5.066065063,-18.81108215,-9.737999725,21.77958828
12.38744546,7.657925262,-19.11330368,-10.08003845,22.92529983
12.39752746,7.962242432,-18.34405334,-5.700595551,20.79419119
12.40760946,5.792354736,-16.30768799,0.7453001404,17.32188019
12.41769146,5.560636597,-14.98803223,5.335504761,16.85317182
12.42777346,6.554420013,-14.33434158,6.005361786,16.86707267
12.43785546,7.280559998,-12.93774582,2.216740265,15.01018848
12.44793646,6.495891724,-11.36855896,-0.9107061768,13.12517154
12.45801846,3.611240387,-9.857451324,-0.3719764709,10.50470229
12.46810046,-0.1927990723,-8.724008331,-1.046922913,8.788716654
12.47818246,-2.272424469,-7.642507324,-2.068847809,8.237230264
12.48826446,-2.825374603,-7.328909454,-2.234403534,8.166285238
12.49834646,-1.748963013,-7.575596466,-1.926194458,8.009916262
12.50842846,0.135617981,-7.402406616,-1.7305513,7.60321141
12.51851046,1.354832611,-6.950945435,-1.660946045,7.273922986
12.52859246,2.016756134,-6.702761536,-1.574875031,7.174576564
12.53867446,2.285896454,-6.549629974,-1.749561768,7.154295338
12.54875646,2.080822906,-6.187233582,-2.206262054,6.890520707
12.55883846,1.581311646,-5.318440247,-2.167792053,5.956985443
12.56892046,1.181044006,-4.220623169,-2.332299957,4.964690118
12.57900246,1.563947754,-3.053051147,-2.45953537,4.220943985
12.58908446,2.049837341,-2.086511078,-2.488125916,3.840069293
12.59916646,2.351011047,-1.458267517,-2.308948517,3.603476148
12.60924846,2.936743011,-0.8381071472,-2.016905823,3.659889644
12.61933046,3.203638,-0.9940827942,-1.436712341,3.64906007
12.62941246,3.603755951,-1.397942963,-0.8898994446,3.966512637
12.63949446,4.136049042,-1.791025543,-0.3080593872,4.517695735
12.64957646,4.504432983,-2.409988403,0.3691323853,5.121935115
12.65965846,4.413721619,-3.779041443,1.405128021,5.977999457
12.66974046,3.523822174,-5.755830688,3.173999634,7.457961069
12.67982246,2.19862793,-8.74870697,6.492448883,11.11421301
12.68990446,0.5128335571,-13.09342209,11.33787277,17.32766745
12.69998646,-2.20087326,-18.75973892,16.49629578,25.07786717
12.71006846,-7.932753754,-27.55589722,29.52879456,41.16073082
12.72014946,-12.65199005,-34.19474167,21.85155945,42.50698602
12.73023146,-11.09432922,-30.68843307,6.410269775,33.25591112
12.74031346,-7.529791718,-18.14661392,3.78517868,20.0081218
12.75039546,-5.27592865,-8.593928833,3.573219452,10.69854818
12.76047746,-3.680546265,-3.220253448,2.589315491,5.533625194
12.77055946,-2.602488098,-1.001866608,-1.321152649,3.085794115
12.78064146,-0.3477268982,-1.981130219,-8.457263031,8.693163343
12.79072346,4.884342957,-6.041586456,-13.83842285,15.87008255
12.80080546,11.45313309,-11.48591492,-13.68289627,21.22079521
12.81088746,13.94140869,-14.71993973,-9.531279602,22.40278538
12.82096946,13.96236511,-15.8204512,2.560425568,21.2553545
12.83105146,9.575587463,-19.15581528,33.26352814,39.56133767
12.84113346,1.339863739,-16.57667862,14.20261551,21.86997476
12.85121546,-0.6583309937,-9.936936035,-7.497758331,12.46565191
12.86129746,-2.523153076,-5.249583435,-7.034471741,9.132810102
12.87137946,-3.292403412,-2.585124207,-6.107000427,7.403934198
12.88146146,-1.229692841,-2.757415924,-5.845643921,6.579288709
12.89154346,2.583178253,-5.605692902,-6.168522491,8.726240458
12.90162546,4.890031128,-8.249495087,-6.831493835,11.77437394
12.91170746,4.699776764,-9.77721817,-7.169041901,13.00296345
12.92178946,3.282224579,-10.62400726,-6.693480835,12.97864454
12.93187146,1.756597137,-11.6586557,-4.588408356,12.65161561
12.94195346,0.1745370483,-13.09312271,-1.135688324,13.14344375
12.95203546,-1.444496155,-13.92389511,2.524949341,14.22451382
12.96211746,-1.997745667,-13.20419174,4.224365387,14.00667449
12.97219946,-1.212478638,-11.68859344,3.548071747,12.27526514
12.98228146,-0.2148033142,-10.24768982,2.036365356,10.45026655
12.99236346,0.7098239136,-8.549171906,0.3498225403,8.585718728
13.00244546,1.39240448,-7.010521545,-1.128952332,7.236071859
13.01252746,2.207609253,-6.153403931,-1.684596863,6.750984013
13.02260846,2.871329041,-6.109844513,-2.020648041,7.046825451
13.03269046,3.005450134,-6.705006866,-1.656605072,7.532210031
13.04277246,2.685864716,-7.669451294,-1.219364319,8.217128559
13.05285446,2.246378632,-8.622220001,-1.127305756,8.981075268
13.06293646,1.680405579,-9.072783051,-0.4102967834,9.236205857
13.07301846,0.9372010803,-9.078022156,0.5257067871,9.141400317
13.08310046,0.3179388428,-8.952583008,1.106049957,9.026249173
13.09318246,-0.3144960022,-8.821006622,1.093027039,8.894030227
13.10326446,-0.6364764404,-8.528514862,0.6511459351,8.576984263
13.11334646,-0.6355783081,-8.148604889,-0.01556762695,8.173369181
13.12342846,-0.430355072,-7.975714417,-0.6521937561,8.01389934
13.13351046,-0.2537223816,-8.130492554,-0.9211843872,8.186443971
13.14359246,-0.3312611389,-8.991801453,-0.6851252747,9.023947249
13.15367446,-0.4683760071,-10.3208876,0.1442999268,10.33251758
13.16375646,-0.7397616577,-11.26886627,1.357077942,11.37436833
13.17383846,-1.201401672,-11.62422729,2.566413116,11.96463549
13.18392046,-1.943258972,-11.83947968,2.74738678,12.30843892
13.19400246,-2.33664093,-12.52550308,1.930086365,12.88694501
13.20408446,-2.758763123,-12.9658873,0.7144642639,13.27537068
13.21416646,-3.738176422,-12.98235306,0.1489402771,13.51064903
13.22424846,-4.669240265,-12.83895126,0.9107061768,13.69196333
13.23433046,-5.17414032,-12.51622238,2.581980743,13.78746443
13.24441246,-5.0629216,-12.38838821,4.596940613,14.15051945
13.25449446,-4.454137573,-12.37042557,5.450615387,14.23291883
13.26457646,-4.136947174,-12.51936584,4.098028107,13.80734179
13.27465846,-4.38543045,-11.8948645,2.697390747,12.96131624
13.28473992,-4.628973999,-10.76740906,2.973865814,12.09166556
13.29482192,-4.39486084,-11.35284164,3.702251129,12.72432625
13.30490392,-1.826950836,-13.13847839,3.922592926,13.83271843
13.31498592,0.9671388245,-14.92516296,2.153122559,15.11065133
13.32506692,2.428400116,-17.02619385,-3.973337402,17.65151025
13.33514892,4.559967499,-18.90478729,-9.466464386,21.62864383
13.34523092,7.54700592,-19.76040802,-8.807834015,22.91307407
13.35531292,9.794282684,-19.36178696,-4.180506592,22.09713562
13.36539492,8.41056015,-17.16031494,2.734812927,19.30526179
13.37547692,6.881040802,-14.65976486,7.51197876,17.85181372
13.38555892,7.275769958,-13.57287506,6.660549316,16.7786377
13.39564092,7.122039642,-13.06258621,2.413580933,15.07249084
13.40572292,4.97640152,-12.49900818,-1.83353714,13.57761525
13.41580492,0.7683522034,-11.16558105,-2.36942276,11.44004937
13.42588692,-3.185226288,-9.686806183,-1.202748871,10.26774003
13.43596892,-4.774022369,-9.015003204,-0.8786727905,10.23882992
13.44605092,-3.54417984,-8.350984039,-1.478475494,9.191628526
13.45613292,-1.018332367,-8.008196869,-1.541195068,8.21848527
13.46621492,1.235381012,-7.422464905,-1.567989349,7.686204662
13.47629692,2.875670013,-6.87894516,-1.234183502,7.557286117
13.48637892,3.48924408,-6.745422821,-1.115330658,7.675904882
13.49646092,3.079995117,-6.636449432,-1.461710358,7.460926763
13.50654292,2.78361145,-6.440506897,-1.56903717,7.189610521
13.51662492,2.076032867,-5.714516602,-1.364712067,6.231215891
13.52670692,1.404229889,-4.478087769,-1.280886383,4.864750926
13.53678892,0.7346722412,-3.081641693,-1.544637909,3.524509199
13.54687092,0.9196875,-1.817221069,-1.805695038,2.721883922
13.55695292,1.352886658,-0.7426057434,-2.155966644,2.651406753
13.56703492,1.980531464,0.1206491089,-2.455793152,3.157210967
13.57711692,2.621947632,0.2701881409,-2.086810455,3.36190257
13.58719892,3.110830994,-0.1727407837,-1.503323822,3.459348402
13.59728092,3.562441864,-0.8342152405,-0.7753875732,3.740071255
13.60736292,4.077221375,-1.472787323,-0.1065783691,4.33638047
13.61744492,4.283342743,-2.648891602,0.7421566772,5.090623567
13.62752692,4.085005188,-4.618645477,1.894161072,6.450348797
13.63760892,3.628304901,-7.351512451,3.753444672,9.016522538
13.64768992,2.342628479,-11.23623413,7.168293457,13.53237957
13.65777192,0.7896080017,-16.92051361,11.809991,20.64953145
13.66785392,-2.330952759,-23.99839508,21.77162567,32.48630468
13.67793592,-10.55604858,-33.99101532,33.68056091,49.00203534
13.68801792,-15.30372574,-37.00978775,16.18374573,43.1953937
13.69809992,-11.36346954,-26.61225952,4.557422791,29.29352999
13.70818192,-7.581434326,-12.85511765,3.813170471,15.40365103
13.71826392,-6.006409607,-4.948110352,2.897524567,8.303999099
13.72834592,-3.373684387,-1.028211823,-0.1600172424,3.530519992
13.73842792,0.2130070496,-0.4836442566,-4.184548187,4.217787015
13.74850992,4.006717987,-3.278182983,-9.260492706,10.60928828
13.75859192,8.537945251,-8.71008728,-12.66770737,17.58502032
13.76867392,12.03332657,-13.67675903,-12.38584351,22.02870412
13.77875592,12.40425522,-15.41195068,-9.103469238,21.7776703
13.78883792,11.63844772,-15.25687317,6.698570251,20.32477522
13.79891992,3.903582458,-15.51688248,26.09538437,30.6101402
13.80900192,-0.09879455566,-13.53590195,10.38046371,17.0582657
13.81908392,0.06885681152,-8.877888336,-2.667303314,9.27017527
13.82916592,-1.143472137,-4.622836761,-6.029611359,7.683382158
13.83924792,-0.9836045837,-3.233426056,-6.821015625,7.612409355
13.84932992,1.262624359,-4.41940979,-6.302344208,7.800317024
13.85941192,4.849016418,-6.858886871,-6.520740051,10.63378297
13.86949392,5.943839722,-8.684041443,-6.916666718,12.5929379
13.87957592,4.934189301,-9.571096802,-6.327192535,12.48941486
13.88965792,3.684438171,-10.25906616,-5.182373199,12.06981836
13.89973992,2.28170517,-11.17441269,-3.103196869,11.81962386
13.90982192,0.1727407837,-12.8385022,-0.4080514526,12.84614666
13.91990392,-1.79371994,-13.9399118,1.561552734,14.14132311
13.92998492,-2.587968292,-13.4516272,2.367327118,13.90137014
13.94006692,-2.000589752,-11.75041489,1.99265625,12.08491987
13.95014892,-0.9624984741,-9.524992676,0.7286846924,9.601191081
13.96023092,-0.4034111023,-7.5751474,-0.7825726318,7.626140477
13.97031292,0.09714797974,-6.460565186,-1.776805115,6.701147414
13.98039492,1.291963348,-6.250402222,-3.125650177,7.106784523
13.99047692,2.297272797,-6.835385742,-3.068469086,7.83680184
14.00055892,2.672841797,-7.746391296,-1.93068512,8.418919552
14.01064092,2.827470245,-8.368347931,-0.7622149658,8.865935187
14.02072292,2.587818604,-8.844208374,0.1101708984,9.215691212
14.03080492,1.682201843,-8.969797211,0.4451742554,9.137026057
14.04088692,0.8861572266,-8.841064911,0.7059320068,8.913363192
14.05096892,-0.02230361938,-8.848998413,0.8123606873,8.886236563
14.06105092,-0.6173162842,-8.785829773,0.5150788879,8.822538776
14.07113292,-0.9717791748,-8.642427979,0.08292755127,8.697286537
14.08121492,-1.017434235,-8.531209259,-0.3790118408,8.600020571
14.09129692,-0.8981323242,-8.634195099,-0.7753875732,8.715342367
14.10137892,-0.8599617004,-9.014404449,-0.9066645813,9.100607802
14.11146092,-0.7890092468,-9.745035095,-0.5760021973,9.793876818
14.12154292,-0.8241860962,-11.00197128,0.1841171265,11.03433523
14.13162492,-0.9701325989,-12.06820404,1.365610199,12.18390731
14.14170692,-1.295705566,-12.29842529,2.501897278,12.6170364
14.15178892,-1.900298309,-11.91821594,3.145858154,12.47202584
14.16187092,-2.478695526,-11.56210648,3.160228271,12.23982354
14.17195292,-2.915337524,-12.05263641,2.016756134,12.56314223
14.18203392,-3.480412445,-12.57100845,0.5945635986,13.05745114
14.19211592,-4.142635345,-12.86335052,0.4026626587,13.51996123
14.20219792,-4.520749054,-12.83026932,1.381028137,13.67333981
14.21227992,-4.281995544,-12.79344589,3.119962006,13.84709018
14.22236192,-2.861299896,-12.33824249,4.847818909,13.56173341
14.23244392,-1.48251709,-11.7595459,5.181774445,12.93582479
14.24252592,-1.607058105,-11.68724625,3.939358063,12.43756015
14.25260792,-2.309547272,-11.257939,3.451522522,11.9995086
14.26268992,-3.623065796,-11.49848877,4.854105835,12.9963146
14.27277192,-3.838168488,-12.6898613,5.449717255,14.33399928
14.28285392,-1.696721649,-14.0978334,1.607507172,14.29027118
14.29293617,-0.01197509766,-15.63962723,-4.455784149,16.26198314
14.30301817,1.534459076,-17.81595154,-9.235644379,20.12609801
14.31310017,4.864284668,-19.31598221,-9.678872681,22.14608341
14.32318217,8.522377625,-20.0154776,-6.760840759,22.78067672
14.33326417,9.56660614,-19.62943039,-0.303868103,21.83865441
14.34334617,7.631580048,-16.99790268,5.882467346,19.53901563
14.35342817,6.659950562,-14.40499466,7.646698608,17.61620879
14.36351017,6.637796631,-13.12994614,5.806425476,15.81677611
14.37359217,5.409151611,-12.28405518,1.654808807,13.5238798
14.38367417,2.726580048,-10.93730576,-0.9626481628,11.31307153
14.39375617,-0.8259823608,-9.438173218,-2.142943726,9.713576497
14.40383817,-3.629951477,-7.955207062,-1.871558075,8.942292589
14.41392017,-3.46230011,-6.728807373,-1.922601929,7.807737758
14.42400217,-0.7683522034,-6.198160858,-2.016456757,6.563052718
14.43408417,1.77740387,-6.047124939,-1.996847534,6.611677897
14.44416617,3.256627808,-5.831573181,-1.929038544,6.952270143
14.45424717,4.503983917,-6.139931946,-1.782792664,7.820676768
14.46432917,4.327650604,-6.483168182,-1.588796082,7.955143143
14.47441117,3.224444733,-6.878645782,-1.718576202,7.78885844
14.48449317,2.216440887,-6.931485901,-1.430275726,7.416454386
14.49457517,1.474882965,-6.11014389,-1.245260468,6.407793049
14.50465717,0.9023236084,-4.997208252,-1.411714325,5.270599164
14.51473917,1.118474121,-3.678300934,-1.783990173,4.238337299
14.52482117,1.89431076,-2.22781723,-2.152074738,3.6308413
14.53490317,2.675835571,-1.149609375,-2.344424744,3.738719714
14.54498517,3.214864655,-0.674197998,-2.045196991,3.869460999
14.55506717,3.649261322,-0.6727011108,-1.588796082,4.036571314
14.56514917,3.779041443,-1.393751678,-0.9851014709,4.14657966
14.57523117,3.941753082,-2.198328552,-0.08128097534,4.514052767
14.58531317,3.974235535,-3.069516907,0.809815979,5.086480517
14.59539517,3.612288208,-4.035907288,1.479822693,5.614895274
14.60547717,2.694546661,-5.468428345,2.802172852,6.709430897
14.61555917,1.491498413,-7.999215546,5.094655609,9.600392317
14.62564117,0.3749702454,-12.24678268,8.906927948,15.14785973
14.63572317,-2.015858002,-17.72898239,14.35230423,22.89910777
14.64580517,-8.652906189,-25.58060486,27.83671326,38.78302123
14.65588717,-16.34750519,-33.44629807,25.00190826,44.8440765
14.66596917,-15.54023392,-33.60466873,8.508456573,37.98903084
14.67605117,-8.928782501,-22.33714966,4.162843323,24.41312508
14.68613317,-4.605323181,-10.73836945,4.157155151,12.40175467
14.69621417,-1.763782196,-4.59723999,2.179617462,5.38481898
14.70629617,1.257235565,-2.853067017,-0.9862989807,3.270079257
14.71637817,6.050118713,-5.385351105,-2.917133789,8.609042485
14.72646017,11.32245483,-10.08228378,-6.502328339,16.49638456
14.73654217,13.6333493,-13.89799896,-9.007967834,21.45148183
14.74662417,12.2267244,-13.50401825,-7.390132141,19.65872202
14.75670617,10.22014709,-10.77010345,-1.585802307,14.93188883
14.76678817,7.135511627,-8.680748291,11.68021088,16.20796851
14.77687017,1.019679565,-8.111781464,9.192084961,12.30183608
14.78695217,-3.411405945,-7.16095871,2.154020691,8.219295913
14.79703417,-4.760999451,-5.282215576,1.197659454,7.211331731
14.80711617,-2.620750122,-5.135670319,-2.799628143,6.409474125
14.81719817,0.3080593872,-7.129823456,-7.683222656,10.48623829
14.82728017,4.339026947,-9.447004852,-9.17352356,13.86458041
14.83736217,5.758076019,-10.19814285,-7.462880859,13.88712165
14.84744417,4.875661011,-10.29124924,-5.423222351,12.61321616
14.85752617,2.56716156,-10.37492523,-3.223247223,11.16327527
14.86760817,-0.0245489502,-10.64765808,-1.208586731,10.71605838
14.87769017,-1.866917725,-11.63590302,0.6747967529,11.80402353
14.88777217,-3.177592163,-12.38793915,1.420396271,12.86762036
14.89785417,-3.582649841,-12.38255035,1.001716919,12.92928343
14.90793617,-2.92641449,-11.65191971,0.2460882568,12.0163095
14.91801817,-1.433568878,-10.4550087,-0.3131488037,10.55748023
14.92810017,-0.1119671631,-9.091045074,-0.7246430969,9.120567132
14.93818217,0.8613088989,-7.652985535,-1.660047913,7.87818505
14.94826417,1.464105377,-7.059769135,-2.307002563,7.570086236
14.95834517,2.237696686,-7.32471817,-2.302511902,7.997521103
14.96842717,2.628384247,-7.885751495,-1.36665802,8.423849152
14.97850917,2.490970001,-8.433761902,-0.2339634705,8.797045542
14.98859117,1.963167572,-8.852141876,0.4508624268,9.078420548
14.99867317,1.038839722,-9.171876984,0.4963677979,9.243857223
15.00875517,0.264200592,-9.038504333,0.4719685364,9.054673757
15.01883717,-0.4526586914,-8.603808289,0.3650907898,8.623439467
15.02891917,-0.793200531,-8.2771875,0.216000824,8.317911778
15.03900117,-0.9386979675,-8.134833527,0.05014572144,8.188967271
15.04908317,-0.9648934937,-8.021968231,-0.4090992737,8.090139428
15.05916517,-0.6839277649,-7.888595581,-0.8695417786,7.965789373
15.06924717,-0.4379891968,-7.871531067,-1.093326416,7.959158154
15.07932917,-0.305514679,-7.922724609,-0.9376501465,7.983864494
15.08941117,-0.3881428528,-8.37074295,-0.482895813,8.393639305
15.09949317,-0.5661227417,-9.267977142,0.2134561157,9.28770471
15.10957517,-0.6216572571,-10.16251694,0.928818512,10.22379147
15.11965717,-0.6747967529,-10.84449875,1.467548218,10.9641325
15.12973917,-0.8315208435,-11.29206802,1.733096008,11.45451217
15.13982117,-1.232985992,-11.80160843,1.691332855,11.98577585
15.14990317,-1.589694214,-12.41428436,1.212927704,12.57429034
15.15998517,-2.238744507,-12.78715897,0.9047186279,13.0131444
15.17006717,-2.859204254,-12.6792334,0.8689430237,13.02662928
15.18014917,-3.474125519,-12.35246292,1.685195618,12.94189988
15.19023117,-3.97243927,-12.09335175,3.059936829,13.09170133
15.20031217,-4.082610168,-11.97839081,3.892505493,13.24013411
15.21039417,-4.171225891,-12.38210129,3.322041779,13.48152511
15.22047617,-4.716541901,-12.94687683,2.594853973,14.02143553
15.23055817,-5.133574677,-12.37371872,2.766247559,13.67898496
15.24064017,-5.125192108,-11.76313843,3.243904266,13.2348757
15.25072217,-4.426594849,-12.63327896,3.970343628,13.96273998
15.26080417,-2.449655914,-14.35469925,4.955145721,15.3821869
15.27088617,0.3049159241,-16.15021545,4.435875549,16.7511022
15.28096817,3.133883057,-17.40520569,-1.762734375,17.77272181
15.29104992,5.927074585,-18.40198288,-8.241561584,21.01633946
15.30113192,8.598269806,-18.78548538,-9.013057251,22.54018424
15.31121392,10.77294754,-18.02761139,-5.856870575,21.80261691
15.32129592,9.712253265,-15.9930423,0.6462062073,18.72225542
15.33137792,6.907685394,-13.92793671,5.450615387,16.47460915
15.34145992,5.945935364,-12.71036865,5.220992889,14.97218706
15.35154192,5.546715546,-12.50634293,2.922971649,13.98994031
15.36162392,4.3117836,-12.55738678,0.6917115784,13.29503311
15.37170592,0.9086105347,-11.90908493,-1.896256714,12.09329014
15.38178792,-2.325414276,-10.73792038,-1.930834808,11.15520545
15.39186992,-3.590882721,-9.940528564,-1.240021362,10.64171978
15.40195192,-2.462229767,-9.072932739,-1.742825775,9.561282634
15.41203392,-0.03652404785,-8.392298126,-1.807042236,8.584719185
15.42211592,1.410067749,-7.964188385,-1.039288788,8.154551421
15.43219792,2.179467773,-7.593409424,-0.9508227539,7.95701014
15.44227992,2.392923889,-7.331304474,-1.471290436,7.851038503
15.45236092,2.178270264,-7.271728363,-1.350491638,7.710170062
15.46244292,1.883383484,-6.649921417,-1.399888916,7.051827932
15.47252492,1.287322998,-5.787714386,-1.472338257,6.109224031
15.48260692,0.4716691589,-4.386178894,-1.54448822,4.674021924
15.49268892,-0.0983454895,-3.234623566,-1.792073364,3.699187531
15.50277092,0.2032772827,-2.436333618,-1.802252197,3.037294213
15.51285292,0.8536747742,-1.497186584,-1.95867691,2.608973654
15.52293492,1.587598572,-0.7337741089,-1.888173523,2.573731323
15.53301692,2.0371138,-0.5276527405,-1.710942078,2.712115934
15.54309892,2.600841522,-0.5755531311,-1.432970123,3.024738237
15.55318092,2.886297913,-1.188678131,-0.8378077698,3.231964294
15.56326292,3.365750885,-1.872755585,-0.159717865,3.854997055
15.57334492,3.679498444,-2.4724086,0.475411377,4.458422261
15.58342692,3.673660583,-3.59687027,1.169967041,5.27276784
15.59350892,3.267106018,-5.338498535,2.446362762,6.719988029
15.60359092,2.087708588,-8.213270416,5.219496002,9.952862734
15.61367292,0.1977388,-12.41233841,9.668544159,15.73486548
15.62375492,-2.511926422,-17.80203049,14.38867859,23.0272911
15.63383692,-6.769672394,-25.67116653,26.16319336,37.27398479
15.64391892,-10.84734283,-32.479758,22.90806244,41.19925789
15.65400092,-10.81800385,-30.99903717,9.428892517,34.15953054
15.66408292,-6.899751892,-19.61625778,5.5871315,21.53184116
15.67416492,-4.04728363,-10.34094589,4.834047546,12.11130391
15.68424692,-2.65143631,-5.536686401,4.299658813,7.494803315
15.69432792,-1.524729309,-3.028352509,1.915566559,3.894241084
15.70440992,0.5563929749,-3.119063873,-2.465672607,4.014682303
15.71449192,4.415966949,-6.018235016,-7.396718445,10.50863267
15.72457392,8.816216583,-9.979597321,-11.19192627,17.3947478
15.73465592,11.43277542,-13.15703979,-11.08923981,20.65883079
15.74473792,10.90557175,-13.16108139,-8.159382477,18.9399335
15.75481992,9.723330231,-11.97270264,3.071313171,15.72646571
15.76490192,5.214406586,-13.08294388,23.93657364,27.77252265
15.77498392,1.178798676,-12.43404327,16.11384109,20.38751759
15.78506592,0.7746391296,-8.909622345,-0.8836125183,8.986779579
15.79514792,-2.742447052,-5.529201965,-7.790848846,9.939336797
15.80522992,-4.041595459,-4.771777039,-9.813143463,11.63624229
15.81531192,-0.6212081909,-5.988596649,-9.733658752,11.44523054
15.82539392,3.157833252,-7.535030823,-8.349337463,11.68161104
15.83547592,4.315376129,-8.631650391,-7.219337311,12.0518335
15.84555792,4.022435303,-9.658515015,-6.201004944,12.16221034
15.85563992,2.630779266,-10.65050217,-3.741319885,11.5910168
15.86572192,0.9713301086,-11.53411469,-0.5417234802,11.58761184
15.87580392,-0.9117539978,-12.63851807,2.281256104,12.87507529
15.88588592,-1.860181732,-13.18637878,3.217409363,13.70009433
15.89596792,-1.926493835,-12.59810211,2.762804718,13.04057687
15.90604992,-1.192420349,-11.14088242,1.679357758,11.32966768
15.91613192,-0.1350192261,-9.544901276,0.3845503235,9.553598772
15.92621392,0.5284011841,-8.146658936,-0.8743318176,8.210463796
15.93629592,0.8138575745,-7.091652832,-2.294877777,7.498024277
15.94637792,1.690883789,-6.658154297,-3.201692047,7.57898005
15.95645992,2.93809021,-7.299570465,-2.705324249,8.320750107
15.96654092,3.416794739,-8.199049988,-1.687141571,9.041313714
15.97662292,3.273093567,-9.154812469,-0.653840332,9.74429269
15.98670492,2.555036774,-9.735005951,-0.01511856079,10.06472962
15.99678692,1.846709747,-9.617500305,0.4409829712,9.803117616
16.00686892,0.7747888184,-9.042246552,1.030906219,9.13374447
16.01695092,-0.3203338623,-8.292006683,1.173260193,8.380723602
16.02703292,-1.103954315,-7.877368927,0.7213499451,7.986989551
16.03711492,-1.492097168,-7.809260559,-0.2790197754,7.955423086
16.04719692,-1.388213196,-8.025710449,-1.136287079,8.2237651
16.05727892,-1.243613892,-8.449030151,-1.168769531,8.619669844
16.06736092,-1.207987976,-8.909472656,-0.4287084961,9.001207082
16.07744292,-1.170416107,-9.427695007,0.4058061218,9.508732072
16.08752492,-1.236578522,-10.05848328,1.386267242,10.2285849
16.09760692,-1.116378479,-10.70768326,2.338137817,11.0166996
16.10768892,-1.100062408,-11.31691635,2.674488373,11.68056596
16.11777092,-1.396146698,-12.07748474,2.0371138,12.32739615
16.12785292,-1.957329712,-12.43404327,1.159039764,12.64040921
16.13793492,-2.532882843,-12.1762793,0.6367758179,12.45322273
16.14801692,-3.30782135,-11.94590836,0.5071453857,12.40578917
16.15809892,-3.969744873,-11.95518906,0.6438111877,12.61348138
16.16818092,-4.319866791,-12.04395447,1.036893768,12.83718182
16.17826292,-4.416715393,-12.52340744,1.825903015,13.4043661
16.18834492,-4.115990753,-13.0998587,2.633473663,13.98151857
16.19842692,-3.946992188,-13.67780685,2.883453827,14.5249941
16.20850892,-4.108057251,-13.5206337,2.905458069,14.4265504
16.21858992,-3.655847626,-12.03602097,3.066523132,12.9473776
16.22867192,-3.021616516,-10.78731766,3.657494202,11.78446657
16.23875392,-2.131717072,-11.51151169,4.495301971,12.54060839
16.24883592,-0.4134402466,-12.98819092,4.884043579,13.88228792
16.25891792,1.596879272,-14.69928268,3.670816498,15.23462598
16.26899992,3.576662292,-16.84686676,-0.8756790161,17.2446005
16.27908192,5.920787659,-18.7441713,-5.586233368,20.43540279
16.28916404,9.126371613,-19.22227707,-7.728728027,22.63890084
16.29924604,11.50043472,-18.36021973,-6.353088684,22.57696621
16.30932804,10.43495041,-15.66342773,-1.173260193,18.85756341
16.31941004,7.300917664,-12.94852341,3.943699036,15.37922037
16.32949204,5.682483215,-11.47393982,5.727389832,14.02657851
16.33957404,5.057532806,-11.21572678,3.510948944,12.7944491
16.34965604,3.094514923,-11.48381927,-0.06466552734,11.89362474
16.35973804,0.3514691162,-10.77249847,-1.78084671,10.92436126
16.36982004,-2.641556854,-9.338181152,-2.192341003,9.949161217
16.37990204,-4.320764923,-8.601562958,-1.695823517,9.774032547
16.38998404,-3.626957703,-8.329279175,-1.41575592,9.194350362
16.40006604,-1.254391479,-7.945177917,-1.16308136,8.127244821
16.41014804,1.021176453,-6.95962738,-0.9554631042,7.098741041
16.42023004,2.631378021,-6.001469879,-0.1658551025,6.555097171
16.43031204,3.321143646,-5.767207031,0.09624984741,6.655819716
16.44039404,2.869682465,-5.817951508,-0.6333329773,6.518032514
16.45047604,2.17752182,-6.205645294,-1.194965057,6.684278292
16.46055804,1.119222565,-6.1909758,-1.019679565,6.373428192
16.47064004,0.3393443298,-5.516628113,-1.021625519,5.620681365
16.48072104,-0.03622467041,-4.350552979,-1.358724518,4.557933277
16.49080304,0.3797602844,-3.019670563,-1.772015076,3.521741843
16.50088504,1.20170105,-1.834584961,-1.78443924,2.827368174
16.51096704,1.661095734,-1.225800934,-1.493144989,2.547804726
16.52104904,2.482587433,-1.125210114,-1.160536652,2.962462402
16.53113104,2.978805542,-1.342707825,-0.8351133728,3.372471068
16.54121304,2.907853088,-1.711989899,-0.1285826111,3.376840607
16.55129504,2.616858215,-2.336341553,0.7873626709,3.595327349
16.56137704,2.643353119,-3.197051697,1.672472076,4.472764035
16.57145904,2.417173462,-4.429588623,2.484533386,5.624667907
16.58154104,1.746418304,-6.171366577,3.66467926,7.386854297
16.59162304,0.7210505676,-8.649014282,5.623655548,10.34170507
16.60170504,-0.2856060791,-12.90870621,9.747280426,16.17793999
16.61178704,-3.720962219,-19.16794006,18.93083313,27.1961749
16.62186904,-10.23152344,-28.38472366,27.0265979,40.50695747
16.63195104,-13.81986145,-35.04676987,16.55512344,41.15017328
16.64203304,-11.05017105,-30.53036179,8.647218018,33.60035194
16.65211504,-7.550299072,-16.55287811,7.918233948,19.84195602
16.66219704,-5.473966827,-7.810158691,5.558091888,11.03880777
16.67227904,-2.78480896,-3.694617004,1.253493347,4.793391422
16.68236104,2.64320343,-4.311035156,-3.227887573,5.999233841
16.69244304,9.365873566,-9.193581848,-8.36730011,15.56448669
16.70252504,14.14348846,-14.50753143,-13.67436401,24.44371014
16.71260704,14.04184982,-15.69097046,-13.26212128,24.88501479
16.72268904,12.12837891,-12.653936,-3.765120392,17.92751525
16.73277104,7.503147125,-8.903634796,16.21907227,19.9657265
16.74285304,0.490380249,-8.026907959,13.95428192,16.10570421
16.75293504,0.9879455566,-6.393055573,1.676962738,6.682768887
16.76301604,0.04355941772,-3.09601181,-2.314936066,3.866020634
16.77309804,-1.265019379,-3.142714691,-7.064559174,7.834853284
16.78318004,0.7740403748,-6.472839661,-10.58164536,12.42851601
16.79326204,5.604944458,-10.04920258,-9.976004791,15.22900346
16.80334404,6.791826324,-11.08444977,-7.491471405,15.00386868
16.81342604,5.319637756,-10.96709381,-4.271367645,12.91589231
16.82350804,2.893932037,-11.17860397,-0.7899073792,11.57410831
16.83359004,-0.2865042114,-11.86956711,1.448687439,11.96107868
16.84367204,-2.057920532,-13.14192123,1.049168243,13.34338355
16.85375404,-2.889591064,-13.65191071,-0.0288899231,13.95439848
16.86383604,-3.535797272,-13.1821875,-0.4116439819,13.6543539
16.87391804,-2.884651337,-11.69922134,-0.2345622253,12.05188835
16.88400004,-1.403780823,-9.846074982,0.05897735596,9.945816783
16.89408204,0.2330653381,-8.274343414,-0.3541635132,8.285198259
16.90416404,1.231189728,-6.912325745,-1.460662537,7.171444094
16.91424604,1.377884674,-6.128705292,-2.170935516,6.646243732
16.92432804,2.095342712,-6.41446106,-2.715503082,7.273907393
16.93441004,2.880909119,-7.640112305,-1.73638916,8.347814127
16.94449204,2.573149109,-8.701105957,-0.1151106262,9.074336982
16.95457404,2.055525513,-9.181007996,0.6373745728,9.429864225
16.96465604,1.290765839,-9.033564606,0.8884025574,9.16845816
16.97473804,-0.06391708374,-8.513246613,0.8327183533,8.554114398
16.98482004,-1.114881592,-8.032147064,0.51717453,8.125627171
16.99490204,-1.25783432,-7.780520325,0.3291654968,7.888408814
17.00498404,-1.136736145,-7.793543243,0.04969665527,7.87616373
17.01506604,-0.784069519,-8.199049988,-0.1197509766,8.237325173
17.02514804,-0.2981799316,-8.52761673,-0.4845423889,8.546574734
17.03522904,0.03936813354,-8.835077362,-0.9457333374,8.885637478
17.04531104,0.2959346008,-9.258546753,-0.9045689392,9.307336366
17.05539304,0.2396516418,-9.845027161,-0.43409729,9.857506437
17.06547504,-0.1535806274,-10.6208638,0.7285350037,10.64692905
17.07555704,-0.4287084961,-11.10705276,2.236648865,11.33812199
17.08563904,-0.7444020081,-11.31796417,3.432961121,11.85055566
17.09572104,-1.370549927,-11.34041748,3.357967072,11.90627644
17.10580304,-2.247576141,-11.66090103,2.110461273,12.06160264
17.11588504,-3.474574585,-12.01611237,0.6828799438,12.52700882
17.12596704,-4.933889923,-12.22073685,-0.09610015869,13.17948839
17.13604904,-5.967789917,-12.33075806,0.4499642944,13.70637
17.14613104,-5.985153809,-12.25666214,2.19279007,13.81507008
17.15621304,-4.697082367,-11.73649384,4.28483963,13.34794819
17.16629504,-3.336561584,-11.18923187,5.35197052,12.84426493
17.17637704,-2.989882507,-11.54025192,4.585115204,12.77263063
17.18645904,-3.048560486,-11.72212372,3.531007233,12.61625608
17.19654104,-3.654051361,-11.96102692,4.556824036,13.31100678
17.20662304,-3.680246887,-13.11273193,5.273084564,14.60456698
17.21670504,-2.489622803,-14.68640945,4.338428192,15.51485751
17.22678704,-0.5514532471,-16.64224228,0.7981402588,16.67049359
17.23686904,0.9957293701,-18.54493561,-6.283633118,19.60587052
17.24695104,3.786076813,-19.85052063,-10.43779449,22.74478184
17.25703304,7.098688202,-20.10349457,-9.257498932,23.24313134
17.26711504,8.953630829,-19.55877731,-4.395459595,21.95525769
17.27719704,7.06845108,-17.16375778,2.568059692,18.73906381
17.28727904,5.846092987,-14.7123056,7.56811203,17.54722369
17.29736079,6.951544189,-13.85249359,6.885531464,16.95954271
17.30744279,6.766678619,-13.54338638,1.514550476,15.21529222
17.31752479,5.04660553,-12.34572693,-1.935026093,13.47699992
17.32760679,1.549128571,-10.4934787,-2.073937225,10.80805765
17.33768879,-2.199675751,-9.031169586,-1.228794708,9.37606175
17.34777079,-3.481160889,-8.110583954,-1.459315338,8.945929491
17.35785279,-2.398462372,-7.30256424,-1.797462158,7.893727664
17.36793479,-0.2956352234,-6.932234344,-1.570384369,7.114027007
17.37801679,1.022224274,-6.383625183,-1.307980042,6.595940019
17.38809879,2.168091431,-6.235882416,-1.478924561,6.765653539
17.39818079,2.662363586,-6.183191986,-1.950743408,7.008954476
17.40826279,2.739602966,-6.271059265,-1.942660217,7.113756915
17.41834479,2.700683899,-5.83292038,-1.939217377,6.713956934
17.42842679,1.732497253,-4.885540466,-1.690285034,5.45225787
17.43850879,0.9448352051,-3.787723389,-1.759740601,4.282084658
17.44859079,0.9395960999,-2.583028564,-2.087259521,3.451308405
17.45867279,1.425036621,-1.647324371,-2.531984711,3.339963103
17.46875479,2.048490143,-0.3968247986,-2.844834137,3.528011204
17.47883679,2.315534821,0.2131567383,-2.450554047,3.378217346
17.48891879,2.871329041,0.1610650635,-1.867815857,3.429170233
17.49900079,3.179538116,-0.6194119263,-1.092278595,3.418509368
17.50908279,3.559298401,-1.370549927,-0.1673519897,3.817724309
17.51916479,3.618275757,-2.301164703,0.9611512756,4.394438556
17.52924679,3.268303528,-3.816613312,2.208058319,5.488521355
17.53932879,2.636467438,-6.107299805,4.0251297,7.775071739
17.54941079,1.354832611,-9.740245056,7.592511292,12.42393548
17.55949279,-0.7945477295,-15.23965897,12.7283313,19.87181243
17.56957379,-3.787274323,-22.77648605,20.89085724,31.13743213
17.57965579,-8.398435364,-33.04198883,31.11309998,46.15551682
17.58973779,-10.79824493,-37.10708542,16.86423065,42.16562768
17.59981979,-8.27838501,-28.18488922,3.780388641,29.61774767
17.60990179,-5.799240417,-14.47055832,2.55309082,15.7970415
17.61998379,-4.496798859,-6.208040314,3.252137146,8.32690582
17.63006579,-2.921774139,-1.862427063,2.07453598,4.038452454
17.64014779,-0.8225395203,-1.550475769,-2.731070709,3.24642782
17.65022979,2.467019806,-5.09690094,-9.40748703,10.9802276
17.66031179,7.311695251,-10.08677444,-12.83206558,17.88479279
17.67039379,11.01738922,-13.21975937,-12.53433472,21.28977336
17.68047579,11.29940277,-13.32828369,-7.392676849,18.97291017
17.69055779,11.19626724,-13.34699478,13.54862549,22.06952475
17.70063979,4.872966614,-13.71448059,22.26170654,26.59729986
17.71072179,2.765948181,-10.60574524,3.582350464,11.53106831
17.72080379,1.279688873,-6.336772614,-4.471800842,7.860616613
17.73088579,-1.403182068,-4.285438385,-6.215375061,7.678853379
17.74096779,-1.000968475,-5.215454407,-8.008196869,9.609064452
17.75104979,2.750081177,-7.859106903,-7.84892807,11.44264741
17.76113179,4.714595947,-9.635912018,-7.127877502,12.87962938
17.77121379,4.801864471,-10.27523254,-5.874084778,12.7727514
17.78129579,3.705244904,-10.38435562,-5.328319702,12.24559808
17.79137779,2.193388824,-10.64900528,-4.151167603,11.63806085
17.80145979,0.7243437195,-11.41735748,-1.823657684,11.58475088
17.81154179,-1.25903183,-12.3262674,0.5743556213,12.40370563
17.82162379,-2.422861633,-12.69584885,2.023791504,13.08245269
17.83170579,-2.482288055,-12.01745956,1.607357483,12.37597214
17.84178779,-1.470541992,-10.77968353,0.7940986633,10.90846751
17.85186979,-0.6701564026,-9.494456177,0.2719844055,9.521963202
17.86195079,-0.1722917175,-8.00101181,-0.217048645,8.005809424
17.87203279,0.7200027466,-6.948251038,-1.229543152,7.092839544
17.88211479,1.628164215,-7.095544739,-2.039808197,7.560323494
17.89219679,2.13890213,-7.849227448,-1.692680054,8.309659416
17.90227879,1.977687378,-8.736133118,-1.272054749,9.047065408
17.91236079,1.599873047,-9.31737442,-0.9508227539,9.501427459
17.92244279,1.219064941,-9.493857422,-0.4942721558,9.584558051
17.93252479,0.790506134,-9.252708893,0.1056802368,9.287017288
17.94260679,0.3427871704,-8.750652924,0.8919950867,8.80267487
17.95268879,-0.09924362183,-8.270750885,1.541644135,8.413788453
17.96277079,-0.5034031677,-8.022267609,1.591640167,8.194114397
17.97285279,-0.8318202209,-7.974666595,1.085991669,8.09114393
17.98293479,-0.9364526367,-7.858358459,0.2618055725,7.918287907
17.99301679,-0.8979826355,-7.878267059,-0.4549040222,7.94231719
18.00309879,-0.8376580811,-8.461304626,-0.5920188904,8.523252514
18.01318079,-0.7119195557,-9.718540192,0.08038284302,9.744912227
18.02326279,-0.5944139099,-10.97622482,1.010099487,11.0386204
18.03334479,-0.6354286194,-11.50672165,2.008523254,11.69797326
18.04342679,-1.120420074,-11.62991547,2.746039581,12.00212516
18.05350879,-1.486708374,-11.69562881,2.584375763,12.06967412
18.06359079,-1.928888855,-11.91073151,1.359023895,12.14220257
18.07367279,-2.845732269,-11.84142563,0.2441423035,12.18101632
18.08375479,-4.12811554,-11.6626973,0.2118095398,12.37354878
18.09383679,-5.057981873,-11.78798676,1.205293579,12.88380941
18.10391879,-5.40226593,-12.12867828,3.05155426,13.62355671
18.11400079,-4.661007385,-12.24348953,4.621489563,13.891947
18.12408279,-3.511996765,-11.87959625,5.24778717,13.4535571
18.13416479,-3.151696014,-11.43457169,4.777165833,12.78686556
18.14424679,-3.392844543,-11.1172316,4.321064301,12.40063826
18.15432779,-3.396437073,-11.09298203,4.716541901,12.52341018
18.16440979,-2.785108337,-11.73799072,5.176535339,13.12759585
18.17449179,-1.432820435,-12.8955336,2.839295654,13.28191858
18.18457379,-0.4306544495,-14.40499466,-2.13545929,14.56878584
18.19465579,-0.2341131592,-16.52174286,-7.067552948,17.97145238
18.20473779,1.526076508,-18.47039062,-8.552015991,20.4113012
18.21481979,4.670288086,-19.5616214,-7.020101624,21.30141895
18.22490179,7.095993805,-19.34023178,-3.957919464,20.97767432
18.23498379,7.155270538,-17.79245041,1.175804901,19.21332104
18.24506579,7.407945099,-16.19676865,5.168003082,18.54511313
18.25514779,8.641978912,-15.16825745,6.125861206,18.50097319
18.26522979,8.898994446,-14.59225525,4.303700409,17.62520504
18.27531179,7.139104156,-13.20044952,0.3195854187,15.01068988
18.28539379,3.22938446,-11.03131027,-1.310973816,11.56881077
18.29547492,-1.01683548,-9.695188751,-0.9316625977,9.792784819
18.30555692,-3.925287323,-8.428822174,-0.785716095,9.331145353
18.31563892,-4.02857254,-7.068002014,-1.661395111,8.303389844
18.32572092,-2.000290375,-6.702462158,-1.653760986,7.187425545
18.33580292,-0.2314187622,-6.512357483,-1.287921753,6.642521891
18.34588492,1.258582764,-6.396947479,-1.425934753,6.67369894
18.35596692,2.741997986,-6.388265533,-1.706900482,7.158351677
18.36604892,3.010539551,-6.185886383,-1.637744293,7.071827564
18.37613092,2.855761414,-5.852679291,-1.795216827,6.755148525
18.38621292,2.428699493,-5.441184998,-1.624871063,6.176186637
18.39629492,1.324296112,-4.622836761,-1.175056458,4.950266416
18.40637692,0.7024891663,-3.776945801,-1.148411865,4.009695802
18.41645892,0.7881111145,-2.759511566,-1.412462769,3.198605053
18.42654092,1.490450592,-1.601968689,-1.783990173,2.823183945
18.43662292,2.129471741,-0.6101312256,-2.043999481,3.014107478
18.44670392,2.729274445,-0.2409988403,-1.712139587,3.230857688
18.45678592,3.481909332,-0.8161029053,-1.014739838,3.717447174
18.46686792,3.787424011,-1.713187408,-0.3326083374,4.170158276
18.47694992,4.184847565,-2.551593933,0.2818638611,4.909483473
18.48703192,4.391268311,-3.553161163,0.9846524048,5.733910706
18.49711392,4.027375031,-5.011728058,2.029180298,6.742013085
18.50719592,3.135230255,-7.310946808,3.95372818,8.883218927
18.51727792,1.878892822,-11.11498627,7.558382263,13.57211481
18.52735992,0.3588038635,-16.06459351,11.30074997,19.64451207
18.53744192,-2.955903168,-22.31439697,18.78114441,29.315543
18.54752392,-8.875193939,-30.22514648,26.54759399,41.19591356
18.55760592,-13.55730743,-33.93113983,16.31292709,40.01542734
18.56768792,-11.96836166,-26.69548645,7.220235443,30.13341132
18.57776992,-6.638844452,-14.90540405,5.387895813,17.18356037
18.58785192,-3.779789886,-7.885601807,3.536845093,9.432857502
18.59793392,-2.208806763,-3.719615021,0.6099815369,4.368803119
18.60801592,0.4959187317,-2.809507599,-2.871778107,4.048009119
18.61809792,4.737049255,-5.386099548,-5.864804077,9.265291731
18.62817992,8.475075989,-9.555080109,-9.047186279,15.65177461
18.63826192,10.55350388,-13.21032898,-10.20787262,19.75069364
18.64834392,9.783505096,-13.06947189,-8.122858429,18.23482648
18.65842592,8.59662323,-10.62789917,-1.81243103,13.78909272
18.66850792,6.765930176,-9.924362183,14.23629547,18.62640289
18.67858992,2.141746216,-9.883796539,14.72413101,17.86271382
18.68867192,1.171763306,-8.170609131,5.786965942,10.08071712
18.69875392,0.3528163147,-5.563480682,0.3399430847,5.585011903
18.70883592,-0.1926493835,-5.01142868,-4.556225281,6.775744978
18.71891792,0.3121009827,-6.212381287,-9.020092621,10.95687725
18.72899892,2.878813477,-8.317453766,-9.450597382,12.91438713
18.73908192,3.771856384,-9.841883698,-8.025261383,13.24742977
18.74916292,2.808908844,-10.62715073,-6.821913757,12.93695516
18.75924492,1.470991058,-10.96664474,-5.623356171,12.41181881
18.76932692,0.2805166626,-11.2366832,-3.594624939,11.80097739
18.77940892,-0.8170010376,-11.43337418,-1.108594666,11.51601137
18.78949092,-2.054477692,-11.61150375,1.106199646,11.84363017
18.79957292,-2.621348877,-11.57198593,2.050436096,12.04103885
18.80965492,-1.850002899,-11.05002136,1.748963013,11.33950415
18.81973692,-0.6598278809,-10.04965164,0.7942483521,10.10255915
18.82981892,-0.0773890686,-8.796906738,-0.4918771362,8.810987479
18.83990092,0.9672885132,-7.759563904,-1.949096832,8.058874457
18.84998292,2.020348663,-7.213349762,-3.156486053,8.128814656
18.86006492,2.700983276,-7.444319458,-2.974763947,8.45945763
18.87014692,3.200494537,-8.041278076,-1.80898819,8.841818628
18.88022892,3.163371735,-8.75574234,-0.1984872437,9.311785105
18.89031092,2.26299408,-9.276210022,0.9092092896,9.591448071
18.90039292,1.372196503,-9.299711151,1.554217987,9.528018907
18.91047492,0.279768219,-8.915909271,1.853595428,9.110846525
18.92055692,-0.5812413025,-8.513845367,1.867516479,8.73561802
18.93063892,-1.15020813,-8.284971313,1.42638382,8.485181154
18.94072092,-1.350791016,-8.15429306,0.4001179504,8.27509674
18.95080292,-1.082548828,-8.216413879,-0.7987390137,8.325824465
18.96088492,-0.3520678711,-8.531658325,-1.922751617,8.752720683
18.97096692,0.1465452576,-9.024283905,-2.168989563,9.28243994
18.98104892,0.01945953369,-9.611961823,-1.493743744,9.727356225
18.99113092,-0.3847000122,-10.3860022,-0.2531236267,10.39620639
19.00121292,-0.7472460938,-11.10241241,1.19002533,11.19098291
19.01129492,-1.272803192,-11.43726608,2.719095612,11.82474373
19.02137692,-1.710193634,-11.5618071,3.822750549,12.29689259
19.03145892,-1.741777954,-11.70715485,3.316952362,12.29200708
19.04154092,-1.710792389,-12.24139389,1.556613007,12.45799258
19.05162192,-2.349813538,-12.53837631,-0.08547225952,12.75695143
19.06170392,-3.392694855,-12.54870483,-0.6018983459,13.01317229
19.07178592,-4.238436127,-12.49332001,0.1850152588,13.19399925
19.08186792,-4.198020172,-12.35291199,2.297123108,13.24743683
19.09194992,-3.403322754,-11.86807022,4.515210571,13.14613339
19.10203192,-2.70637207,-11.38846756,5.247038727,12.82782361
19.11211392,-3.219355316,-11.52184021,4.156556396,12.66467574
19.12219592,-4.135899353,-11.51226013,2.673290863,12.521353
19.13227792,-4.731211395,-10.78597046,2.695145416,12.08243886
19.14235992,-4.911436615,-10.98894836,3.964056702,12.67252703
19.15244192,-3.981420593,-12.67608994,3.653452606,13.77979252
19.16252392,-1.585353241,-14.47504898,1.61124939,14.65047823
19.17260592,0.506995697,-16.5982338,-2.560425568,16.80220786
19.18268792,2.787203979,-18.96241745,-8.284073181,20.87983836
19.19276992,6.4179039,-19.96518219,-9.916129303,23.19757769
19.20285192,9.479786682,-19.83929398,-6.488856354,22.92529602
19.21293392,9.58531723,-18.52951767,0.5981561279,20.87053239
19.22301592,8.316855011,-16.3645697,6.585854645,19.50237678
19.23309792,8.278834076,-14.72652603,7.503596191,18.48549752
19.24317992,8.247848511,-13.53021378,3.91391098,16.32214413
19.25326192,6.723568268,-12.28884521,-0.390687561,14.0133766
19.26334392,2.572700043,-10.90108109,-1.824256439,11.34813931
19.27342592,-1.743574219,-9.606573029,-1.0683284,9.821793216
19.28350792,-4.048181763,-8.52881424,-1.427731018,9.548134047
19.29358954,-3.152594147,-7.499554596,-2.018253021,8.381856253
19.30367154,-1.127754822,-6.907685394,-1.967358856,7.270381648
19.31375354,0.3538641357,-6.721472626,-1.596579895,6.917548803
19.32383554,1.796414337,-6.801256714,-1.653910675,7.226314267
19.33391754,2.596051483,-6.879693604,-1.739532623,7.556165769
19.34399954,2.270328827,-6.801406403,-1.441352692,7.313755507
19.35408154,1.941612396,-6.485413513,-1.562450867,6.947783808
19.36416354,1.476828918,-5.622907104,-1.457818451,5.993608479
19.37424454,0.7152127075,-4.339625702,-1.327589264,4.594167357
19.38432654,0.5671705627,-3.15573761,-1.682052155,3.62072669
19.39440854,0.9536668396,-2.029779053,-2.007774811,3.01009022
19.40449054,1.638642426,-1.080303497,-2.256856842,2.990920837
19.41457254,2.156715088,-0.5480104065,-2.307301941,3.205522987
19.42465454,2.946472778,-0.2171983337,-1.848056946,3.484851708
19.43473654,3.401825867,-0.4980143738,-1.204694824,3.643038178
19.44481854,3.692970428,-1.189875641,-0.669407959,3.937250518
19.45490054,3.818409576,-1.762584686,-0.02739303589,4.205675552
19.46498254,3.732787628,-2.547702026,0.93256073,4.614559416
19.47506454,3.469784546,-3.829935608,2.201771393,5.617437923
19.48514654,3.121159515,-5.891748047,3.640279999,7.596444579
19.49522854,2.06166275,-9.28459259,6.456074524,11.4949994
19.50531054,0.2662962341,-14.21923096,11.06918152,18.02177078
19.51539254,-3.18612442,-20.57366684,16.23299332,26.39956871
19.52547454,-9.115294647,-29.61606308,29.87502457,43.04319786
19.53555654,-13.57991043,-36.2367952,21.95649124,44.49277246
19.54563854,-10.22358994,-31.47863983,6.161936188,33.6659474
19.55572054,-6.206244049,-17.47196686,3.505111084,18.86989387
19.56580254,-4.779710541,-7.428302765,3.493435364,9.498916015
19.57588454,-3.538192291,-1.800455933,2.489173737,4.685769109
19.58596654,-1.587299194,-0.3218307495,-1.77156601,2.400320789
19.59604854,1.596579895,-3.04691391,-8.089028778,8.790059062
19.60613054,6.395151215,-8.172255707,-12.26579315,16.06653055
19.61621254,11.02681961,-12.60064682,-12.77458511,21.06079476
19.62629454,12.4722139,-14.17701874,-9.19223465,21.00097992
19.63637654,12.87442749,-14.97845215,6.897356873,20.92076585
19.64645854,6.081553345,-15.66926559,24.97631149,30.10527049
19.65654054,0.01751358032,-12.41039246,8.398435364,14.98505469
19.66662254,-1.171763306,-7.715405731,-4.212839355,8.868400661
19.67670454,-3.044818268,-3.993844757,-6.118676147,7.915801414
19.68678554,-2.481988678,-3.616329803,-7.991581421,9.116111158
19.69686754,0.9431886292,-5.925428009,-7.778125305,9.823417692
19.70694954,4.049079895,-8.699010315,-7.203470306,11.99824208
19.71703154,5.000202026,-10.29424301,-7.019652557,13.42568365
19.72711354,4.214485931,-11.00780914,-6.185137939,13.31126159
19.73719554,2.878663788,-11.24237137,-4.41821228,12.41765755
19.74727754,1.75510025,-11.97015793,-1.719324646,12.21970274
19.75735954,0.3453318787,-12.98938843,1.235979767,13.05262854
19.76744154,-0.9253756714,-13.30268692,3.369642792,13.75399186
19.77752354,-1.221160583,-12.59376114,3.601660309,13.15545551
19.78760554,-0.5891748047,-11.37978561,2.583926697,11.68431961
19.79768754,0.5167254639,-9.820178833,1.13493988,9.899040663
19.80776954,0.6601272583,-8.201594696,0.04415817261,8.228236354
19.81785154,0.9877958679,-7.012467499,-0.8181985474,7.12880705
19.82793354,1.73758667,-6.223308563,-2.461331635,6.914255587
19.83801554,1.641486511,-6.134243774,-2.304008789,6.755137389
19.84809754,1.112187195,-6.806196442,-1.582808533,7.07577227
19.85817954,1.088237,-7.89922348,-1.176253967,8.060121882
19.86826154,0.9280700684,-8.835526428,-0.7041357422,8.91199464
19.87834354,0.9714797974,-8.940158844,0.113613739,8.993504391
19.88842554,0.5545967102,-8.625363464,0.966839447,8.697082897
19.89850754,0.06661148071,-8.113577728,1.494492188,8.250338632
19.90858954,-0.5318440247,-7.698790283,1.418300629,7.846388122
19.91867154,-0.8797206116,-7.336842957,0.6682104492,7.41954703
19.92875354,-0.7533833313,-7.39492218,-0.03338058472,7.433274834
19.93883554,-0.573457489,-8.18707489,-0.4296066284,8.218370313
19.94891754,-0.629740448,-9.401200104,-0.08352630615,9.422638328
19.95899954,-0.9249266052,-10.53284683,0.5361849976,10.58696585
19.96908154,-0.9922865295,-11.56914185,1.420096893,11.6981345
19.97916354,-1.050216064,-12.43389359,2.351460114,12.69779619
19.98924554,-1.057999878,-12.59406052,2.770438843,12.93851056
19.99932754,-1.097817078,-12.43254639,2.208507385,12.67481427
