Time (s),Acceleration x (m/s^2),Acceleration y (m/s^2),Acceleration z (m/s^2),Absolute acceleration (m/s^2)
50.00581021,0.2942880249,-9.250014496,0.3213816833,9.260273203
50.01589321,0.05523513794,-9.657467194,0.6508465576,9.679531226
50.02597521,-0.06391708374,-9.720186768,0.6905140686,9.744892296
50.03605821,-0.1676513672,-9.315129089,0.7176077271,9.344233397
50.04614021,-0.2287243652,-8.916957092,0.6363267517,8.942558379
50.05622221,0.1429527283,-8.364156647,0.2276765442,8.368475877
50.06630521,0.966839447,-7.866291962,-0.5122348022,7.942021924
50.07638721,1.518592072,-7.56811203,-1.071621552,7.792997775
50.08647021,1.809886322,-7.611072693,-0.749790802,7.859154044
50.09655221,1.525926819,-8.230933685,0.3376977539,8.377992705
50.10663421,0.7920030212,-9.341773682,1.316512299,9.467270406
50.11671796,0.1664538574,-10.66172882,1.874701538,10.8265726
50.12679996,-0.4328997803,-11.527229,1.840273132,11.68122493
50.13688296,-1.14077774,-11.88708069,1.322499847,12.01470212
50.14696496,-1.696422272,-12.04096069,1.007554779,12.20154702
50.15704796,-1.950294342,-12.23271194,0.7334747314,12.40890304
50.16712996,-2.36702774,-12.33105743,0.3279679871,12.56046817
50.17721196,-2.897674255,-12.65184036,0.6532415771,12.99585723
50.18729496,-3.126847687,-13.18592972,1.869612122,13.6799623
50.19737696,-2.948867798,-13.49608475,3.546724548,14.2625166
50.20745996,-2.275717621,-13.33531906,5.038672028,14.43599117
50.21754196,-1.344354401,-12.90631119,5.763165436,14.1983884
50.22762396,-1.108444977,-12.51487518,5.889951782,13.87596062
50.23770696,-1.545536041,-11.59518768,5.386548615,12.87835257
50.24778896,-1.724414063,-10.70932983,5.768404541,12.28567622
50.25787196,-1.519340515,-11.40807678,6.850055237,13.39312765
50.26795396,-1.248254242,-12.40560242,4.096231842,13.12387996
50.27803596,-1.455722809,-13.37154373,-1.62292511,13.54810675
50.28811896,-1.158890076,-15.16406616,-6.033353577,16.36133504
50.29820096,-0.2218386841,-16.92186081,-8.452323303,18.9166687
50.30828396,1.3549823,-17.83406387,-8.930878143,19.99125798
50.31836596,2.734962616,-17.89813065,-7.81734375,19.72140878
50.32844896,4.203558655,-17.13112564,-3.362008667,17.95685032
50.33853096,6.018684082,-16.1747644,3.418740692,17.59361673
50.34861296,7.129673767,-15.687827,7.450007629,18.77345939
50.35869596,7.544161835,-13.77226044,6.312223663,16.92435236
50.36877796,7.562124481,-11.66479294,2.426304474,14.11169991
50.37886096,6.592141571,-9.954150238,0.6011499023,11.9541967
50.38894296,3.624263306,-8.77565094,-0.4372407532,9.504657459
50.39902496,0.1155596924,-7.796686707,-1.67905838,7.976271979
50.40910796,-1.64283371,-7.411238251,-2.109413452,7.878767678
50.41918996,-1.208137665,-7.294930115,-1.531764679,7.551284992
50.42927296,0.7318281555,-7.107370148,-1.24496109,7.252600291
50.43935496,2.283501434,-7.075636139,-1.763033752,7.641157869
50.44943696,3.404370575,-7.082821198,-1.857038269,8.074941873
50.45951996,3.484454041,-7.157066803,-1.277593231,8.062088417
50.46960196,3.083288269,-6.919660492,-0.9154962158,7.630629148
50.47968496,2.453547821,-6.400989075,-1.01683548,6.930116337
50.48976696,1.570983124,-5.644911346,-0.9357041931,5.93367967
50.49984896,0.8321195984,-4.759801941,-0.9895921326,4.932284474
50.50993196,0.5102888489,-3.86481308,-1.258133698,4.096349015
50.52001396,0.980760498,-3.109184418,-1.611099701,3.63655897
50.53009696,1.633553009,-2.490520935,-2.27227478,3.746254481
50.54017896,2.343825989,-2.064955902,-2.429897003,3.957519752
50.55026196,3.102747803,-2.156116333,-1.932331696,4.243793981
50.56034396,3.745062103,-2.299667816,-1.086141357,4.526992961
50.57042596,3.827839966,-2.870430908,-0.1119671631,4.785840475
50.58050896,3.772604828,-3.693269806,0.6536906433,5.319783878
50.59059096,3.326981506,-4.738246765,1.231638794,5.919182585
50.60067396,2.562221832,-6.099815369,2.182012482,6.966628074
50.61075596,1.467099152,-8.145461426,4.716841278,9.526253902
50.62083796,0.5040019226,-11.19072876,9.26124115,14.5346832
50.63092096,-0.7035369873,-15.36599625,14.88669296,21.40613072
50.64100296,-4.412524109,-21.36746613,24.6417572,32.91284211
50.65108596,-8.667725372,-27.95781143,26.71494598,39.62899219
50.66116796,-8.571475525,-28.61763931,13.09581711,32.61809158
50.67124996,-5.560786285,-20.46843567,5.679190063,21.95751358
50.68133296,-2.886447601,-12.36877899,4.098926239,13.34614063
50.69141496,-0.4400848389,-7.623047791,2.990930328,8.200621715
50.70149796,0.943787384,-4.175117798,1.068178711,4.411728574
50.71157996,1.541943512,-2.138303375,-2.544408875,3.663870582
50.72166296,3.660787354,-3.183280334,-5.44792099,7.294825622
50.73174496,7.67454071,-7.42186615,-7.187004547,12.86995364
50.74182696,10.6540947,-12.32102829,-8.800349579,18.51387654
50.75190996,11.89785828,-14.7468837,-8.237519989,20.66122808
50.76199196,11.9400705,-14.81499207,-4.666994934,19.59158276
50.77207496,8.967402191,-14.59330307,7.865393829,18.84789688
50.78215696,0.01916015625,-14.33658691,28.15076019,31.59119167
50.79223896,-0.8831634521,-10.88671097,5.037025452,12.02797068
50.80232196,-0.9714797974,-5.829178162,-9.121581573,10.86859427
50.81240396,-2.16000824,-3.583547974,-7.401807861,8.502600266
50.82248696,-1.253643036,-3.647914124,-6.809489594,7.826113137
50.83256896,0.946481781,-5.993536377,-7.450606384,9.608841843
50.84265096,2.580334167,-8.779842224,-8.740623779,12.65473263
50.85273396,3.192261658,-10.23721161,-8.744365997,13.83672551
50.86281596,3.074306946,-10.86994583,-7.388335876,13.49794772
50.87289896,2.787054291,-11.4794783,-4.650978241,12.69557767
50.88298096,2.320474548,-12.1310733,-0.8195457458,12.37817421
50.89306296,1.435365143,-12.6353746,2.961741028,13.05698565
50.90314596,0.3266207886,-12.62818954,4.987628174,13.58139489
50.91322796,-0.1824705505,-11.93947174,4.871619415,12.89639317
50.92331096,0.05957611084,-10.83806213,3.528163147,11.39802945
50.93339296,0.6339317322,-9.263785858,1.548380127,9.413664477
50.94347596,1.669328613,-7.9308078,-0.03308120728,8.104656979
50.95355796,1.679806824,-6.947502594,-0.9358538818,7.208700698
50.96363996,1.349892883,-6.313271484,-2.0079245,6.761018298
50.97372296,1.130149841,-6.449787598,-2.394570465,6.972156512
50.98380496,1.142873383,-7.407196655,-1.941612396,7.742259396
50.99388796,0.9590556335,-8.908125458,-0.6557862854,8.983570701
51.00396996,0.2044747925,-9.767189026,0.3423381042,9.775325406
51.01405196,-0.5448669434,-9.987680511,0.7051835632,10.02735887
51.02413496,-1.046473846,-9.792336731,1.118324432,9.911388182
51.03421696,-1.379381561,-9.422605591,1.245559845,9.604145404
51.04429996,-1.226399689,-8.898994446,0.9674382019,9.035048147
51.05438196,-0.4896318054,-8.36849762,0.602946167,8.40446523
51.06446396,0.416434021,-8.144413605,-0.03128494263,8.155113059
51.07454696,1.006806335,-8.089178467,-0.8520281982,8.196000202
51.08462896,1.158590698,-8.133486328,-1.245410156,8.309451168
51.09471196,0.9876461792,-8.655450897,-0.8336164856,8.751410838
51.10479396,0.4742138672,-9.305099945,-0.05284011841,9.317325574
51.11487596,0.1151106262,-10.0939595,0.6831793213,10.11770739
51.12495821,0.1044827271,-10.67370392,1.542691956,10.78511801
51.13504021,0.1243913269,-10.83656525,2.375709686,11.09462104
51.14512321,0.03682342529,-11.01783829,2.84333725,11.37887003
51.15520521,-0.1830693054,-11.62826889,2.682571564,11.93508869
51.16528821,-0.8400531006,-12.30860413,1.573827209,12.4372166
51.17537021,-2.038460999,-12.68971161,0.06661148071,12.85256943
51.18545221,-3.084485779,-13.04597076,-0.4661306763,13.41374979
51.19553521,-3.303181,-13.39534424,0.4430786133,13.80371583
51.20561721,-2.659369812,-13.38995544,2.20326828,13.82814325
51.21570021,-1.348395996,-12.99462753,4.408033447,13.78801202
51.22578221,-0.4475692749,-12.39362732,5.797294464,13.68981152
51.23586421,-0.6951544189,-12.09439957,5.696404266,13.38681299
51.24594721,-2.023641815,-11.44340332,4.847818909,12.59158266
51.25602921,-3.562142487,-10.33705399,3.970343628,11.63216114
51.26611221,-4.612807617,-10.11147308,4.407584381,11.9560312
51.27619421,-3.811673584,-10.65828598,4.453987885,12.16412445
51.28627621,-1.905836792,-11.60267212,2.883304138,12.106513
51.29635921,-0.2460882568,-13.46360229,0.173638916,13.46697058
51.30644121,1.141526184,-16.41336823,-5.012925568,17.19974306
51.31652421,2.807711334,-18.97065033,-9.161698151,21.25336514
51.32660621,5.74280777,-19.62883163,-8.723858643,22.23458077
51.33668921,8.425229645,-18.71468262,-4.676275635,21.04973619
51.34677121,8.381221161,-16.69972275,0.5885760498,18.69417101
51.35685321,7.573351135,-14.74808121,5.146747284,17.35945144
51.36693621,7.512278137,-13.68798569,6.991361389,17.10772951
51.37701821,6.800807648,-12.40395584,4.133803711,14.73761983
51.38710121,5.907315674,-11.51465515,1.274898834,13.00419274
51.39718321,3.777694244,-10.77848602,0.4049079895,11.42850319
51.40726521,0.9991722107,-9.343420258,-1.045875092,9.4547185
51.41734821,-0.8379574585,-8.431067505,-1.471589813,8.599456294
51.42743021,-0.808768158,-7.773335266,-1.317410431,7.925554702
51.43751321,0.04745132446,-7.446115723,-1.377285919,7.572569411
51.44759521,1.709295502,-7.049889679,-1.474733276,7.402531583
51.45767721,2.292782135,-6.800358582,-1.765279083,7.390394915
51.46776021,2.100881195,-7.136858826,-1.754800873,7.643806761
51.47784221,1.721120911,-7.118596802,-1.382075958,7.452973337
51.48792521,1.179098053,-6.918912048,-1.291963348,7.136580795
51.49800721,0.4691244507,-6.204447784,-1.303788757,6.357288351
51.50809021,-0.3736230469,-5.283862152,-1.103654938,5.41080841
51.51817221,-0.4993615723,-4.253554688,-1.152453461,4.435114253
51.52825421,0.1032852173,-3.093018036,-1.468146973,3.425329756
51.53833721,0.7408094788,-1.851200409,-2.0862117,2.885831058
51.54841921,1.776805115,-0.9731263733,-2.550396423,3.257074342
51.55850221,2.690804443,-0.7818241882,-2.374512177,3.672871586
51.56858421,3.341501312,-0.7045848083,-1.931583252,3.923402176
51.57866621,3.763623505,-0.7694000244,-1.19227066,4.02223167
51.58874921,4.230502625,-1.171014862,-0.1666035461,4.39274231
51.59883121,4.560266876,-1.959425354,0.937350769,5.051139294
51.60891421,4.396357727,-3.653302917,2.126627655,6.09894488
51.61899621,3.927682343,-6.237229614,3.386707306,8.111689603
51.62907821,2.611170044,-10.27298721,6.351891174,12.35714355
51.63916121,1.368154907,-15.8961937,12.26803848,20.12624133
51.64924321,-0.3144960022,-22.57201126,20.74790451,30.6605633
51.65932621,-3.66003891,-32.42826508,34.78945496,47.70004651
51.66940821,-5.173391876,-37.07984207,21.94885712,43.3985138
51.67949121,-5.975723419,-27.276129,6.495292969,28.66854224
51.68957321,-5.813460846,-13.68993164,2.463127899,15.07572733
51.69965521,-4.878804474,-5.09226059,1.833686829,7.286717944
51.70973821,-2.607278137,-0.02020797729,0.6032455444,2.676231088
51.71982021,1.957329712,-0.5812413025,-2.867437134,3.520110335
51.72990321,6.558461609,-6.139931946,-8.830287323,12.59706939
51.73998521,9.468260651,-11.68080963,-13.69247635,20.33649876
51.75006721,10.7283403,-14.17686905,-13.81477203,22.51508001
51.76015021,10.12763947,-12.9486731,-9.468110962,18.97056513
51.77023221,8.30413147,-11.39385635,-1.965562592,14.23523791
51.78031521,1.063388672,-11.98572556,21.13754425,24.32250377
51.79039721,-1.415157166,-11.53201904,18.83997208,22.13446816
51.80047921,1.752405853,-7.269932098,-1.041833496,7.550381184
51.81056221,0.5053491211,-4.495002594,-9.120533752,10.18059733
51.82064421,0.5848338318,-4.661905518,-8.785380707,9.962846372
51.83072721,2.777923279,-6.324498138,-7.333699493,10.07468524
51.84080921,4.208947449,-8.044720917,-5.870791626,10.81198259
51.85089121,3.975283356,-9.138646088,-5.572611694,11.4180441
51.86097421,3.035687256,-9.946815491,-5.068909149,11.56928587
51.87105621,2.261347504,-10.67115921,-3.239563293,11.37902025
51.88113921,1.212628326,-11.63246017,-0.4480183411,11.70407269
51.89122121,-0.4296066284,-12.5491539,1.437610474,12.6385343
51.90130421,-1.522034912,-12.86155426,1.604363708,13.05029315
51.91138621,-1.373244324,-12.24618393,0.6572831726,12.3404555
51.92146821,-0.1654060364,-10.89614136,-0.1613644409,10.89859138
51.93155121,1.15365097,-9.431137848,-0.412691803,9.510393588
51.94163321,1.800605621,-7.955057373,-0.7315287781,8.189032468
51.95171621,2.05238205,-6.534212036,-2.042053528,7.146900141
51.96179821,2.168540497,-6.04697525,-2.768642578,6.995274068
51.97188021,2.446961517,-6.605763245,-2.238744507,7.391596964
51.98196321,2.267185364,-7.63951355,-1.099014587,8.044260675
51.99204521,1.467697906,-8.573720856,0.09879455566,8.698999185
52.00212821,0.8846603394,-8.940458221,0.7598199463,9.016193403
52.01221021,0.2902464294,-8.914711761,0.9458830261,8.969449452
52.02229221,-0.5177732849,-9.147627411,0.6077362061,9.18240272
52.03237521,-0.8129594421,-9.424701233,0.250279541,9.463008836
52.04245721,-0.6167175293,-9.405990143,-0.05418731689,9.426342204
52.05254021,-0.1260379028,-9.102421417,-0.3785627747,9.11116189
52.06262221,0.2462379456,-8.890761566,-0.7225474548,8.923471812
52.07270521,0.1971400452,-8.844208374,-0.7945477295,8.88201509
52.08278721,0.0419128418,-8.736881561,-0.5797444153,8.756195503
52.09286921,-0.1920506287,-9.018296356,-0.1998344421,9.022554318
52.10295221,-0.1504371643,-9.743238831,0.4477189636,9.754680237
52.11303421,0.3496728516,-10.55410263,1.302740936,10.63994772
52.12311771,0.5480104065,-11.36840927,2.276316376,11.60700913
52.13319971,0.05733078003,-11.34954849,2.766846313,11.68207928
52.14328171,-0.800684967,-10.74121353,2.158062286,10.98508067
52.15336471,-1.576820984,-11.13429611,1.356479187,11.32691265
52.16344671,-1.860630798,-12.48209335,1.07416626,12.66563992
52.17352971,-2.27347229,-13.08908112,1.204994202,13.33959264
52.18361171,-2.870131531,-12.78356644,1.677112427,13.20870667
52.19369371,-3.153641968,-12.44092896,2.557581482,13.08676408
52.20377671,-2.890638885,-12.33360214,3.835773468,13.23581101
52.21385871,-2.032772827,-12.06446182,4.614454193,13.07580177
52.22394171,-1.556912384,-11.90504333,4.933590546,12.9805373
52.23402371,-1.629062347,-11.86642365,5.07818985,13.00976043
52.24410671,-1.838925934,-11.40852585,5.527705078,12.80982568
52.25418871,-1.873204651,-11.44639709,7.514523468,13.82016516
52.26427071,-1.847308502,-11.76268936,5.376669159,13.06453141
52.27435371,-2.178419952,-13.00106415,-1.181343384,13.23513334
52.28443571,-1.913021851,-15.42961395,-7.212601318,17.13926069
52.29451871,0.6578819275,-18.3181572,-9.571845245,20.67868258
52.30460071,3.574267273,-19.70562195,-7.696994019,21.45531729
52.31468271,5.601651306,-19.89961853,-4.387376404,21.13344238
52.32476571,7.811206512,-18.96735718,-0.3294648743,20.51546082
52.33484771,8.173303528,-16.73909088,4.73061264,19.21922865
52.34493071,7.836503906,-15.16661087,7.467371521,18.6332637
52.35501271,7.830067291,-14.01550461,5.240302734,16.88801634
52.36509471,7.194788361,-12.21400085,0.08367599487,14.17581737
52.37517771,5.298681335,-10.93191696,-1.371897125,12.22558522
52.38525971,2.288441162,-9.697134705,0.4101470947,9.971940888
52.39534271,-0.03338058472,-8.525072021,-0.03742218018,8.525219508
52.40542471,-0.5502557373,-8.02795578,-0.9999206543,8.10868033
52.41550671,-0.0209564209,-7.880213013,-1.44150238,8.011000275
52.42558971,1.10455307,-7.72962616,-1.719773712,7.995297347
52.43567171,2.262694702,-7.50494339,-2.013912048,8.09319494
52.44575471,3.341501312,-7.569459229,-1.829196167,8.473977971
52.45583671,3.5301091,-7.57859024,-1.630559235,8.517947154
52.46591971,2.928360443,-7.233857117,-1.882934418,8.028039966
52.47600171,2.467169495,-6.782096558,-1.64283371,7.401531033
52.48608371,1.662442932,-6.166576538,-1.185384979,6.495807898
52.49616671,0.9821076965,-4.980143738,-1.116827545,5.197467743
52.50624871,0.4222718811,-3.750450897,-1.17011673,3.951375537
52.51633171,0.276026001,-2.542313232,-1.623224487,3.028927972
52.52641371,0.6572831726,-1.502126312,-2.507585449,2.996062318
52.53649571,1.426982574,-0.79215271,-3.230881348,3.61972091
52.54657871,2.406545563,-0.4547543335,-3.255280609,4.073710212
52.55666071,3.05978714,-0.5249583435,-2.486629028,3.977587526
52.56674371,3.733236694,-0.6496490479,-1.410516815,4.043347349
52.57682571,4.081562347,-1.075214081,-0.4870870972,4.248822232
52.58690871,3.948339386,-2.147284698,0.3751199341,4.510092066
52.59699071,3.720513153,-3.741170197,1.86392395,5.595782792
52.60707271,3.275787964,-5.896837463,3.817810822,7.751074656
52.61715571,2.164049835,-8.94644577,6.308032379,11.1585517
52.62723771,1.159937897,-13.4249826,10.30337402,16.96275715
52.63732071,-0.2612068176,-19.40115509,17.31314713,26.00419411
52.64740271,-2.133363647,-28.47887787,32.45041901,43.22762333
52.65748471,-1.8592836,-36.33663757,26.50972275,45.01748067
52.66756771,-1.803599396,-30.93272507,8.987610168,32.26241757
52.67764971,-2.59994339,-17.2152507,4.212539978,17.9128461
52.68773271,-1.971849518,-8.18707489,3.488495636,9.115151539
52.69781471,-0.9972262573,-3.05394928,2.297721863,3.949758495
52.70789671,2.065854034,-0.9228309631,-0.09849517822,2.264745279
52.71797971,6.665039978,-3.240311737,-3.027154999,8.005376034
52.72806171,9.488019562,-7.884254608,-7.032525787,14.20001426
52.73814471,8.821306,-12.37177277,-9.482481079,17.91071323
52.74822671,7.582482147,-13.92060196,-9.752818909,18.61168104
52.75830871,5.746100922,-12.47041763,-7.968379669,15.87526587
52.76839171,3.346141663,-10.92982132,-0.6710545349,11.45023896
52.77847371,-1.902393951,-10.0342337,13.9399118,17.28080119
52.78855671,-2.963387604,-8.288563843,10.9513765,14.05043073
52.79863871,0.2059716797,-5.9826091,-1.255888367,6.116477055
52.80872171,1.009949799,-5.231770477,-5.156027985,7.414583299
52.81880371,1.280736694,-5.917344818,-7.276069336,9.465539665
52.82888571,2.402354279,-7.641010437,-7.807164917,11.18517638
52.83896871,3.338956604,-9.372908936,-6.056854706,11.64841371
52.84905071,2.889141998,-10.49497559,-5.11097168,12.02554305
52.85913371,1.822310486,-11.27635071,-4.622687073,12.32258644
52.86921571,1.131796417,-11.73529633,-3.042722626,12.17605453
52.87929771,0.6489006042,-12.05443268,-0.6598278809,12.08990455
52.88938071,0.2222877502,-12.11430817,1.557660828,12.21606244
52.89946271,0.09145980835,-11.82181641,2.20326828,12.02572655
52.90954571,0.3939807129,-11.1663295,1.421743469,11.26336938
52.91962771,1.291963348,-10.22344025,0.6465055847,10.32501183
52.92971071,2.100731506,-9.087302856,0.3550616455,9.333713882
52.93979271,2.19862793,-7.851622467,0.1541793823,8.155103397
52.94987471,2.063159637,-7.031477966,-0.3544628906,7.336481038
52.95995771,1.925296326,-6.883884888,-1.101259918,7.232386224
52.97003971,1.740430756,-7.237299957,-1.740730133,7.644458861
52.98012271,1.351240082,-7.837102661,-1.594633942,8.111034785
52.99020471,0.9340576172,-8.361013184,-0.6248007202,8.436194701
53.00028671,0.9904902649,-8.543633423,0.1835183716,8.602814773
53.01036971,0.6650669861,-8.563392334,0.5243595886,8.605170268
53.02045171,0.5701643372,-8.49827774,0.4682263184,8.530243127
53.03053471,0.4273612976,-8.326135712,0.3459306335,8.344269984
53.04061671,0.3119512939,-8.397537231,0.01451980591,8.403341954
53.05069871,0.5185217285,-8.498876495,-0.5658233643,8.533459002
53.06078171,0.7241940308,-8.390202484,-0.9410929871,8.473819135
53.07086371,0.6584806824,-8.302035828,-0.9840536499,8.38604539
53.08094671,0.4318519592,-8.399333496,-0.8276289368,8.451051352
53.09102871,0.176333313,-8.939560089,-0.3652404785,8.948755703
53.10111171,-0.003293151855,-9.924811249,0.3875440979,9.932375325
53.11119371,0.1642085266,-11.00930603,1.326691132,11.09017101
53.12127558,0.3571572876,-11.64368683,2.241588593,11.86287165
53.13135858,0.05044509888,-11.74382858,2.555186462,12.01869512
53.14144058,-0.4465214539,-11.60850998,2.117346954,11.80847338
53.15152358,-1.05306015,-11.92360474,1.019080811,12.01331808
53.16160558,-2.142644348,-12.42940292,0.06331832886,12.61288988
53.17168758,-3.119962006,-12.73566605,-0.005089416504,13.11226062
53.18177058,-3.808979187,-13.00196228,0.8842112732,13.57723003
53.19185258,-3.920497284,-13.17799622,2.522404633,13.97828345
53.20193558,-3.24929306,-12.94343399,4.261937256,14.00908627
53.21201758,-1.965412903,-12.51158203,4.726720734,13.51829951
53.22209958,-1.351988525,-12.31324448,4.515959015,13.18475439
53.23218258,-1.587448883,-11.75595337,4.417463837,12.65845252
53.24226458,-2.180066528,-10.98266144,4.585115204,12.09937287
53.25234758,-2.216291199,-10.814561,6.190826111,12.65673751
53.26242958,-0.942739563,-11.55611893,5.553451538,12.85587284
53.27251258,0.6400689697,-12.84748352,0.4129911804,12.87004595
53.28259458,1.103654938,-14.68655914,-5.692212982,15.78969165
53.29267658,1.354832611,-16.89297089,-10.024953,19.69029506
53.30275958,3.350782013,-18.75719421,-8.421786804,20.83234427
53.31284158,6.549629974,-18.99594772,-3.678600311,20.42732932
53.32292458,8.800798645,-18.31426529,0.5574407959,20.32675848
53.33300658,8.95228363,-16.70690781,3.963008881,19.36413153
53.34308858,8.252488861,-14.87067627,4.741390228,17.65563271
53.35317158,7.96478714,-13.64502502,2.869832153,16.05803471
53.36325358,7.046746216,-12.59660522,0.9286688232,14.46352382
53.37333658,4.719086609,-11.16303635,-0.5471122742,12.13187911
53.38341858,1.3151651,-10.09336075,-0.1868115234,10.18039729
53.39350058,-1.202599182,-9.043294373,-0.3677851868,9.130316744
53.40358358,-2.561772766,-7.905360718,-0.951870575,8.364416619
53.41366558,-2.269281006,-7.320526886,-0.9601034546,7.724088866
53.42374858,-0.7024891663,-7.039112091,-1.179696808,7.171769281
53.43383058,1.015188904,-6.664291534,-1.650767212,6.940347438
53.44391358,2.084864502,-6.613846436,-1.907333679,7.192186485
53.45399558,1.996099091,-6.867868195,-2.206860809,7.484801918
53.46407758,2.120041351,-6.846911774,-2.277364197,7.520715648
53.47416058,2.246827698,-6.584507446,-2.225871277,7.304688628
53.48424258,2.0371138,-5.889203339,-2.037413177,6.556187997
53.49432558,1.425785065,-5.060825958,-1.582359467,5.490781721
53.50440758,1.312620392,-4.113296356,-1.402283936,4.539667327
53.51448958,1.324894867,-3.147055664,-1.651665344,3.793060001
53.52457258,1.841320953,-2.239642639,-2.105371857,3.583162383
53.53465458,2.345472565,-1.362616425,-2.580633545,3.744013163
53.54473758,2.514321442,-0.8220904541,-2.587968292,3.700706001
53.55481958,2.979254608,-0.9801617432,-1.889371033,3.661474834
53.56490258,3.462150421,-1.304237823,-1.084494781,3.855340552
53.57498458,3.999233551,-1.619631958,-0.1465452576,4.317238954
53.58506658,4.602179718,-2.484982452,0.7641609192,5.285748562
53.59514958,4.682861938,-4.013453979,1.640289001,6.381814537
53.60523158,4.043391724,-6.286327515,3.082240448,8.084994523
53.61531458,2.647245026,-9.855505371,6.572831726,12.13841049
53.62539658,1.700613556,-14.85974899,11.89785828,19.11186171
53.63547858,1.127156067,-21.17227203,20.18776932,29.27595624
53.64556158,-0.5812413025,-30.40357544,33.24092514,45.05190723
53.65564358,-3.003204803,-35.47248459,24.91209503,43.45030358
53.66572658,-5.257367249,-27.44378036,9.413923645,29.48597886
53.67580858,-4.736749878,-15.15747986,2.959495697,16.15378005
53.68589058,-4.150119781,-7.481591949,1.731449432,8.729010794
53.69597358,-3.222798157,-2.436782684,1.951791229,4.487073301
53.70605558,-0.9445358276,-0.7846682739,-0.5129832458,1.330790758
53.71613858,1.947599945,-3.206631775,-6.292614441,7.326160617
53.72622058,4.3608815,-7.604037323,-9.92585907,13.24240723
53.73630258,5.934858398,-11.98961746,-10.16536102,16.80202475
53.74638558,8.410260773,-14.53597229,-10.4523143,19.78074445
53.75646758,9.60762085,-15.02440659,-7.184759216,19.2265425
53.76655058,7.071145477,-13.97359177,2.821632385,15.91301274
53.77663258,-0.4781057739,-12.05128922,20.61123871,23.88064735
53.78671558,-0.4589456177,-9.501940613,14.08510986,16.99670045
53.79679758,3.043620758,-4.933889923,-0.5692662048,5.82502885
53.80687958,2.663261719,-2.581082611,-5.373376007,6.529021377
53.81696258,1.440155182,-2.699037323,-6.037395172,6.768233882
53.82704458,1.188229065,-4.382436676,-6.685098267,8.081347559
53.83712758,1.045276337,-7.026987305,-6.899003448,9.902898656
53.84720958,0.1583706665,-10.04785538,-6.674320679,12.06362447
53.85729158,-0.09669891357,-12.5278981,-5.955066376,13.87156794
53.86737458,-0.1474433899,-13.69876328,-4.489314423,14.4163726
53.87745658,-0.2906954956,-13.68469254,-2.730771332,13.95752219
53.88753958,-0.2782713318,-12.88475601,-0.7801776123,12.91135351
53.89762158,0.4894821167,-12.04290665,1.247056732,12.11719207
53.90770458,1.649420013,-11.20090759,2.640059967,11.62543908
53.91778658,2.416425018,-10.13931519,3.204685822,10.90480782
53.92786858,3.057691498,-9.006920013,2.60697876,9.862576929
53.93795158,3.566483459,-8.224197693,0.9505233765,9.014473176
53.94803358,3.566483459,-7.75881546,-1.108145599,8.61086571
53.95811658,3.251987457,-7.464377747,-2.674188995,8.569926741
53.96819858,2.471660156,-7.56227417,-2.822530518,8.441787315
53.97828058,1.744771729,-7.951165466,-1.676813049,8.31125518
53.98836358,1.148411865,-8.361611938,-0.4376898193,8.451448184
53.99844558,0.7276368713,-8.720565491,0.2368075562,8.754073093
54.00852858,0.4390370178,-8.83178421,0.4454736328,8.853903805
54.01861058,0.4484674072,-8.729397125,0.3284170532,8.747076937
54.02869258,0.4221221924,-8.612041168,0.01077758789,8.622386931
54.03877558,0.6188131714,-8.278235321,-0.1669029236,8.303009476
54.04885758,0.9541159058,-8.024063873,-0.216000824,8.083476638
54.05894058,1.091230774,-7.930508423,-0.4508624268,8.017919018
54.06902258,1.051413574,-8.043673096,-0.5315446472,8.129494885
54.07910558,0.7759863281,-8.379275208,-0.1863624573,8.417193045
54.08918758,0.2227368164,-8.947792969,0.4415817261,8.961451061
54.09926958,-0.03233276367,-9.625882874,1.195713501,9.699917385
54.10935258,-0.02933898926,-10.26909531,2.017654266,10.46547218
54.11943508,-0.03173400879,-10.5054538,2.694097595,10.84544736
54.12951808,-0.1049317932,-10.72355026,3.228785706,11.19958026
54.13960008,-0.6607260132,-11.48127457,3.206931152,11.93903815
54.14968208,-1.718725891,-12.3063588,2.019749908,12.58887903
54.15976508,-2.973865814,-12.54660919,0.6735992432,12.91181691
54.16984708,-4.070186005,-12.4430246,0.6283932495,13.10687428
54.17993008,-4.727319489,-12.62175293,1.611698456,13.57401077
54.19001208,-4.749174042,-12.95376251,3.20483551,14.16423623
54.20009508,-3.652554474,-12.69255569,4.681365051,14.01275501
54.21017708,-2.419119415,-12.33045868,5.082530823,13.55449997
54.22025908,-1.802102509,-12.12927704,4.871918793,13.19479169
54.23034208,-1.531016235,-11.2751532,4.414320374,12.20488897
54.24042408,-1.671723633,-11.28054199,5.382806396,12.61030897
54.25050708,-1.279988251,-11.77915512,6.380631409,13.45731483
54.26058908,-0.339793396,-12.69390289,4.834945679,13.58776398
54.27067108,0.3341052246,-14.89327927,0.330662384,14.90069566
54.28075408,0.8416996765,-18.02865921,-6.705006866,19.25352249
54.29083608,2.099234619,-20.78876953,-11.03639969,23.63010459
54.30091908,4.931794281,-20.72709778,-10.11087433,23.58314985
54.31100108,8.090076599,-19.25550797,-6.434669037,21.85472242
54.32108308,9.213789825,-17.04789871,0.6890171814,19.390707
54.33116608,7.826175385,-14.65243011,7.564369812,18.25273733
54.34124808,7.598648529,-13.67092117,7.970026245,17.5543403
54.35133108,7.613467712,-12.44242584,3.566034393,15.01650601
54.36141308,6.364315338,-10.91874435,-0.9599537659,12.67458083
54.37149608,3.466042328,-9.95160553,-1.501078491,10.64430076
54.38157808,0.3900888062,-8.747210083,-1.33387619,8.856922671
54.39166008,-1.200353851,-7.612868958,-1.373992767,7.82844041
54.40174308,-0.9997709656,-7.090006256,-1.005758514,7.230441265
54.41182508,0.2321672058,-7.187004547,-1.022074585,7.263027773
54.42190808,1.51754425,-7.357949066,-1.349743195,7.633096469
54.43199008,2.519261169,-7.387138367,-1.711989899,7.990456777
54.44207208,2.997366943,-7.45105545,-1.338666229,8.142141192
54.45215508,2.800376587,-7.574249268,-1.351838837,8.187724301
54.46223708,2.001338196,-7.675438843,-1.886377258,8.153289837
54.47232008,1.370100861,-7.309150543,-1.484013977,7.58308351
54.48240208,1.110241241,-6.239325256,-1.039288788,6.421988512
54.49248508,0.7104226685,-4.95649292,-0.876277771,5.083245535
54.50256708,0.8069718933,-3.667673035,-1.127156067,3.920906773
54.51264908,1.031654663,-2.47001358,-1.97155014,3.324498216
54.52273208,1.888023834,-1.687740326,-2.512824554,3.567546587
54.53281408,2.690505066,-1.131946106,-2.853516083,4.081993818
54.54289708,3.191513214,-0.6827302551,-2.60697876,4.17710611
54.55297908,3.515589294,-0.6520440674,-1.808688812,4.006979507
54.56306108,3.835174713,-0.7957452393,-0.9948312378,4.041220701
54.57314408,4.14098877,-0.9430389404,-0.2923420715,4.2570617
54.58322608,4.046834564,-1.644779663,0.5980064392,4.409056796
54.59330908,3.734284515,-3.255280609,2.277214508,5.452287465
54.60339108,3.553310852,-5.88785614,4.567002869,8.255324533
54.61347408,2.475102997,-9.912387085,8.363857269,13.20362303
54.62355608,0.523611145,-15.54262894,14.77158234,21.44870923
54.63363808,-1.403481445,-22.55988647,23.56384872,32.6523078
54.64372108,-1.354383545,-31.82951019,31.92650848,45.10270522
54.65380308,0.4987628174,-35.84176666,21.00596786,41.546741
54.66388608,0.2110610962,-25.99748795,6.690786438,26.84549402
54.67396808,-0.5760021973,-13.44144836,2.27811264,13.64529625
54.68405008,-2.062560883,-5.715265045,1.111139374,6.176814927
54.69413308,-0.6583309937,-1.795665894,0.9792636108,2.148667708
54.70421508,4.508624268,-3.103346558,-0.01856140137,5.473462996
54.71429808,7.6839711,-6.952442322,-3.618575134,10.97606269
54.72438008,7.012766876,-10.61622345,-8.342601471,15.21453578
54.73446208,5.229375458,-11.94815369,-11.06603806,17.10444218
54.74454508,4.226011963,-11.9373761,-8.416996765,15.20545822
54.75462708,2.390379181,-11.73095535,-2.166744232,12.16651169
54.76471008,-2.039658508,-10.83042801,9.889484711,14.80744021
54.77479208,-4.2427771,-8.888815613,8.113128662,12.76068404
54.78487508,-0.7632627869,-6.516099701,-1.961371307,6.847561814
54.79495708,1.163680115,-5.28416153,-4.018992462,6.740090125
54.80503908,1.389710083,-5.792055359,-4.278403015,7.333752911
54.81512208,1.932182007,-8.003706207,-5.138065338,9.705274637
54.82520408,2.146236877,-10.04306534,-5.096601562,11.46493967
54.83528708,1.894161072,-11.02996307,-5.110821991,12.30318792
54.84536908,1.465153198,-11.21722366,-4.565056915,12.19887393
54.85545108,1.375040588,-11.11229187,-2.936743011,11.57576031
54.86553408,1.601819,-10.98370926,-0.6493496704,11.11887351
54.87561608,1.66034729,-10.95167587,1.139729919,11.13530161
54.88569908,1.421743469,-10.95496902,1.59598114,11.16153469
54.89578108,1.357377319,-10.87443649,1.101259918,11.01401905
54.90586408,1.733844452,-10.35741165,0.6304888916,10.52044243
54.91594608,2.407892761,-9.518855438,0.3833528137,9.826164856
54.92602808,2.842738495,-8.667575684,0.5233117676,9.136842211
54.93611108,2.579735413,-7.876171417,0.4661306763,8.300987218
54.94619308,2.040556641,-7.264992371,-0.1845661926,7.548380636
54.95627608,1.373992767,-7.127877502,-1.193917236,7.356625054
54.96635808,0.8117619324,-7.33998642,-2.045945435,7.662913989
54.97644008,0.5137316895,-7.696395264,-1.93996582,7.953734198
54.98652308,0.6024971008,-8.127798157,-1.086440735,8.222193084
54.99660508,0.9148974609,-8.068222046,-0.2799179077,8.124752204
55.00668808,1.005758514,-7.826474762,0.07634124756,7.891203037
55.01677008,1.257235565,-7.491022339,0.4171824646,7.607239851
55.02685308,1.534608765,-7.217541046,0.5272036743,7.397693325
55.03693508,1.856738892,-7.205565948,-0.01062789917,7.440952419
55.04701708,1.86392395,-7.58218277,-1.06129303,7.87972404
55.05710008,1.453627167,-8.258925476,-1.932631073,8.605692582
55.06718208,1.27894043,-9.120982819,-1.678459625,9.361903808
55.07726508,1.392105103,-10.05713608,-0.4149371338,10.16150164
55.08734708,1.435963898,-10.83910995,0.7987390137,10.96295038
55.09742908,1.479822693,-11.48920807,1.939367065,11.74533618
55.10751208,1.459015961,-11.78304703,3.23297699,12.30532669
55.11759408,0.593815155,-12.07553879,3.690276031,12.64078283
55.12767633,-0.8080197144,-12.14050369,2.754571838,12.47527121
55.13775833,-2.245480499,-12.04275696,0.8131091309,12.2772686
55.14784033,-3.932771759,-12.45275436,-0.2204914856,13.06087292
55.15792333,-5.139562225,-13.20598801,0.2652484131,14.17334032
55.16800533,-5.795198822,-13.84051849,1.720522156,15.10312809
55.17808833,-5.498515778,-13.86461838,3.504662018,15.32135681
55.18817033,-3.36051178,-13.17904404,4.38902298,14.29138775
55.19825333,-1.312470703,-12.96663574,4.506229248,13.7899356
55.20833533,-0.7972421265,-12.59421021,4.538412323,13.4107014
55.21841733,-0.8831634521,-11.38173157,4.779111786,12.37593231
55.22850033,-1.198108521,-11.2260553,6.159092102,12.86056753
55.23858233,-1.233435059,-11.94695618,6.188431091,13.51102525
55.24866533,-0.7435038757,-13.1238089,3.391347656,13.57528626
55.25874733,-0.05972579956,-15.0720076,0.1639091492,15.07301716
55.26882933,0.6762936401,-17.30012421,-3.661685486,17.69631632
55.27891233,2.027234344,-18.94729889,-6.92100769,20.27338555
55.28899433,3.881278839,-18.7971611,-8.849297791,21.13545983
55.29907733,6.38287674,-17.4408316,-8.11687088,20.26838216
55.30915933,7.252119141,-15.42197983,-3.527564392,17.40328717
55.31924233,6.770869904,-13.50386856,1.982477417,15.23579214
55.32932433,6.803801422,-13.07950104,5.610333252,15.77469177
55.33940633,6.683751068,-12.68073029,4.628225555,15.0629984
55.34948933,5.577551422,-11.60536652,1.322499847,12.94382547
55.35957133,3.674259338,-10.77848602,-0.3972738647,11.39446221
55.36965433,1.955084381,-10.14694931,-0.8120613098,10.36544156
55.37973633,0.8138575745,-9.338031464,-1.73519165,9.532685132
55.38981833,0.3607498169,-8.475674744,-2.065105591,8.731086066
55.39990133,0.5731581116,-8.296347656,-1.577868805,8.464488444
55.40998333,1.215472412,-8.344098358,-1.122366028,8.506530203
55.42006633,2.023342438,-8.205037537,-0.7662565613,8.485499674
55.43014833,2.668800201,-7.855664063,-0.5203179932,8.312922662
55.44023133,2.420765991,-7.335495758,-1.016985168,7.7912685
55.45031333,1.835333405,-7.18311264,-1.405577087,7.545939495
55.46039533,1.889820099,-6.486461334,-1.161734161,6.855306478
55.47047833,1.722767487,-5.38475235,-1.053958282,5.75102719
55.48056033,1.430425415,-4.313579865,-1.339264984,4.737796831
55.49064333,1.409019928,-3.19315979,-1.566043396,3.825454028
55.50072533,1.265767822,-2.204914856,-1.716779938,3.067759941
55.51080733,1.448088684,-1.500180359,-1.895208893,2.817679665
55.52089033,1.776505737,-0.7343728638,-1.951042786,2.73894945
55.53097233,2.071691895,-0.1713935852,-1.792821808,2.745085263
55.54105533,2.419119415,-0.1701960754,-1.17939743,2.696680135
55.55113733,2.82103363,-0.6596781921,-0.5346881104,2.946064737
55.56122033,3.146606598,-1.243314514,0.1999841309,3.389241466
55.57130233,3.075953522,-1.987417145,1.069076843,3.815002264
55.58138433,2.815794525,-3.327430573,1.999092865,4.795504698
55.59146733,2.661615143,-5.433700562,3.349734192,6.91592482
55.60154933,1.844614105,-8.490344238,6.061944122,10.59413578
55.61163233,1.028660889,-13.08024948,11.17381393,17.23383845
55.62171433,-0.2008822632,-19.70262817,19.32646042,27.59974607
55.63179633,-1.613644409,-29.09963699,30.23053528,41.9914037
55.64187933,-2.626288605,-37.30527328,26.54669586,45.86183455
55.65196133,-3.785478058,-32.2023848,9.238787842,33.71466493
55.66204433,-3.662583618,-17.89154434,2.773881683,18.47204096
55.67212633,-2.171234894,-8.519234161,3.041824493,9.302919322
55.68220833,-1.321751404,-3.155288544,2.951412506,4.518153201
55.69229133,1.171763306,-0.4640350342,0.9524693298,1.579732756
55.70237333,5.833968201,-2.728226624,-3.193758545,7.188775912
55.71245633,9.305249634,-8.06073761,-7.869585114,14.61141784
55.72253833,9.574389954,-11.94680649,-11.69143753,19.26356249
55.73262133,9.427695007,-12.54750732,-10.58553726,18.93079429
55.74270333,7.725135498,-11.68410278,-5.757477264,15.14412496
55.75278533,2.717898102,-11.21737335,7.486980743,13.7575912
55.76286833,-3.773652649,-10.66008224,16.93009369,20.35941748
55.77295033,-2.392175446,-8.37897583,0.5054988098,8.728417289
55.78303333,-0.6643185425,-5.9627005,-5.815406799,8.355481592
55.79311533,0.2894979858,-5.453609161,-5.138813782,7.498871185
55.80319833,1.478026428,-7.021748199,-5.805677032,9.230135194
55.81328033,2.229164429,-9.041797485,-6.445596313,11.32558995
55.82336233,2.941383362,-10.22358994,-6.196514282,12.31138971
55.83344533,2.679577789,-10.33944901,-5.829178162,12.16814123
55.84352733,2.202370148,-10.38285873,-4.639751587,11.58367319
55.85361033,2.541115723,-11.16019226,-2.404300232,11.69563252
55.86369233,2.415377197,-11.96297287,0.2484832764,12.20690423
55.87377433,1.472487946,-12.23914856,1.924697571,12.47675595
55.88385733,0.9994715881,-12.05188797,2.327509918,12.315204
55.89393933,1.013692017,-11.53171967,1.774709473,11.71143559
55.90402233,1.390159149,-10.58853104,1.29765152,10.75794736
55.91410433,2.001038818,-9.529333649,0.5602848816,9.753269979
55.92418633,1.950294342,-8.544531555,-0.2387535095,8.767535044
55.93426933,1.513652344,-7.616012421,-1.088985443,7.840961542
55.94435133,1.052760773,-6.961273956,-1.806293793,7.268448088
55.95443433,0.6676116943,-6.929539948,-2.210752716,7.30422185
55.96451633,0.6170169067,-7.311994629,-2.169438629,7.651956566
55.97459933,0.5035528564,-7.564070435,-1.76213562,7.782920336
55.98468133,0.5894741821,-7.865094452,-0.9217831421,7.940835895
55.99476333,1.011446686,-8.011040955,-0.2820135498,8.079562687
56.00484633,1.198557587,-7.948770447,0.1706451416,8.040436037
56.01492833,1.034498749,-7.992329865,0.3203338623,8.065366582
56.02501133,0.8732839966,-7.898624725,0.5981561279,7.969233856
56.03509333,0.9836045837,-7.922574921,0.7550299072,8.019023726
56.04517533,1.123413849,-7.948171692,0.7222480774,8.059598886
56.05525833,0.9758207703,-8.280929718,0.3866459656,8.347186249
56.06534033,1.06249054,-9.00617157,0.4200265503,9.078349784
56.07542333,0.86235672,-10.10099487,0.8506809998,10.17336791
56.08550533,0.1930984497,-11.28054199,1.289268951,11.35562103
56.09558833,-0.5662724304,-11.66464325,1.579216003,11.78467182
56.10567033,-1.270108795,-11.37439682,1.633103943,11.56101673
56.11575233,-1.753603363,-11.39475449,1.39000946,11.61239342
56.12583571,-1.908680878,-12.24543549,1.242117004,12.45538468
56.13591771,-2.273621979,-12.89253983,1.292113037,13.15509392
56.14600071,-3.029699707,-13.04073166,1.704056396,13.4960576
56.15608271,-3.710933075,-13.24266174,2.434237976,13.96655394
56.16616471,-3.678600311,-13.34325256,3.402274933,14.25306858
56.17624771,-2.586920471,-12.83026932,4.142036591,13.72823497
56.18632971,-1.315913544,-12.09410019,4.551135864,12.98890779
56.19641271,-0.855920105,-11.38472534,4.892426147,12.4209663
56.20649471,-0.549357605,-10.23751099,5.591173096,11.67774129
56.21657771,-0.3224295044,-10.5731131,8.33451828,13.46695498
56.22665971,-0.2755769348,-12.02554276,7.829169159,14.35219533
56.23674171,-0.7315287781,-13.89380768,1.350341949,13.97842801
56.24682471,-0.9403445435,-16.03600296,-5.3694841,16.93720751
56.25690671,-0.1236428833,-19.05911636,-8.757388916,20.97515351
56.26698971,2.342179413,-20.61647781,-9.415570221,22.78547617
56.27707171,5.199437714,-19.76145584,-8.220156097,22.02544564
56.28715371,7.319029999,-18.36530914,-4.384981384,20.25045288
56.29723671,7.367828522,-15.84754486,2.356998596,17.6347673
56.30731871,7.291487274,-14.91288849,7.964188385,18.41163562
56.31740171,7.945926361,-14.23973831,6.828050995,17.67852294
56.32748371,7.400161285,-12.10308151,1.200653229,14.23687246
56.33756671,5.3495755,-10.90916428,-0.9457333374,12.18696988
56.34764871,2.537223816,-9.972561951,0.08936416626,10.29065025
56.35773071,0.1414558411,-8.855135651,-0.07918533325,8.856619415
56.36781371,-1.471739502,-8.053402863,-1.092128906,8.259301446
56.37789571,-1.36665802,-8.081993408,-1.09991272,8.27019828
56.38797871,-0.4592449951,-8.316705322,-1.063388672,8.396980937
56.39806071,0.733175354,-8.450227661,-1.453028412,8.605532243
56.40814271,1.674268341,-8.504115601,-1.609453125,8.815525849
56.41822571,2.275567932,-8.256231079,-1.33387619,8.667340234
56.42830771,2.292931824,-7.41602829,-1.228794708,7.859067908
56.43839071,2.101929016,-6.474486237,-1.439107361,6.957593522
56.44847271,2.314187622,-5.493276672,-1.577569427,6.166058567
56.45855571,2.007475433,-4.258195038,-1.612297211,4.976111423
56.46863771,1.342408447,-3.36754715,-1.500479736,3.923502731
56.47871971,1.364113312,-2.811603241,-1.682052155,3.548974128
56.48880271,1.683549042,-2.274819489,-2.121687927,3.537046896
56.49888471,2.198478241,-1.661245422,-2.465672607,3.697645783
56.50896771,2.396965485,-1.056502991,-2.566413116,3.667167625
56.51904971,2.643502808,-0.913250885,-2.023791504,3.452226285
56.52913171,3.029699707,-0.9283694458,-1.260079651,3.410095434
56.53921471,3.381318512,-1.030307465,-0.3179388428,3.549075015
56.54929671,3.768413544,-1.325493622,0.4902305603,4.024698744
56.55937971,3.879183197,-2.463576965,1.192420349,4.747540419
56.56946171,3.794908447,-4.410278778,2.264191589,6.243272585
56.57954471,3.315006409,-7.454049225,4.224664764,9.186942348
56.58962671,1.886976013,-12.00069443,8.048014069,14.57216098
56.59970871,-0.09744735718,-17.23336304,12.81380356,21.47537798
56.60979171,-1.609453125,-23.70575363,21.87401276,32.29590576
56.61987371,-5.000202026,-33.0662384,32.42646881,46.58169192
56.62995671,-5.279670868,-34.39128296,17.9916861,39.17060169
56.64003871,-4.165986786,-23.14472031,6.185287628,24.31648221
56.65012071,-2.774031372,-11.94860275,3.360960846,12.71850681
56.66020371,-1.914668427,-4.970713348,3.022514648,6.124503341
56.67028571,-0.4258644104,-0.1202000427,1.355581055,1.425976347
56.68036871,2.420316925,1.253643036,-2.523751831,3.71468413
56.69045071,5.389243011,-1.75510025,-7.383994904,9.308474518
56.70053371,7.351811829,-6.772666168,-10.44273422,14.45575464
56.71061571,9.270222473,-11.78065201,-10.12898666,18.09190861
56.72069771,10.22927811,-14.30560135,-7.814200287,19.24448198
56.73078071,9.617051239,-14.81334549,-5.338498535,18.45054053
56.74086271,5.302722931,-14.90465561,7.209457855,17.38516356
56.75094571,-3.747307434,-14.74224335,25.27000076,29.4948977
56.76102771,-1.708547058,-11.62826889,5.63398407,13.0337081
56.77110971,-1.169667664,-6.98537384,-7.449708252,10.27918884
56.78119271,-0.9548643494,-4.687651978,-7.632927246,9.008186573
56.79127471,0.9231303406,-4.639901276,-5.458099823,7.222998488
56.80135771,2.597997437,-6.074817352,-5.729784851,8.745480603
56.81143971,3.60854599,-7.425907745,-6.990912323,10.81843635
56.82152271,3.187022552,-8.425978088,-7.186405792,11.52382956
56.83160471,2.081421661,-9.514065399,-5.665718079,11.26721429
56.84168671,1.481768646,-10.91889404,-2.542462921,11.30849252
56.85176971,0.619561615,-12.42087067,-0.1234931946,12.43692628
56.86185171,-0.5306465149,-13.21871155,0.4342469788,13.23648334
56.87193471,-0.7876620483,-12.9711264,0.5912704468,13.00846388
56.88201671,-0.1005908203,-11.70386169,0.8180488586,11.7328471
56.89209971,1.25199646,-10.18946091,0.9903405762,10.31374729
56.90218171,2.185455322,-8.646020508,1.285227356,9.010088509
56.91226371,2.626737671,-7.458240509,0.9645941162,7.965898825
56.92234671,3.3124617,-6.991810455,0.4285588074,7.748643663
56.93242871,3.576213226,-6.958579559,-0.7587721252,7.860462179
56.94251171,3.182980957,-7.35869751,-1.450783081,8.147795307
56.95259371,2.76026001,-8.417745209,-1.212927704,8.941401643
56.96267571,1.972298584,-9.510921936,-0.7399113464,9.741409887
56.97275871,1.115929413,-9.733359375,-0.002844085693,9.797121581
56.98284071,0.375718689,-9.504934387,1.040037231,9.569044868
56.99292371,-0.1631607056,-8.993148651,1.785337372,9.170102159
57.00300571,-0.7057823181,-8.519832916,1.591191101,8.695836402
57.01308771,-0.819994812,-8.285570068,0.4875361633,8.340309009
57.02317071,-0.5936654663,-8.159532166,-1.373543701,8.29560282
57.03325271,-0.5785469055,-8.264763336,-2.798280945,8.744793066
57.04333571,-0.6234535217,-8.567882996,-2.658321991,8.992440666
57.05341771,-0.7548802185,-9.160800018,-1.502874756,9.313900024
57.06350071,-0.576151886,-10.14784744,-0.08906478882,10.16458023
57.07358271,-0.3050656128,-11.20988892,1.345102844,11.29442235
57.08366471,0.01422042847,-11.67527115,2.527793427,11.94578998
57.09374771,0.283510437,-11.43561951,3.205434265,11.87975507
57.10382971,0.1839674377,-11.32619705,3.111429749,11.74723707
57.11391271,-0.240100708,-12.06640778,2.080673218,12.2468382
57.12399425,-1.399739227,-12.67399429,0.9035211182,12.78302592
57.13407725,-3.038980408,-12.86170395,0.2411485291,13.21805519
57.14415925,-4.248764648,-13.17709808,0.7137158203,13.86352427
57.15424125,-4.528682556,-13.59877121,2.467468872,14.54386285
57.16432425,-3.765868835,-13.76223129,4.294719086,14.90051644
57.17440625,-2.502645721,-13.62376923,4.569697266,14.58603636
57.18448925,-1.829645233,-13.13653244,3.434607697,13.70082539
57.19457125,-2.531835022,-12.24319016,2.27931015,12.70831021
57.20465325,-3.269051971,-11.28293701,1.804048462,11.88469433
57.21473625,-3.063529358,-11.75535461,3.374133453,12.60786861
57.22481825,-1.180894318,-13.04986267,4.430786133,13.83203864
57.23490125,1.11862381,-14.33029999,2.166594543,14.53626324
57.24498325,2.615511017,-15.68812637,-2.664608917,16.12632468
57.25506625,4.417014771,-17.42481491,-7.656278687,19.53849527
57.26514825,6.743327179,-18.60032043,-8.375233612,21.48462054
57.27523025,9.366472321,-18.56469452,-5.16126709,21.42469053
57.28531325,10.82249451,-17.45400421,-0.1308279419,20.53742356
57.29539525,9.331894226,-15.46134796,5.534141693,18.88820412
57.30547825,7.884254608,-13.38950638,7.022047577,17.05137836
57.31556025,7.736511841,-12.03407501,4.153712311,14.89717768
57.32564225,7.040010223,-10.74914703,-0.8249345398,12.87580766
57.33572525,4.293371887,-9.968670044,-3.249143372,11.32979952
57.34580725,0.5330415344,-9.038055267,-2.277364197,9.335789414
57.35589025,-2.082319794,-8.566535797,-1.007554779,8.873373537
57.36597225,-2.373464355,-8.240064697,-0.9717791748,8.629968368
57.37605525,-1.431772614,-7.962990875,-1.342857513,8.201369568
57.38613725,0.2052232361,-7.630981293,-1.342558136,7.750900233
57.39621925,1.646126862,-7.000043335,-1.356329498,7.317784504
57.40630225,2.103276215,-6.709347839,-1.673070831,7.227605777
57.41638425,2.187700653,-6.607559509,-1.377435608,7.095294615
57.42646725,2.270927582,-6.422693939,-1.356030121,6.946000807
57.43654925,1.862127686,-5.975424042,-1.860032043,6.529389803
57.44663225,1.710792389,-5.295537872,-1.740430756,5.830834517
57.45671425,1.278341675,-4.011657715,-1.662442932,4.526728572
57.46679625,0.8129594421,-2.876268768,-1.719773712,3.448397701
57.47687925,0.9448352051,-2.030826874,-2.051783295,3.037562517
57.48696125,1.421144714,-1.217418365,-2.510130157,3.130896546
57.49704425,1.799108734,-0.6364764404,-2.877316589,3.452657708
57.50712625,2.143991547,-0.8211923218,-2.286794586,3.240445349
57.51720825,2.754721527,-1.281934204,-1.627864838,3.446997233
57.52729125,2.982996826,-1.552122345,-0.8512797546,3.468721819
57.53737325,3.28446991,-1.889969788,0.03996688843,3.789633985
57.54745625,3.642375641,-2.636467438,1.077908478,4.623823909
57.55753825,3.849095764,-4.258793793,2.185455322,6.142399998
57.56762125,3.566633148,-6.919061737,3.781286774,8.654040501
57.57770325,2.622247009,-11.09028763,7.628735962,13.71379858
57.58778525,1.600920868,-16.79477509,14.91498413,22.51852947
57.59786825,0.1603166199,-24.82796997,26.3179715,36.18134074
57.60795025,-2.128872986,-35.6820488,34.9759671,50.01058869
57.61803325,-3.696413269,-37.14929764,18.45661926,41.64589512
57.62811525,-4.905898132,-24.82796997,5.265300751,25.84993852
57.63819725,-4.064946899,-12.19035004,2.308050385,13.05586167
57.64828025,-2.799628143,-4.809947662,1.772464142,5.840817014
57.65836225,0.1240919495,-0.3876937866,0.06346801758,0.4119872248
57.66844525,5.56842041,-1.520388336,-3.027604065,6.518072793
57.67852725,10.19844223,-7.16559906,-8.263715515,14.95469919
57.68861025,11.24072479,-12.6129213,-11.94471085,20.69095925
57.69869225,10.2824176,-14.07523041,-13.89051453,22.28871052
57.70877425,8.182284851,-11.55297546,-10.30996033,17.51331806
57.71885725,5.571114807,-9.706116028,0.01586700439,11.19134756
57.72893925,-1.105301514,-9.650581512,18.63444946,21.01423617
57.73902225,-1.572779388,-9.362730103,13.78932495,16.74156004
57.74910425,1.39120697,-6.314618683,-2.598596191,6.968684819
57.75918625,1.277293854,-5.093607788,-8.958420868,10.38410441
57.76926925,2.040257263,-6.030210114,-8.794511719,10.85677301
57.77935125,3.672762451,-7.780819702,-7.852670288,11.64880981
57.78943425,4.419709167,-8.917555847,-6.940766602,12.13387294
57.79951625,3.702251129,-9.178762665,-6.110293579,11.63151044
57.80959925,2.962489471,-9.717791748,-3.903283081,10.88335606
57.81968125,1.998943176,-10.86171295,-0.4029620361,11.0514687
57.82976325,0.4851411438,-12.39662109,1.487756195,12.4949988
57.83984625,-1.396146698,-13.27783859,1.463656311,13.431028
57.84992825,-2.299967194,-13.16392548,0.896635437,13.39338412
57.86001125,-1.731898499,-11.83439026,-0.1953437805,11.96204098
57.87009325,0.02754272461,-9.581125946,-1.317410431,9.671313419
57.88017625,1.357976074,-7.446864166,-1.649420013,7.747287997
57.89025825,1.774709473,-6.256838837,-1.76333313,6.738469386
57.90034025,1.9083815,-5.694158936,-2.347717896,6.448034216
57.91042325,2.192191315,-6.378535767,-2.252964935,7.111066888
57.92050525,2.478994904,-7.859555969,-1.058149567,8.308893805
57.93058825,2.228415985,-9.266480255,0.1342707825,9.531606515
57.94067025,1.784289551,-9.718091125,1.009500732,9.931972415
57.95075225,1.197659454,-9.724827118,1.590891724,9.926610052
57.96083525,0.5307962036,-9.123826904,1.905088348,9.335701559
57.97091725,0.03338058472,-8.38361618,2.292782135,8.691546723
57.98100025,-0.1580712891,-7.96014679,1.662143555,8.133366132
57.99108225,-0.2983296204,-7.916437683,-0.4685256958,7.935899601
58.00116525,-0.1514849854,-8.400531006,-2.323318634,8.71720588
58.01124725,0.08741821289,-8.896000671,-2.775378571,9.319291609
58.02132925,0.0679586792,-9.520202637,-1.585053864,9.651490682
58.03141225,-0.1567240906,-10.43330383,0.3359014893,10.43988607
58.04149425,-0.2028282166,-11.13669113,2.246977386,11.36291934
58.05157725,-0.1285826111,-11.35044662,3.491639099,11.8760564
58.06165925,0.05179229736,-11.12621292,3.668571167,11.71553289
58.07174125,0.1719923401,-11.24012604,2.631378021,11.54530922
58.08182425,-0.1951940918,-11.86612427,0.6481521606,11.88541573
58.09190625,-1.116528168,-12.4376358,-0.6264472961,12.50335378
58.10198925,-2.418370972,-12.6102269,-0.5219645691,12.85063374
58.11207125,-3.464545441,-12.61082565,0.6035449219,13.09199241
58.12215425,-3.555705872,-12.92412415,2.302212524,13.600596
58.13223608,-2.479743347,-12.90421555,3.914060669,13.71086346
58.14231808,-0.8333171082,-12.62250137,4.837640076,13.54343826
58.15240108,0.2001338196,-12.37671249,4.978347473,13.34192674
58.16248308,-0.03951782227,-11.82286423,4.661306763,12.70863726
58.17256608,-1.191971283,-10.46863037,3.950435028,11.2525088
58.18264808,-1.901495819,-10.38181091,4.671934662,11.54229863
58.19273108,-0.8656498718,-11.4145134,6.1710672,13.00471208
58.20281308,0.3576063538,-12.35530701,4.697980499,13.22318095
58.21289508,1.041534119,-14.39825867,-0.1685494995,14.43686444
58.22297808,2.392025757,-17.49906052,-6.684948578,18.88458217
58.23306008,4.177662506,-19.76699432,-10.77010345,22.89502254
58.24314308,6.952292633,-20.09556107,-8.452323303,22.88247619
58.25322508,9.992470551,-18.8622757,-3.083887024,21.56722679
58.26330708,10.40830582,-16.78893723,2.55548584,19.91812619
58.27339008,8.219557343,-14.43702805,6.334227905,17.77952038
58.28347208,7.428452454,-13.23083633,6.260880432,16.41449237
58.29355508,6.525230713,-12.16789673,2.007774811,13.95232978
58.30363708,5.020110626,-11.0176886,-1.83353714,12.2455229
58.31372008,1.657054138,-9.482481079,-2.759212189,10.01381684
58.32380208,-1.777703247,-7.922724609,-2.065554657,8.378323825
58.33388408,-3.146905975,-7.188202057,-1.260977783,7.947536159
58.34396708,-2.344724121,-6.932683411,-0.7789801025,7.359798943
58.35404908,-0.7212002563,-6.900350647,-0.8216413879,6.986419929
58.36413208,0.545615387,-6.790628815,-1.030008087,6.889938498
58.37421408,1.63115799,-6.67177597,-1.096170502,6.955203862
58.38429608,2.43139389,-6.859934692,-0.8047265625,7.322428905
58.39437908,3.118614807,-6.691534882,-0.5610333252,7.40386087
58.40446108,2.074236603,-6.459217987,-1.580413513,6.96574916
58.41454408,1.152004395,-6.425837402,-1.739083557,6.755953823
58.42462608,0.8643026733,-5.746400299,-1.193617859,5.93235696
58.43470908,0.6367758179,-4.317172394,-1.323098602,4.560049433
58.44479108,0.3999682617,-2.879711609,-1.602866821,3.319924036
58.45487308,0.8140072632,-1.79371994,-2.075134735,2.861157671
58.46495608,1.461860046,-1.056952057,-2.472258911,3.060432415
58.47503808,2.194436646,-0.6021977234,-2.349364471,3.270735041
58.48512108,2.871029663,-0.7047344971,-1.545236664,3.335748549
58.49520308,3.481759644,-1.294508057,-0.6370751953,3.76885475
58.50528608,4.05087616,-1.815424805,0.4231700134,4.459196984
58.51536808,4.522545319,-2.642904053,1.509760437,5.451397488
58.52545008,4.592000885,-4.011957092,2.412982178,6.557801067
58.53553308,4.170776825,-6.146817627,3.68922821,8.293922537
58.54561508,3.034190369,-9.503587189,6.61219986,11.96852821
58.55569808,1.951192474,-14.15860703,12.42236755,18.93643368
58.56578008,0.8470884705,-20.20094193,20.09077103,28.50324006
58.57586208,-1.236129456,-28.44579666,31.39316757,42.38186327
58.58594508,-3.885470123,-34.38888794,25.13108963,42.7698978
58.59602708,-5.951473846,-28.23668152,9.857750702,30.49435149
58.60611008,-5.253026276,-16.11758331,3.392994232,17.28823839
58.61619208,-4.692591705,-7.654482422,2.083517303,9.216971434
58.62627508,-3.397185516,-2.153272247,1.222208405,4.203717901
58.63635708,-0.4825964355,-0.818946991,-2.780917053,2.938889782
58.64643908,3.9654039,-4.280648346,-8.157735901,10.02980725
58.65652208,8.569230194,-9.627379761,-11.77256882,17.45598819
58.66660408,12.00488571,-13.67122055,-13.23293198,22.49733409
58.67668708,12.80811539,-14.33494034,-10.98565521,22.14097908
58.68676908,10.69945038,-13.11632446,-5.30511795,17.73867194
58.69685208,3.842210083,-12.7043811,16.01070557,20.79679231
58.70693408,-2.398911438,-12.35620514,24.72842697,27.7475347
58.71701608,2.095791779,-8.417894897,1.302740936,8.772139513
58.72709908,1.45677063,-4.488715668,-9.799372101,10.87650875
58.73718108,1.302441559,-4.095483398,-9.189989319,10.14520783
58.74726408,3.295247498,-5.561534729,-7.192243652,9.670454662
58.75734608,4.546046448,-6.929090881,-7.37037323,11.09059242
58.76742808,4.522994385,-8.063132629,-7.849975891,12.12821947
58.77751108,3.525319061,-9.101523285,-7.054979095,12.04318607
58.78759308,2.48992218,-10.26071274,-3.764671326,11.20958021
58.79767608,1.166374512,-12.03332657,-0.2242337036,12.0918013
58.80775808,-0.8884025574,-13.60206436,1.46724884,13.70978604
58.81784108,-2.569406891,-14.08540924,1.994153137,14.45604552
58.82792308,-2.888094177,-13.30418381,1.73294632,13.72390242
58.83800508,-1.554816742,-11.35388947,0.6613247681,11.47892031
58.84808808,0.1564247131,-8.993897095,-0.3603007507,9.002470232
58.85817008,1.203048248,-7.187154236,-0.830173645,7.334282472
58.86825308,1.695823517,-6.149811401,-1.69432663,6.600510617
58.87833508,1.787283325,-6.168372803,-2.435136108,6.868267073
58.88841808,2.060315552,-7.173981628,-1.677561493,7.650171576
58.89850008,2.115101624,-8.255632324,-0.5438191223,8.53960533
58.90858208,1.73638916,-9.044192505,0.307610321,9.2145043
58.91866508,1.185534668,-9.2658815,0.8943901062,9.384134808
58.92874708,0.527353363,-8.862320709,1.421593781,8.991093304
58.93883008,0.2549198914,-8.296497345,1.9282901,8.521452638
58.94891208,0.2616558838,-7.806266785,1.592837677,7.971411216
58.95899408,0.2192939758,-7.632328491,-0.01032852173,7.635485232
58.96907708,0.2386038208,-7.818391571,-1.647623749,7.99367516
58.97915908,0.762664032,-8.286617889,-2.347717896,8.646471638
58.98924208,1.049317932,-8.768166504,-2.062710571,9.068439053
58.99932408,0.6792874146,-9.271419983,-1.193318481,9.372548687
59.00940708,0.1466949463,-10.04411316,0.3082090759,10.04991151
59.01948908,-0.03652404785,-11.24925705,2.03127594,11.43123791
59.02957108,-0.2389031982,-12.1669986,3.391497345,12.63309874
59.03965408,-0.5486091614,-12.36533615,3.855532379,12.96409041
59.04973608,-0.868793335,-12.36413864,3.086132355,12.7730552
59.05981908,-1.295705566,-12.94672714,2.09324707,13.17870555
59.06990108,-2.000739441,-13.11662384,1.33387619,13.33521672
59.07998408,-3.107238464,-12.68671783,1.198258209,13.11653777
59.09006608,-4.08126297,-12.32072891,1.99849411,13.1320618
59.10014808,-4.012555847,-12.16340607,3.832929382,13.3693829
59.11023108,-2.773432617,-11.92869415,5.510790253,13.42961213
59.12031308,-1.066382446,-11.16827545,5.796096954,12.62783782
59.13039713,-0.3791615295,-10.95377151,4.834646301,11.97926036
59.14047912,-0.5578898621,-10.94838272,3.638034668,11.55048144
59.15056112,-1.285227356,-11.83468964,5.527256012,13.12487132
59.16064412,-1.765728149,-13.10419968,7.433841248,15.16904218
59.17072613,-1.349743195,-14.05023239,3.40616684,14.52008297
59.18080912,-1.075064392,-15.80638046,-4.257296906,16.40493839
59.19089113,-0.02215393066,-19.02049667,-11.53306686,22.24390739
59.20097413,2.557431793,-21.14966904,-12.82982025,24.86872022
59.21105613,5.753884735,-20.64656525,-8.237669678,22.96186072
59.22113812,8.713081055,-18.99639679,-2.068099365,21.0013787
59.23122112,8.952732697,-16.95628922,4.414470062,19.67624742
59.24130312,8.30293396,-15.32782562,7.25571167,18.8819041
59.25138612,8.729546814,-14.43119019,5.506898346,17.74232699
59.26146813,8.430917816,-13.26736038,1.655108185,15.8064104
59.27155013,6.616391144,-11.50597321,-0.8580157471,13.30038504
59.28163313,3.106789398,-9.628277893,-1.113534393,10.17820389
59.29171513,-0.2429447937,-8.420888672,-1.083896027,8.493834163
59.30179813,-1.187031555,-7.743247833,-1.138831787,7.916051336
59.31188012,-0.7030879211,-7.152127075,-1.252894592,7.294998231
59.32196312,0.7893086243,-6.909182281,-1.526675262,7.119729297
59.33204512,2.06166275,-6.692732391,-1.979333954,7.277422831
59.34212713,2.756817169,-6.526428223,-2.483635254,7.507512925
59.35221012,2.668051758,-6.777456207,-2.887944489,7.835345314
59.36229213,2.395917664,-7.12578186,-2.600691833,7.954922161
59.37237513,1.898502045,-6.908433838,-2.190095673,7.491814677
59.38245713,1.147364044,-6.177803192,-2.315085754,6.696366073
59.39254013,0.8524772644,-4.906646576,-2.242486725,5.461743753
59.40262212,0.5818400574,-3.347488861,-2.370470581,4.142867401
59.41270412,0.5722599792,-1.838327179,-2.526146851,3.176215706
59.42278712,1.060544586,-0.7378157043,-2.622696075,2.923638407
59.43286913,1.487756195,0.1770817566,-2.759661255,3.140144373
59.44295212,1.842668152,0.5529501343,-2.355801086,3.04154213
59.45303413,2.329455872,0.2956352234,-1.370549927,2.718854896
59.46311612,2.772833862,-0.439486084,-0.5421725464,2.859319275
59.47319913,3.022963715,-1.191522217,0.1845661926,3.254550582
59.48328112,3.200045471,-2.263892212,0.8882528687,4.019265122
59.49336412,3.178939362,-4.015549622,1.974693604,5.489053566
59.50344612,2.910098419,-6.415359192,3.891457672,8.047915829
59.51352912,2.282603302,-9.824968872,6.99944458,12.27731712
59.52361113,2.15297287,-14.88055573,12.95765442,19.84860295
59.53369313,0.3662882996,-21.81009567,22.83501434,31.57930209
59.54377613,-1.323697357,-32.1904097,33.65990387,46.59360235
59.55385813,-3.482059021,-38.41296982,25.32748123,46.14284658
59.56394113,-4.40189621,-30.00809784,7.294780426,31.1941733
59.57402312,-3.172951813,-16.44450348,1.992805939,16.8659596
59.58410612,-1.369801483,-8.194259949,1.203647003,8.3947018
59.59418812,-0.1963916016,-2.562820587,0.5313949585,2.624690387
59.60427013,0.7909552002,1.404229889,-0.1243913269,1.616460613
59.61435312,3.145558777,-0.4049079895,-3.746109924,4.908342904
59.62443513,5.893993378,-6.521937561,-9.840536499,13.1951122
59.63451813,7.910599823,-12.5398732,-13.70325394,20.18923421
59.64460013,10.09485764,-16.11399078,-12.73686356,22.88655813
59.65468313,9.13131134,-15.88826019,-7.438780975,19.77759139
59.66476512,5.669460297,-14.99836075,8.635691986,18.2117759
59.67484712,1.534758453,-14.23764267,21.49559967,25.82879706
59.68493012,4.326453094,-8.261470184,4.491110687,10.35085316
59.69501213,2.963387604,-2.969973907,-4.985233154,6.515747133
59.70509512,0.3460803223,-1.858834534,-6.039790192,6.328831091
59.71517713,0.0426612854,-3.455414429,-7.096442871,7.893111572
59.72525912,1.269060974,-6.227499847,-8.412655792,10.54348366
59.73534213,2.339634705,-8.192463684,-7.716303864,11.49485524
59.74542412,2.310744781,-9.416318665,-6.910978546,11.90664617
59.75550712,2.484683075,-10.57790314,-4.918471985,11.92715605
59.76558912,2.059567108,-11.71942932,-2.513722687,12.16164635
59.77567212,0.7315287781,-13.06019119,-0.3882925415,13.08642424
59.78575413,-0.7238946533,-13.69696701,1.341660004,13.78154492
59.79583613,-1.650767212,-13.04911423,2.252964935,13.3446718
59.80591913,-1.239721985,-11.70805298,2.194586334,11.97629427
59.81600113,0.2496807861,-9.937235413,1.378633118,10.03551779
59.82608413,1.803599396,-8.177494812,0.7334747314,8.406091682
59.83616612,2.553539886,-6.990313568,0.3629951477,7.45096069
59.84624912,2.713257751,-6.202352142,-0.8839118958,6.827315722
59.85633112,2.52973938,-6.46475647,-1.738484802,7.156464696
59.86641313,2.305355988,-7.664212189,-1.550176392,8.152169131
59.87649613,1.860331421,-8.959319,-0.9096583557,9.195526536
59.88657813,1.219963074,-9.832303619,-0.4140390015,9.91634674
59.89666113,0.7574249268,-10.01267853,0.3531156921,10.04749295
59.90674313,0.4070036316,-9.632768555,1.232536926,9.719826606
59.91682512,-0.02679428101,-8.942254486,1.439855804,9.057473045
59.92690812,-0.4234693909,-8.212372284,1.024020538,8.286796903
59.93699012,-0.3079096985,-7.82901947,0.2351609802,7.838600317
59.94707312,0.1344204712,-7.702532501,-0.979712677,7.765752554
59.95715513,0.3668870544,-7.71091507,-2.173480225,8.019777653
59.96723812,0.3634442139,-7.886649628,-2.502346344,8.282093411
59.97732013,0.3317102051,-8.631051636,-1.424138489,8.754042177
59.98740212,0.2710862732,-9.974507904,0.3900888062,9.985813185
59.99748513,0.5363346863,-11.07262436,2.125130768,11.2874641
