Time (s),Acceleration x (m/s^2),Acceleration y (m/s^2),Acceleration z (m/s^2),Absolute acceleration (m/s^2)
30.00472696,0.7554789734,-8.146958313,1.143921204,8.261491025
30.01480896,0.4724176025,-8.068820801,0.9909393311,8.143157144
30.02489096,0.3412902832,-7.838749237,0.7869136047,7.885537501
30.03497396,0.1577719116,-7.625592499,0.3466790771,7.635099169
30.04505596,0.2163002014,-7.545658722,-0.2121089172,7.551737649
30.05513796,0.4402345276,-7.520361328,-0.960402832,7.594209277
30.06522096,0.5426216125,-7.592511292,-1.710193634,7.801629842
30.07530296,0.7265890503,-7.974816284,-1.878743134,8.225284322
30.08538521,0.8666976929,-8.642427979,-1.155596924,8.76231308
30.09546821,0.9907896423,-9.705517273,0.1743873596,9.757517133
30.10555021,1.083896027,-10.8199498,1.465901642,10.97246608
30.11563221,1.224453735,-11.41810593,2.454445953,11.74294404
30.12571421,1.21577179,-11.55222702,3.190914459,12.04632663
30.13579721,0.7310797119,-11.77107193,3.670217743,12.35164403
30.14587921,-0.160765686,-12.37311996,3.588338013,12.88394788
30.15596121,-1.507215729,-13.14760941,2.583627319,13.48356268
30.16604421,-3.070864105,-13.85294266,1.742376709,14.29580719
30.17612621,-4.069437561,-14.47834213,2.525847473,15.25000388
30.18620821,-4.082759857,-14.65228043,4.365521851,15.82453888
30.19629021,-3.118016052,-13.76028534,5.519023132,15.15015159
30.20637321,-2.244881744,-12.84718414,5.911806335,14.31918603
30.21645521,-2.437531128,-12.70258484,5.368885345,14.0043618
30.22653721,-2.6210495,-12.44212646,4.472698975,13.47892605
30.23662021,-3.254382477,-12.19648727,4.293671265,13.33345117
30.24670221,-3.101101227,-12.76695099,4.460723877,13.87479455
30.25678421,-1.853146362,-13.73603577,3.617377625,14.32474261
30.26686621,-0.8244854736,-15.41180099,0.6695576477,15.44835569
30.27694921,-0.2927911377,-17.82463348,-4.948409729,18.50108225
30.28703121,0.7979905701,-19.65832031,-9.320218506,21.77045749
30.29711321,3.034190369,-18.82141068,-10.03722748,21.54524881
30.30719621,5.215005341,-17.22752518,-8.334069214,19.83533751
30.31727821,6.239624634,-15.45655792,-3.882476349,17.11466392
30.32736021,6.761439514,-14.18974228,1.746867371,15.81510025
30.33744221,6.929539948,-13.51509521,5.36604126,16.1080949
30.34752521,6.1909758,-12.36144424,4.888833618,14.66404376
30.35760721,4.581223297,-10.78896423,1.644929352,11.83617965
30.36768921,2.589016113,-9.981243896,-0.9217831421,10.35267687
30.37777221,-0.1164578247,-9.435778198,-2.230062561,9.696424684
30.38785421,-1.662891998,-8.969048767,-2.097438354,9.359930194
30.39793621,-1.308279419,-8.195607147,-1.646575928,8.46113372
30.40801921,-1.167572021,-7.603288879,-1.120869141,7.77364611
30.41810121,0.1419049072,-7.555538177,-0.9723779297,7.619174036
30.42818321,1.516795807,-7.48967514,-1.219064941,7.738347534
30.43826521,2.138303375,-7.315437469,-1.609902191,7.789720904
30.44834821,2.277813263,-7.012168121,-1.797312469,7.588759262
30.45843021,2.060165863,-6.583609314,-2.068099365,7.201751868
30.46851221,1.779499512,-5.912854156,-2.465223541,6.648743483
30.47859521,1.499731293,-5.062173157,-2.35415451,5.78072958
30.48867721,1.198258209,-4.246369629,-2.238445129,4.947536191
30.49875921,1.196162567,-3.590433655,-2.331401825,4.444935678
30.50884121,1.4730867,-3.200344849,-2.392025757,4.258400967
30.51892421,1.975591736,-2.856509857,-2.381846924,4.211390036
30.52900621,2.29802124,-2.509232025,-2.429747314,4.181006935
30.53908821,2.467019806,-2.283501434,-2.194436646,4.014488475
30.54917121,2.783461761,-2.374961243,-1.48012207,3.947006666
30.55925321,3.360212402,-2.52030899,-0.6393205261,4.24873105
30.56933521,3.960913239,-2.689457245,0.2356100464,4.793487879
30.57941821,4.566254425,-3.298091583,0.7714956665,5.685357784
30.58950021,5.025050354,-4.647385712,1.422192535,6.990848062
30.59958221,5.286706238,-6.930138702,2.562072144,9.085169176
30.60966421,5.11800705,-10.10653336,4.696633301,12.26353852
30.61974721,4.067790985,-13.82824402,8.922944641,16.95246876
30.62982921,2.251018982,-17.99482956,15.50445831,23.85936304
30.63991121,1.285227356,-23.47598145,23.28512833,33.09034172
30.64999421,-0.07409591675,-29.88535309,29.1512796,41.74849604
30.66007621,-2.734962616,-28.99320831,17.74709473,34.1034532
30.67015821,-5.237758026,-19.34891373,5.882167969,20.89053545
30.68024021,-6.175258484,-11.17815491,2.723436584,13.05764417
30.69032321,-6.788084106,-5.335504761,3.587290192,9.349564044
30.70040521,-6.31611557,-2.620450745,3.158581696,7.532377867
30.71048721,-3.393592987,-5.189558258,-3.138523407,6.949699091
30.72057021,0.956660614,-10.4470752,-12.25277023,16.13031178
30.73065221,5.990542603,-13.36196365,-16.95868423,22.40592878
30.74073421,9.502539368,-12.64016464,-12.55963211,20.19446398
30.75081621,9.945168915,-10.54871384,-7.45584549,16.30249614
30.76089921,10.29379395,-9.275910645,-2.757565613,14.12830068
30.77098121,10.72384964,-11.99904785,31.42984131,35.31023966
30.78106321,7.777676239,-9.987979889,12.45080841,17.75597421
30.79114621,1.796713715,-4.641847229,-8.770411835,10.08439634
30.80122821,-3.714824982,-3.728296967,-10.05668701,11.35064212
30.81131021,-5.632936249,-5.332660675,-5.445675659,9.477479836
30.82139321,-2.695594482,-8.178093567,-4.703518982,9.81175493
30.83147521,0.0730480957,-10.34947815,-5.615871735,11.77518787
30.84155721,-0.243842926,-11.54444321,-5.332361298,12.71879339
30.85163921,-0.6981481934,-12.53792725,-4.188440094,13.23744919
30.86172221,-0.6174659729,-13.14910629,-3.021466827,13.50590694
30.87180421,0.009131011963,-12.98729279,-1.389560394,13.06142164
30.88188621,0.6494993591,-12.31399292,0.3891906738,12.33725012
30.89196921,1.06473587,-11.68275558,2.307152252,11.95589361
30.90205121,1.348994751,-10.85213287,3.431763611,11.46148229
30.91213321,1.670975189,-9.988129578,3.810326385,10.8200498
30.92221521,2.34831665,-8.914711761,3.477718048,9.85297923
30.93229821,2.817740479,-7.846083984,2.444416809,8.687684895
30.94238021,2.561174011,-7.248077545,0.7616162109,7.724914218
30.95246221,1.967209167,-7.155869293,-0.250279541,7.425565103
30.96254521,1.22160965,-7.080126801,-0.5565426636,7.206265703
30.97262721,0.7340734863,-7.223528595,-1.255439301,7.368470471
30.98270921,0.905766449,-7.549550629,-1.310824127,7.715852995
30.99279121,0.9830058289,-7.773484955,-0.9252259827,7.889829651
31.00287421,1.116827545,-8.054300995,-0.2377056885,8.134836954
31.01295621,1.678010559,-8.313112793,0.3369493103,8.487467148
31.02303821,2.224224701,-8.292605438,0.6788383484,8.61250846
31.03312121,2.249522095,-8.017776947,0.756227417,8.361637204
31.04320321,1.684746552,-7.695796509,0.1911524963,7.880367639
31.05328521,1.066981201,-7.534282379,-0.9113049316,7.663833018
31.06336821,0.7246430969,-7.531438293,-1.877695312,7.795730246
31.07345021,0.6653663635,-7.796986084,-2.008373566,8.07893983
31.08353233,0.9886940002,-8.784033508,-0.7512876892,8.871369325
31.09361433,1.553768921,-10.17119888,1.249302063,10.36475954
31.10369733,2.085163879,-11.46585663,3.002905426,12.03458423
31.11377933,2.020049286,-12.49287094,4.213587799,13.33816875
31.12386133,1.231189728,-12.89179138,4.26852356,13.63577671
31.13394433,-0.193996582,-13.17200867,3.241808624,13.56645754
31.14402633,-1.529968414,-13.60625565,2.268682251,13.87868564
31.15410833,-2.719844055,-14.26234131,2.196083221,14.68450588
31.16419033,-3.6296521,-14.55333618,3.122656403,15.32073599
31.17427333,-3.826492767,-13.89665176,4.292922821,15.0395533
31.18435533,-3.04227356,-12.67219803,4.812941437,13.89260366
31.19443733,-2.372566223,-12.1430484,4.824766846,13.28010053
31.20452033,-1.897304535,-12.26564346,4.893923035,13.34152378
31.21460233,-2.556533661,-11.98303116,4.190984802,12.949643
31.22468433,-3.498674469,-11.98108521,3.620521088,12.9959724
31.23476633,-2.992127838,-13.58200607,3.850892029,14.43097666
31.24484933,-1.38192627,-15.36360123,2.822081451,15.68164872
31.25493133,0.429307251,-16.90090439,-1.920805664,17.01512175
31.26501333,2.355651398,-18.31097214,-8.24320816,20.21858736
31.27509633,3.773652649,-17.9942308,-9.491013336,20.69087071
31.28517833,4.692741394,-16.61604675,-6.309828644,18.38283898
31.29526033,5.60943512,-15.24654465,-2.212698669,16.39569826
31.30534333,6.261479187,-14.52324875,1.262025604,15.86579921
31.31542533,6.709347839,-14.09139679,3.407364349,15.97475958
31.32550733,6.870113525,-13.44339432,3.548520813,15.50855604
31.33558933,6.176006927,-12.25920685,2.099384308,13.88663489
31.34567233,3.374432831,-11.09313171,-1.32803833,11.67082062
31.35575433,-0.1727407837,-10.65364563,-3.116369476,11.10143069
31.36583633,-2.473157043,-10.45006897,-2.77433075,11.09131905
31.37591933,-3.159928894,-10.16850449,-1.166075134,10.71183296
31.38600133,-2.494113464,-9.961934052,-0.5774990845,10.28563256
31.39608333,-0.9009764099,-9.75386673,-1.193168793,9.867792379
31.40616533,0.7255412292,-9.255103912,-1.782193909,9.453019287
31.41624833,1.885778503,-8.62117218,-2.050885162,9.060182132
31.42633033,2.329904938,-7.995623016,-2.115700378,8.592708102
31.43641233,2.662363586,-7.178172913,-2.191742249,7.963546968
31.44649533,2.777324524,-5.948031006,-2.512375488,7.028843074
31.45657733,2.493065643,-4.701573029,-2.665357361,5.95183124
31.46665933,2.258952484,-3.75598938,-2.586321716,5.089143599
31.47674233,2.041454773,-3.036585388,-2.461631012,4.409990436
31.48682433,2.053429871,-2.548300781,-2.505489807,4.121636845
31.49690633,2.228865051,-2.270777893,-2.523153076,4.060858666
31.50698833,2.558479614,-2.051633606,-2.517764282,4.134507875
31.51707133,2.802921295,-1.776954803,-2.213147736,3.988979702
31.52715333,2.861748962,-1.609453125,-1.686243439,3.690984072
31.53723533,3.400927734,-1.47548172,-0.9342073059,3.823100712
31.54731833,3.929328918,-1.406325531,-0.09684860229,4.174536729
31.55740033,4.062102814,-1.808090057,0.4655319214,4.470636296
31.56748233,3.802841949,-3.110980682,1.382075958,5.103914346
31.57756433,3.313958588,-5.540578308,2.701132965,6.99831757
31.58764733,2.480042725,-8.852590942,5.106331329,10.51634908
31.59772933,1.818119202,-12.59630585,9.400152283,15.82198917
31.60781133,1.56679184,-17.07050171,15.89394836,23.37679319
31.61789433,1.943708038,-22.86989182,22.28865051,31.99365397
31.62797633,0.883762207,-28.7677771,27.01357498,39.47276616
31.63805833,-3.128943329,-29.17029007,17.7939473,34.31210675
31.64814133,-6.348747711,-20.45017365,5.891897736,22.20879687
31.65822333,-6.959028625,-11.52707932,4.164938965,14.09426669
31.66830533,-6.707701263,-5.451513519,5.88905365,10.45912084
31.67838733,-6.336473236,-2.700983276,2.932851105,7.486509155
31.68847033,-4.228257294,-4.752766571,-4.575235748,7.835798107
31.69855233,1.106049957,-10.00818787,-12.79943344,16.28535131
31.70863433,7.242389374,-13.2790361,-17.64994675,23.24447512
31.71871733,10.91859467,-13.52736969,-14.09693527,22.38144375
31.72879933,11.41122025,-11.98258209,-7.947722626,18.35659326
31.73888133,12.40365646,-11.89576263,8.465944977,19.1580815
31.74896333,12.48733246,-17.61192581,37.53175232,43.29833524
31.75904633,8.171956329,-12.14394653,0.819994812,14.66044676
31.76912833,1.490600281,-4.429588623,-12.10832062,12.97900508
31.77921033,-4.513563995,-1.812880096,-8.054750061,9.409452308
31.78929333,-3.824097748,-3.159928894,-3.794160004,6.245360224
31.79937533,-1.108594666,-5.472020874,-5.844296722,8.082561398
31.80945733,0.7303312683,-7.370223541,-7.384893036,10.45897815
31.81953933,0.4830455017,-8.706794128,-7.235503693,11.33111251
31.82962233,0.7198530579,-10.86844894,-5.601950684,12.24839673
31.83970433,0.6101312256,-13.15599197,-3.138523407,13.53893327
31.84978633,0.04101470947,-14.95495102,-0.7688012695,14.97475534
31.85986933,-0.4113446045,-15.27139297,1.255738678,15.32845483
31.86995133,-0.3453318787,-14.24348053,2.842289429,14.52840669
31.88003333,0.2956352234,-12.67474274,3.919599152,13.27025852
31.89011633,0.846789093,-10.80602875,4.266278229,11.64853806
31.90019833,1.167122955,-8.908125458,3.987108765,9.829237583
31.91028033,1.751358032,-7.323370972,3.732188873,8.404061585
31.92036233,2.174528046,-6.541846161,2.540966034,7.347164882
31.93044533,1.581461334,-5.836662598,-0.05792953491,6.047396635
31.94052733,1.113833771,-6.134243774,-1.758094025,6.47768994
31.95060933,0.6248007202,-7.015012207,-1.811083832,7.271918375
31.96069233,0.2459385681,-7.698191528,-1.168470154,7.790247819
31.97077433,0.2264790344,-8.147706757,-0.9636959839,8.207626216
31.98085633,0.6189628601,-8.548273773,-0.5852828979,8.59061439
31.99093933,1.042731628,-8.722511444,-0.0007484436035,8.784616992
32.00102133,1.208586731,-8.58839035,0.4111949158,8.682753708
32.01110333,1.384770355,-8.239915009,0.6797364807,8.383068052
32.02118533,1.412911835,-7.709567871,0.367635498,7.846586039
32.03126833,1.396745453,-7.266339569,-0.5608836365,7.420591556
32.04135033,1.300345917,-6.989265747,-1.876048737,7.352570574
32.05143233,1.479523315,-7.009024658,-2.411036224,7.558340531
32.06151533,1.525627441,-7.549999695,-1.55391861,7.857779427
32.07159733,1.690285034,-8.685688019,0.008981323242,8.848633822
32.08167933,2.143991547,-10.14904495,1.390608215,10.46583033
32.09176133,2.456541595,-11.59384048,2.478396149,12.1076084
32.10184433,2.25356369,-12.44272522,3.192411346,13.0419113
32.11192633,1.180145874,-12.52505402,2.965932312,12.92541979
32.12200833,-0.2525248718,-12.71800278,2.449206848,12.95414905
32.13209133,-1.938917999,-13.43590988,1.649569702,13.67494635
32.14217333,-3.640878754,-14.04604111,0.9235794067,14.5396103
32.15225533,-4.593348083,-14.41652069,1.403182068,15.19552024
32.16233733,-4.026925964,-14.40080338,3.177442474,15.2870995
32.17242033,-2.368824005,-13.90099274,5.109325104,14.9984709
32.18250233,-1.027014313,-13.14192123,5.792953491,14.39872086
32.19258433,-0.9876461792,-12.73237289,5.370382233,13.85387202
32.20266733,-1.598226471,-12.35111572,4.31298111,13.17976455
32.21274933,-2.175276489,-11.48636398,3.680845642,12.25630491
32.22283133,-2.343227234,-11.33472931,3.857029266,12.2001425
32.23291433,-1.140029297,-12.33899094,4.527634735,13.19279502
32.24299633,0.5725593567,-13.99065628,3.156336365,14.3537015
32.25307833,1.573677521,-15.85428085,-2.691852264,16.15799341
32.26316033,2.334395599,-18.02282135,-8.076305237,19.88713651
32.27324333,3.623514862,-18.56035355,-8.370144196,20.68032634
32.28332533,5.569019165,-17.63363068,-6.385720825,19.56364832
32.29340733,7.37501358,-16.59778473,-3.381917267,18.47470291
32.30349033,8.023016052,-15.58259583,0.6246510315,17.53785244
32.31357233,8.262667694,-14.67503311,3.687881012,17.2403231
32.32365433,8.085136871,-13.45986008,5.083129578,16.50380192
32.33373633,6.914870453,-11.77571228,3.618275757,14.12709286
32.34381933,4.138294373,-10.15428406,-0.213306427,10.96724508
32.35390133,0.8319699097,-9.577533417,-2.355202332,9.89789363
32.36398333,-1.562899933,-9.329499207,-2.698887634,9.836981555
32.37406633,-1.968855743,-8.645272064,-1.656605072,9.020058889
32.38414833,-1.003513184,-7.890541534,-0.5492079163,7.973036671
32.39423033,0.2766247559,-7.342381439,-0.8572673035,7.39743156
32.40431233,1.212478638,-7.028933258,-1.511407013,7.291115028
32.41439533,2.233505402,-7.094646606,-1.630259857,7.614479894
32.42447733,2.354304199,-7.299869843,-1.660946045,7.847903525
32.43455933,1.919159088,-6.98073349,-1.503922577,7.394294745
32.44464233,1.655557251,-6.444997559,-1.683249664,6.863832222
32.45472433,1.120869141,-5.74864563,-1.747615814,6.112072909
32.46480633,0.7906558228,-4.838687897,-1.76333313,5.210314858
32.47488933,0.7541317749,-3.932921448,-1.787433014,4.385373716
32.48497133,0.929866333,-2.947221222,-1.959724731,3.65941052
32.49505333,1.37129837,-2.162103882,-2.189347229,3.368737702
32.50513533,1.966011658,-1.664837952,-2.389780426,3.513963251
32.51521833,2.320923615,-1.314266968,-2.362836456,3.563282224
32.52530033,2.245181122,-1.15484848,-1.94116333,3.18474934
32.53538233,2.57419693,-1.385818176,-1.309027863,3.203207111
32.54546533,2.644550629,-1.642085266,-0.5839356995,3.167186914
32.55554733,3.092119904,-2.183808746,0.1803749084,3.789823379
32.56562933,3.23881485,-3.375929718,1.006057892,4.785287408
32.57571233,2.958896942,-5.224585419,2.070644073,6.351293631
32.58579433,2.960842896,-8.130043488,3.836821289,9.464956173
32.59587633,2.671943665,-12.13795898,7.928861847,14.74232619
32.60595833,1.67561554,-17.2882988,16.05306747,23.65151027
32.61604133,1.689686279,-24.32815933,23.73179947,34.02811606
32.62612333,1.728156281,-32.22423935,29.53373428,43.74505214
32.63620533,-1.616039429,-33.70226578,22.57769943,40.59811342
32.64628833,-4.558021545,-22.46752853,8.043972473,24.29549119
32.65637033,-4.722679138,-11.83034866,3.243155823,13.14453907
32.66645233,-4.715643768,-5.115462341,3.003953247,7.578191488
32.67653433,-4.050427094,-0.6313870239,0.7309300232,4.163996627
32.68661733,-2.567760315,0.4596940613,-5.190606079,5.809225691
32.69669933,-0.362845459,-3.195704498,-9.45658493,9.988552579
32.70678133,3.410657501,-8.627608795,-13.38112381,16.28258863
32.71686433,7.717052307,-12.54361542,-14.6459935,20.77017837
32.72694633,10.39797729,-13.94245651,-10.31235535,20.22015574
32.73702833,11.06259521,-13.7819902,-4.031117249,18.12661505
32.74711033,10.00399658,-15.87074661,23.56265121,30.11908162
32.75719333,7.096442871,-19.49141739,29.33629486,35.92900012
32.76727533,3.98067215,-11.26033401,-5.227728882,13.03725516
32.77735733,-0.9442364502,-4.218078461,-12.12643295,12.8737774
32.78744033,-2.875819702,-2.160756683,-6.06927887,7.055165087
32.79752233,-2.648143158,-2.131417694,-3.163521423,4.643648497
32.80760433,-1.058598633,-3.931574249,-4.854255524,6.335748088
32.81768733,-0.1378633118,-6.511609039,-7.421417084,9.874081735
32.82776933,0.2588117981,-9.175020447,-7.91913208,12.12273223
32.83785133,0.3769161987,-11.68964127,-6.056854706,13.17100101
32.84793333,0.04610412598,-13.98362091,-3.156635742,14.3355547
32.85801633,-0.6358776855,-15.61268326,-0.499511261,15.633609
32.86809833,-0.9048683167,-15.42706924,1.744172974,15.5517006
32.87818033,-0.5945635986,-13.9453006,3.548520813,14.40197607
32.88826333,-0.02514770508,-12.09559708,4.373605042,12.86205746
32.89834533,0.5197192383,-10.23496628,3.824097748,10.93838957
32.90842733,1.75869278,-8.259823608,2.774929504,8.889202444
32.91850933,2.994971924,-6.863527222,1.098116455,7.568601092
32.92859233,3.600762177,-5.828878784,-1.694027252,7.057693991
32.93867433,3.572171631,-5.490582275,-2.809956665,7.127605513
32.94875633,3.061134338,-6.040538635,-1.922152863,7.039412054
32.95883933,2.113005981,-7.469167786,-0.6497987366,7.789447996
32.96892133,1.633103943,-8.388855286,0.3736230469,8.554502655
32.97900333,0.87522995,-8.753796387,0.5918692017,8.817328836
32.98908633,0.2644999695,-9.063202972,0.6493496704,9.090284008
32.99916833,0.0556842041,-9.163494415,0.8014334106,9.198642625
33.00925033,0.2742297363,-8.884175262,0.7457492065,8.919636423
33.01933233,0.8069718933,-8.092621307,0.273331604,8.137348059
33.02941533,0.9674382019,-7.518115997,-0.8912466431,7.632321102
33.03949733,0.9249266052,-7.189399567,-1.835483093,7.477429608
33.04957933,0.734223175,-7.288643188,-1.991907806,7.591514994
33.05966233,0.7493417358,-7.93440033,-1.098415833,8.045044373
33.06974433,0.929866333,-9.01320694,0.305514679,9.066194899
33.07982633,1.482367401,-10.1789827,1.447639618,10.38772171
33.08990875,1.939516754,-11.26617188,2.138303375,11.63016317
33.09999075,2.087858276,-11.94620773,2.81055542,12.44870488
33.11007275,1.413660278,-12.23660385,2.805316315,12.63339657
33.12015475,0.1881587219,-12.86394928,2.40684494,13.08852541
33.13023775,-1.473685455,-13.34549789,2.029779053,13.57917766
33.14031975,-3.42832077,-13.47273331,1.945504303,14.03755367
33.15040175,-4.846172333,-13.84411102,2.363734589,14.85705346
33.16048475,-4.858895874,-14.26398788,3.581152954,15.48854015
33.17056675,-3.733835449,-13.83947067,4.971312103,15.17189572
33.18064875,-1.715582428,-12.84808228,5.968089294,14.27005715
33.19073075,-0.5909710693,-12.06506058,6.327042847,13.63621666
33.20081375,-0.2206411743,-11.02771774,5.508694611,12.32902906
33.21089575,0.3098556519,-10.47865952,6.106401672,12.13204258
33.22097775,0.6098318481,-11.32080826,7.012168121,13.33053248
33.23106075,0.6881190491,-12.71186554,6.011499023,14.07846419
33.24114275,0.3585044861,-14.49585571,-0.2263293457,14.50205445
33.25122475,0.4354444885,-16.90569443,-7.839797058,18.64013235
33.26130675,0.6438111877,-19.07094177,-9.581125946,21.35212606
33.27138975,1.743274841,-18.46051117,-8.124804382,20.244553
33.28147175,4.452041931,-17.32362534,-5.833818512,18.81388079
33.29155375,6.714736633,-16.2704155,-2.05118454,17.72065085
33.30163675,7.443870392,-15.47437088,3.053649902,17.44110485
33.31171875,7.922874298,-14.96991989,6.06808136,17.9914438
33.32180075,8.338260498,-14.1190892,5.189857635,17.1991247
33.33188375,7.46512619,-12.52849686,1.228944397,14.63562936
33.34196575,4.877906342,-10.72624466,-1.362766113,11.86184751
33.35204775,1.54688324,-9.324260101,-1.742376709,9.610959931
33.36212975,-0.7420069885,-8.479866028,-2.176923065,8.786221956
33.37221275,-1.671274567,-7.680528259,-1.56439682,8.014425147
33.38229475,-1.245859222,-7.190597076,-0.7818241882,7.339489122
33.39237675,-0.2167492676,-7.049290924,-0.7818241882,7.095824958
33.40245975,0.8900491333,-6.937174072,-1.073268127,7.075908143
33.41254175,1.738634491,-6.907386017,-1.304537201,7.241315405
33.42262375,2.098486176,-7.071594543,-1.364861755,7.501595912
33.43270575,2.075883179,-7.231013031,-1.346450043,7.642628353
33.44278875,1.853146362,-6.86023407,-1.541644135,7.271425553
33.45287075,1.254840546,-6.217770081,-1.447789307,6.506257253
33.46295275,0.7328759766,-5.293142853,-1.271306305,5.492785102
33.47303575,0.3695814514,-4.057761841,-1.236129456,4.257938191
33.48311775,0.4450245667,-2.812052307,-1.633253632,3.282255698
33.49319975,0.7759863281,-1.763183441,-2.228565674,2.945755521
33.50328275,1.28358078,-1.083147583,-2.711162109,3.189230046
33.51336475,1.745520172,-0.6411167908,-2.801424408,3.362417304
33.52344675,2.339185638,-0.7098239136,-2.273771667,3.338514196
33.53352875,2.764451294,-1.075812836,-1.505269775,3.326469797
33.54361175,3.004252625,-1.598226471,-0.5638774109,3.449321588
33.55369375,3.351680145,-2.597248993,0.333356781,4.253303289
33.56377575,3.349434814,-4.181105347,1.052910461,5.459759696
33.57385875,2.990032196,-6.319259033,2.152374115,7.314782402
33.58394075,2.723885651,-9.671088867,4.114793243,10.85730336
33.59402275,1.828148346,-14.01610336,9.046437836,16.78187467
33.60410475,0.08831634521,-19.25820236,18.12161591,26.44388627
33.61418775,0.14040802,-26.11469421,25.98491409,36.84036819
33.62426975,0.6319857788,-32.84499847,30.20329193,44.62546554
33.63435175,-0.5538482666,-29.77742752,18.67306915,35.15231784
33.64443475,-1.446142731,-17.36074814,6.629563751,18.63968938
33.65451675,-1.520538025,-9.242380371,2.889740753,9.802256497
33.66459875,-1.958976288,-4.100572815,1.653162231,4.835827837
33.67468175,-0.7746391296,-0.7191046143,-1.130449219,1.547608692
33.68476375,2.09564209,-0.5625302124,-5.837860107,6.228062832
33.69484575,5.728886719,-5.281317444,-9.157207489,12.02359788
33.70492775,7.899073792,-11.21333176,-12.86335052,18.80425384
33.71501075,9.175319824,-14.21219559,-13.58440109,21.69582795
33.72509275,9.730814667,-13.81911301,-8.894503784,19.09892238
33.73517475,8.517737274,-12.73865982,-1.541644135,15.40136257
33.74525775,3.15918045,-14.86064713,30.357621,33.94708245
33.75533975,0.3384461975,-14.48597626,13.74666367,19.97320244
33.76542175,0.003891906738,-8.14261734,-10.35307068,13.17149592
33.77550375,-2.323168945,-4.584217072,-10.46114594,11.65537363
33.78558675,-1.270258484,-4.449347534,-4.016447754,6.12716106
33.79566875,0.2600093079,-5.328170013,-3.770359497,6.53242767
33.80575075,2.040706329,-7.187902679,-5.899681549,9.520329282
33.81583375,2.578088837,-8.627908173,-6.602619781,11.16610628
33.82591575,2.429298248,-9.961634674,-5.576802979,11.67203439
33.83599775,2.318827972,-11.50432663,-3.095413055,12.13705386
33.84608075,1.594933319,-12.76096344,-0.5480104065,12.87191966
33.85616275,0.8918453979,-13.46405136,0.5718109131,13.50566677
33.86624475,0.4206253052,-13.63409775,1.497336273,13.72252028
33.87632675,0.006885681152,-12.83146683,2.754272461,13.12374204
33.88640975,-0.1261875916,-11.13384705,3.434907074,11.65234139
33.89649175,0.1020877075,-9.347012787,3.188070374,9.876277773
33.90657375,1.009051666,-7.777077484,1.809137878,8.048235789
33.91665675,1.729204102,-6.508166199,-0.7710466003,6.777970711
33.92673875,1.96107193,-5.851182404,-2.931204529,6.831844453
33.93682075,1.70360733,-6.176455994,-2.851719818,7.013072971
33.94690275,1.415606232,-6.944658508,-1.447190552,7.233711585
33.95698575,0.858614502,-7.934699707,0.1130149841,7.981820011
33.96706775,0.1466949463,-8.852441254,0.7846682739,8.888359796
33.97714975,-0.6782395935,-9.278155975,0.8707392883,9.34357395
33.98723275,-1.40288269,-9.18983963,0.7083270264,9.323248331
33.99731475,-1.681154022,-8.727451172,0.5185217285,8.903007783
34.00739675,-1.456471252,-8.244555359,0.1926493835,8.374432241
34.01747975,-0.8102650452,-7.895481262,-0.4529580688,7.949863195
34.02756175,-0.060025177,-7.642806702,-1.252894592,7.745052754
34.03764375,0.3213816833,-7.468718719,-1.778451691,7.684265476
34.04772575,0.4992118835,-7.588170319,-1.444196777,7.740493887
34.05780875,0.8035290527,-8.442294159,-0.2189945984,8.483274618
34.06789075,1.025218048,-9.420210571,0.9267228699,9.521042723
34.07797275,1.113983459,-10.73328003,1.544338531,10.90088257
34.08805621,1.09991272,-12.2186412,2.08396637,12.44379029
34.09813821,0.6339317322,-12.84823196,1.920655975,13.0064543
34.10822021,-0.2040257263,-12.62729141,1.658850403,12.73742123
34.11830321,-0.9716294861,-12.65902542,1.307530975,12.76340964
34.12838521,-1.62053009,-13.39788895,1.078357544,13.5385524
34.13846721,-2.429597626,-13.74277176,1.220112762,14.00911829
34.14854921,-2.940335541,-13.68633911,1.816921692,14.1160425
34.15863221,-2.333946533,-13.78258896,3.504212952,14.41133489
34.16871421,-0.7348219299,-13.64742004,5.267246704,14.64704492
34.17879621,0.3680845642,-13.56793533,6.303691406,14.96532261
34.18887921,0.01945953369,-13.45462097,6.090684357,14.76900945
34.19896121,-1.312919769,-12.68162842,4.858895874,13.64391171
34.20904321,-1.897005157,-11.51465515,4.299808502,12.43681088
34.21912521,-1.940414886,-11.27635071,5.026098175,12.49731804
34.22920821,-1.052461395,-12.31758545,5.211712189,13.41612948
34.23929021,-0.1321751404,-13.66822678,1.449286194,13.74548377
34.24937221,0.2055226135,-15.2073262,-5.793851624,16.27494167
34.25945521,0.5858816528,-17.02035599,-8.973689117,19.25000965
34.26953721,2.223476257,-17.50280273,-7.593409424,19.20811852
34.27961921,3.859274597,-16.76603485,-5.037773895,17.92688179
34.28970221,5.436844025,-16.05980347,-1.116977234,16.99188625
34.29978421,5.801186371,-15.16062332,2.731819153,16.46089605
34.30986621,6.515650635,-15.1118248,4.793781281,17.14063275
34.31994821,6.852450256,-14.38688232,3.429967346,16.30040286
34.33003121,6.056854706,-12.5690625,-0.3222798157,13.95602685
34.34011321,4.889432373,-11.32410141,-1.28358078,12.40118548
34.35019521,3.173849945,-10.14171021,-0.5634283447,10.64166626
34.36027821,1.876647491,-9.292226715,-0.5617817688,9.496466811
34.37036021,1.189127197,-8.639434204,-1.296753387,8.816769034
34.38044221,0.2704875183,-8.139922943,-1.514251099,8.283988496
34.39052421,0.1143621826,-8.127947845,-0.9544152832,8.184590608
34.40060721,0.7382647705,-8.064928894,-0.9806108093,8.157800592
34.41068921,1.132245483,-7.816445618,-1.314117279,8.006603909
34.42077121,1.39824234,-7.492369537,-1.515598297,7.770953682
34.43085421,1.209185486,-7.02758606,-1.573827209,7.302467217
34.44093621,0.9475296021,-6.509962463,-1.599873047,6.770304084
34.45101821,0.7210505676,-5.657036133,-1.638193359,5.933434858
34.46110121,0.1740879822,-4.839136963,-1.626517639,5.108141815
34.47118321,0.1278341675,-3.976630554,-1.871258698,4.396764862
34.48126521,0.4219725037,-2.985242157,-2.187251587,3.724755164
34.49134721,0.9927355957,-1.9481987,-2.469863892,3.298670911
34.50143021,1.499431915,-1.0577005,-2.674188995,3.243194906
34.51151221,1.841470642,-0.4899311829,-2.614612885,3.235312539
34.52159421,2.092049561,-0.3107537842,-2.066602478,2.957039919
34.53167721,2.415227509,-0.4787045288,-1.397493896,2.83116074
34.54175921,2.734812927,-0.8619076538,-0.6423143005,2.938478214
34.55184121,2.916535034,-1.457668762,0.2291734314,3.268561654
34.56192321,2.7988797,-2.66311203,1.251846771,4.061159144
34.57200621,2.692451019,-4.672084351,2.535128174,5.95856858
34.58208821,2.294728088,-7.778424683,4.488116913,9.268919083
34.59217021,2.145189056,-12.12418762,8.81546814,15.1429931
34.60225321,2.09564209,-17.55055344,17.31644028,24.74414568
34.61233521,2.236199799,-24.46736984,25.37418411,35.31999428
34.62241721,1.258283386,-32.27618134,29.48014572,43.73115766
34.63250021,-2.358196106,-33.4338739,19.25416077,38.6536896
34.64258221,-5.120851135,-21.90365112,5.372777252,23.12703579
34.65266421,-4.562512207,-11.54429352,3.20139267,12.81936603
34.66274621,-2.925965424,-5.273234253,3.429368591,6.937495375
34.67282921,-0.2463876343,-1.767225037,0.4546046448,1.84131925
34.68291121,4.636757812,-2.740201721,-5.394631805,7.623009957
34.69299321,10.18946091,-7.928562469,-9.639803925,16.11251179
34.70307621,11.54354507,-12.81784515,-11.6626973,20.82232205
34.71315821,10.04111938,-13.49324066,-12.24812988,20.8064487
34.72324021,8.552015991,-11.23728195,-8.247399445,16.35338133
34.73332221,7.742798767,-9.942474518,-0.7059320068,12.62149247
34.74340521,3.162623291,-11.07097778,25.95707199,28.39609694
34.75348721,0.8330177307,-9.35255127,11.25344833,14.65620119
34.76356921,0.7343728638,-5.420078888,-7.725135498,9.465425353
34.77365221,-1.158890076,-4.013004913,-8.977581024,9.901726904
34.78373421,-0.6292913818,-4.818030853,-5.562732239,7.386028629
34.79381621,0.3480262756,-6.776857452,-5.735023956,8.884673263
34.80389921,1.334474945,-9.045240326,-7.231013031,11.65696124
34.81398121,1.144819336,-10.53733749,-7.450756073,12.95607421
34.82406321,0.6125262451,-11.84277283,-5.844446411,13.2205904
34.83414521,0.06631210327,-13.1265033,-2.543959808,13.37090938
34.84422821,-0.6788383484,-13.91581192,1.131796417,13.97825476
34.85431021,-1.466350708,-13.71882156,3.081342316,14.13686387
34.86439221,-1.40991806,-12.94717621,3.429817657,13.46777227
34.87447521,-0.867146759,-11.57123749,3.354823608,12.07892056
34.88455721,-0.274379425,-9.985734558,2.655178528,10.33635099
34.89463921,0.3474275208,-8.569379883,1.601819,8.724723581
34.90472221,1.036145325,-7.609875183,0.1610650635,7.681779702
34.91480421,1.536255341,-6.606960754,-2.062261505,7.089776682
34.92488621,2.06046524,-6.079457703,-3.333268433,7.23298012
34.93496821,1.902693329,-6.441255341,-2.34951416,7.115492186
34.94505121,1.655557251,-7.335196381,-0.6764433289,7.550069624
34.95513321,1.395398254,-8.184380493,0.2383044434,8.305902079
34.96521521,1.037791901,-8.558302917,0.3528163147,8.628211878
34.97529821,0.5867797852,-8.736282806,0.5441184998,8.772856589
34.98538021,0.3836521912,-8.468938751,0.8039781189,8.515661653
34.99546221,0.3433859253,-7.920179901,0.715512085,7.959844289
35.00554421,0.759969635,-7.372468872,0.3297642517,7.41886754
35.01562721,1.200054474,-6.964118042,-0.480201416,7.083054725
35.02570921,1.130598907,-7.028933258,-1.332379303,7.242885561
35.03579121,1.158890076,-7.754624176,-1.230141907,7.936653667
35.04587421,0.8562194824,-8.926237793,-0.1962419128,8.96935582
35.05595621,0.826431427,-10.05758514,1.158141632,10.15772119
35.06603821,0.8195457458,-11.20285355,2.135908356,11.43405822
35.07612121,0.3579057312,-11.98572556,2.396516418,12.22820529
35.08620333,-0.1157093811,-12.18361404,2.526895294,12.4434336
35.09628533,-0.9238787842,-12.47850082,2.380200348,12.73702825
35.10636733,-1.744771729,-13.04252792,1.927391968,13.29912038
35.11645033,-2.839894409,-13.21092773,1.392554169,13.58428574
35.12653233,-3.149600372,-13.28637085,1.759740601,13.76750957
35.13661433,-2.81055542,-13.35657486,3.123554535,14.00192511
35.14669733,-2.289788361,-13.31900299,4.885241089,14.37026624
35.15677933,-1.49883316,-12.7588678,5.807323608,14.09823449
35.16686133,-0.889151001,-12.21819214,6.157146149,13.71077158
35.17694433,-0.9415420532,-11.76298874,5.727389832,13.11706521
35.18702633,-0.6393205261,-11.24267075,5.374274139,12.47754779
35.19710833,-0.3427871704,-11.68036057,6.597380676,13.41915637
35.20719033,-0.03742218018,-12.3740181,6.559808807,14.00531384
35.21727333,0.2921923828,-13.35462891,2.112856293,13.52389187
35.22735533,0.07214996338,-15.37078629,-4.920567627,16.13933897
35.23743733,-0.06855743408,-18.26202393,-8.888965302,20.31058645
35.24752033,1.301693115,-19.4102861,-8.720116425,21.31886587
35.25760233,3.547922058,-18.06218948,-6.887477417,19.65369647
35.26768433,5.908812561,-16.87455917,-3.649411011,18.24782217
35.27776633,7.140151978,-15.69770645,1.034498749,17.27628275
35.28784933,7.756270752,-15.29654068,5.249433746,17.9360098
35.29793133,8.225095825,-14.91722946,5.42337204,17.87704954
35.30801333,7.838898926,-13.26945602,2.264940033,15.57744372
35.31809633,6.305038605,-11.55028107,0.3040177917,13.16263391
35.32817833,3.112926636,-9.957742767,-0.143102417,10.4339557
35.33826033,0.4291575623,-8.585695953,-0.9006770325,8.643469809
35.34834233,-1.111438751,-7.751181335,-2.510878601,8.223175758
35.35842533,-1.550775146,-7.246580658,-2.070943451,7.694585211
35.36850733,-0.7806266785,-7.080875244,-1.146016846,7.215367409
35.37858933,0.09999206543,-7.327562256,-1.17011673,7.421074059
35.38867233,1.358724518,-7.550149384,-1.638193359,7.844397078
35.39875433,2.188748474,-7.610923004,-1.692530365,8.098236098
35.40883633,2.24772583,-7.450456696,-1.58310791,7.941524226
35.41891933,1.684746552,-7.033723297,-1.488654327,7.384289138
35.42900133,1.126856689,-6.509962463,-1.440604248,6.76200842
35.43908333,0.6267466736,-5.508844299,-1.400787048,5.718599589
35.44916533,0.1233435059,-4.25909317,-1.455722809,4.50268999
35.45924833,0.1525328064,-3.065325623,-1.792372742,3.554164807
35.46933033,0.6456074524,-1.975891113,-2.240391083,3.056191564
35.47941233,1.281335449,-1.235231323,-2.796035614,3.314427871
35.48949533,1.708097992,-0.7789801025,-3.151396637,3.668202491
35.49957733,2.174677734,-0.7089257812,-2.76145752,3.585728189
35.50965933,2.813399506,-1.008003845,-1.914518738,3.549178853
35.51974233,3.373684387,-1.283880157,-0.9608518982,3.73541577
35.52982433,3.881877594,-1.96107193,0.004490661621,4.3491145
35.53990633,3.902834015,-3.387306061,0.9204359436,5.249110213
35.54998833,3.482807465,-5.550308075,2.145638123,6.894898876
35.56007133,2.991978149,-8.913214874,4.282893677,10.33152994
35.57015333,2.367925873,-13.36810089,9.411528625,16.51938454
35.58023533,0.9268725586,-18.68085297,18.83263733,26.54244881
35.59031833,1.274749146,-25.65395233,26.0684404,36.59663701
35.60040033,1.309476929,-33.00845856,30.1134787,44.70005219
35.61048233,-1.095721436,-31.54989166,19.29697174,36.99958632
35.62056533,-2.651885376,-18.88457932,6.7244664,20.22073887
35.63064733,-3.187621307,-9.690099335,2.639461212,10.53687383
35.64072933,-3.55825058,-3.908372498,1.770817566,5.574254894
35.65081133,-1.82410675,-0.5950126648,-0.5640270996,1.999883016
35.66089433,2.375859375,-2.142794037,-5.387746124,6.266105836
35.67097633,5.611530762,-7.937094727,-9.814790039,13.81364737
35.68105833,6.834188232,-12.93310547,-13.46494949,19.88155453
35.69114133,7.906857605,-14.25829971,-14.05846527,21.52807362
35.70122333,8.352181549,-13.48830093,-9.416019287,18.44870234
35.71130533,6.982829132,-12.14918564,-0.9054670715,14.0421681
35.72138733,1.062640228,-12.72503815,27.61996399,30.4289042
35.73147033,0.9535171509,-9.835297394,10.30457153,14.2767806
35.74155233,1.808239746,-5.417683868,-7.269033966,9.24445154
35.75163433,-0.02005828857,-3.648662567,-9.462722168,10.14180712
35.76171733,0.8286767578,-4.302951965,-5.337450714,6.905829488
35.77179933,3.066972198,-6.264023895,-5.218448181,8.710712672
35.78188133,4.157454529,-8.360414429,-7.233258362,11.81105347
35.79196433,3.648512878,-9.843829651,-7.515122223,12.91083616
35.80204633,2.979853363,-11.2061467,-5.632337494,12.89110063
35.81212833,1.715881805,-12.47341141,-2.501148834,12.83689947
35.82221033,0.2573149109,-13.51045486,0.007634124756,13.51290716
35.83229333,-1.056652679,-13.81357452,1.591191101,13.94500789
35.84237533,-1.901196442,-13.25987595,3.093167725,13.74796511
35.85245733,-1.745969238,-11.72676407,3.332220612,12.31540086
35.86254033,-1.038690033,-9.884544983,2.134860535,10.16566456
35.87262233,0.06182144165,-8.103099518,0.3263214111,8.109903165
35.88270433,1.44734024,-6.754703522,-0.9246272278,6.969630474
35.89278733,2.170037384,-6.054309998,-1.846560059,6.691301506
35.90286933,1.841620331,-5.93231369,-1.892963562,6.493629356
35.91295133,1.103056183,-6.951244812,-0.8584648132,7.090380752
35.92303333,0.8728349304,-8.508306885,0.2646496582,8.557053599
35.93311633,0.338745575,-9.455237732,0.7822732544,9.493588393
35.94319833,-0.2610571289,-9.747579803,0.816252594,9.785179158
35.95328033,-0.5816903687,-9.636959839,1.316961365,9.743908141
35.96336333,-0.5533992004,-9.082961884,2.017953644,9.320868209
35.97344533,-0.1501377869,-8.473579102,2.044598236,8.718054031
35.98352733,0.31943573,-7.79399231,0.9431886292,7.857350705
35.99360933,0.4297563171,-7.407196655,-0.9680369568,7.482536223
36.00369233,0.6183641052,-7.301666107,-2.297272797,7.67946381
36.01377433,0.7649093628,-7.441475372,-2.26643692,7.816481201
36.02385633,0.8604107666,-8.052205353,-0.9783654785,8.156930596
36.03393933,1.002615051,-9.048683167,0.5661227417,9.121644531
36.04402133,1.435963898,-10.16551071,1.685045929,10.40379643
36.05410333,1.689237213,-11.04702759,2.053579559,11.36254945
36.06418633,1.544039154,-11.36975647,1.983225861,11.64425197
36.07426833,1.007704468,-11.35463791,1.962568817,11.56697656
36.08435033,0.112565918,-11.66374512,1.732048187,11.79218437
36.094432,-1.178050232,-12.17403397,0.9758207703,12.26976493
36.104515,-2.570305023,-12.66710861,0.5486091614,12.93688836
36.114597,-3.416046295,-13.13249084,0.812510376,13.59381702
36.124679,-3.29958847,-13.65041382,2.294129333,14.22969117
36.134762,-2.434387665,-13.90892624,4.287384338,14.75690133
36.144844,-1.299597473,-13.54623047,5.117408295,14.53881636
36.154926,-1.031954041,-13.2910112,4.949008484,14.22000678
36.165009,-2.208208008,-12.93714706,4.243076477,13.79310171
36.175091,-2.83510437,-12.10397964,3.537593536,12.92511927
36.185173,-2.457439728,-11.97255295,3.794908447,12.7977484
36.195255,-1.342408447,-12.58852203,4.010160828,13.27984704
36.205338,0.3475772095,-13.67526215,3.197051697,14.0483004
36.21542,2.034868469,-15.50356018,0.8012837219,15.65704709
36.225502,2.970273285,-17.11585739,-4.720433807,18.00159973
36.235585,4.450245667,-18.35722595,-8.340056763,20.64821973
36.245667,6.703659668,-18.41291016,-7.20302124,20.87720835
36.255749,9.155261536,-17.61536865,-3.123255157,20.09663527
36.265831,9.711804199,-15.8244928,1.252146149,18.60918008
36.275914,8.357420654,-13.80174911,4.046385498,16.6345422
36.285996,7.895331573,-12.78700928,4.51655777,15.69213692
36.296078,6.835834808,-11.81313446,2.18216217,13.82174428
36.306161,4.546794891,-10.68912186,-0.5486091614,11.62891404
36.316243,1.848805389,-9.868079224,-1.188678131,10.10989736
36.326325,-0.5923182678,-8.826245728,-1.738933868,9.01539492
36.336408,-1.949096832,-8.133486328,-2.537074127,8.740098594
36.34649,-1.903890839,-7.458988953,-2.148482208,7.99232709
36.356572,-1.017134857,-7.000193024,-1.296154633,7.191472903
36.366654,-0.03143463135,-6.699468384,-0.9430389404,6.76558846
36.376737,0.772842865,-6.766079865,-1.255439301,6.924828566
36.386819,1.459165649,-6.952891388,-1.240021362,7.211762338
36.396901,1.516646118,-6.91172699,-1.258133698,7.187147266
36.406984,1.281784515,-6.521937561,-1.563947754,6.828218924
36.417066,1.024020538,-5.971083069,-1.533261566,6.249267326
36.427148,0.5143304443,-5.129084015,-1.439855804,5.352123259
36.437231,0.3589535522,-4.051025848,-1.412612457,4.305244712
36.447313,0.5200186157,-2.894081726,-1.641486511,3.367581679
36.457395,1.045426025,-1.873504028,-2.033072205,2.955725885
36.467477,1.559157715,-1.103205872,-2.33200058,3.014342827
36.47756,1.738185425,-0.6117778015,-2.396067352,3.022697373
36.487642,2.087558899,-0.6283932495,-1.819765778,2.839775998
36.497724,2.404749298,-0.9699829102,-1.044078827,2.795315122
36.507807,2.876717834,-1.28941864,-0.3149450684,3.168169239
36.517889,3.121608582,-1.994751892,0.577199707,3.749217885
36.527971,3.038082275,-3.333717499,1.691033478,4.816971092
36.538054,2.861150208,-5.554199982,2.950364685,6.909411677
36.548136,2.837649078,-9.090146942,5.062322845,10.78471772
36.558218,2.614612885,-13.9665564,11.14552277,18.05889188
36.5683,1.676064606,-20.07310776,21.19951538,29.24308978
36.578383,1.690584412,-28.07352081,28.20180405,39.82866302
36.588465,0.8017327881,-35.57966171,28.95114578,45.87727046
36.598547,-1.677561493,-31.15097122,14.09693527,34.23332886
36.60863,-2.641407166,-17.51896912,4.869972839,18.37411076
36.618712,-2.705024872,-7.987390137,2.571502533,8.816359001
36.628794,-2.493365021,-2.074386292,1.258882141,3.479185517
36.638876,0.3170407104,0.3926335144,-2.813399506,2.85830241
36.648959,5.472320251,-2.897674255,-8.75454483,10.72309938
36.659041,9.432335358,-9.520352325,-12.34333191,18.21987655
36.669123,10.0846788,-13.94021118,-14.89462646,22.75697985
36.679206,9.561067657,-14.0713385,-13.40402618,21.65835866
36.689288,8.1285466,-12.11490692,-6.93163559,16.15214572
36.69937,4.324806519,-11.10630432,11.53276749,16.58489291
36.709453,-1.805245972,-12.2824086,27.00504272,29.72185739
36.719535,0.5331912231,-8.699010315,-1.281335449,8.809023435
36.729617,0.9036708069,-5.38355484,-8.556656342,10.14966262
36.739699,0.6415658569,-4.450545044,-7.021748199,8.338099646
36.749782,1.554068298,-5.470374298,-5.038971405,7.598115296
36.759864,2.255060577,-7.146289215,-6.628216553,10.00439915
36.769946,2.634521484,-8.900491333,-8.124505005,12.33560015
36.780029,2.076332245,-10.30187714,-7.188651123,12.73249909
36.790111,1.663341064,-11.91312653,-3.887865143,12.64139164
36.800193,0.7363188171,-13.18563034,0.1222956848,13.20673953
36.810275,-0.7780819702,-13.65849701,1.947599945,13.81857799
36.820358,-1.479373627,-13.46240479,2.0079245,13.69148092
36.83044,-1.452429657,-12.49257156,1.703757019,12.69159896
36.840522,-1.13029953,-10.90182953,1.165626068,11.0220755
36.850605,-0.4284091187,-9.01320694,0.4261637878,9.033440612
36.860687,0.9586065674,-7.294181671,-0.4543052673,7.370916231
36.870769,2.168989563,-5.95461731,-1.869612122,6.607377128
36.880852,2.788401489,-5.305267639,-2.264640656,6.406999679
36.890934,2.530637512,-5.796845398,-1.19227066,6.436540384
36.901016,1.879491577,-6.902745667,-0.2680924988,7.159068369
36.911099,1.548529816,-8.131091309,0.2210902405,8.280185466
36.921181,0.8069718933,-8.811576233,0.1243913269,8.849324977
36.931263,0.03592529297,-9.000483398,0.6090834045,9.021140428
36.941345,-0.460891571,-8.812174988,1.187031555,8.903701083
36.951428,-0.4314028931,-8.406368866,1.197509766,8.502186519
36.96151,-0.09535171509,-7.968978424,0.116308136,7.970397522
36.971592,0.170944519,-7.967780914,-1.442849579,8.099170923
36.981675,0.3414399719,-8.266260223,-2.036964111,8.520379224
36.991757,0.119002533,-8.688831482,-1.337768097,8.792017835
37.001839,-0.119002533,-9.313332825,0.01586700439,9.314106595
37.011921,0.008083190918,-10.25442581,1.270108795,10.33278716
37.022004,0.02574645996,-11.3760434,2.109114075,11.56993468
37.032086,-0.05553451538,-11.91986252,2.686613159,12.21900556
37.042168,-0.4209246826,-11.84606598,2.699187012,12.15697608
37.052251,-0.8412506104,-11.95114746,1.899849243,12.1304186
37.062333,-1.142723694,-12.54930359,1.122515717,12.65112167
37.072415,-1.368154907,-13.14880692,1.133892059,13.26833382
37.082498,-2.136207733,-13.24745178,1.698667603,13.52567314
37.09257996,-2.76609787,-13.18667816,2.705473938,13.74261138
37.10266196,-2.604434052,-13.31151855,3.737877045,14.06951768
37.11274496,-1.718426514,-13.28188019,4.140090637,14.01790575
37.12282696,-1.18179245,-13.43276642,4.660109253,14.26718141
37.13290896,-1.110989685,-13.33412155,5.357658691,14.41310523
37.14299096,-1.030606842,-12.07718536,5.458099823,13.29328441
37.15307396,-0.6532415771,-11.79202835,6.660549316,13.55881906
37.16315596,-0.4942721558,-12.02988373,6.497089233,13.68117597
37.17323796,0.001945953369,-12.32117798,2.625540161,12.59781297
37.18332096,0.9410929871,-13.79770752,-3.59806778,14.29015327
37.19340296,0.883762207,-16.18269791,-8.675209808,18.38260081
37.20348496,1.495540009,-18.35348373,-8.842412109,20.42731644
37.21356696,3.660637665,-18.38192459,-6.171965332,19.73293125
37.22364996,6.217620392,-17.9916861,-2.777174835,19.23726259
37.23373196,7.608078918,-17.27602432,1.258882141,18.91900276
37.24381396,7.726482697,-16.13315094,4.110302582,18.35406444
37.25389696,7.796686707,-15.18891449,4.078418884,17.55348819
37.26397896,7.139253845,-13.38486603,1.839674377,15.28096809
37.27406096,5.911506958,-11.64922531,0.2954855347,13.06666279
37.28414396,3.926484833,-10.11551468,0.08666976929,10.85119496
37.29422596,1.381028137,-8.750054169,-0.445922699,8.869584755
37.30430796,-0.6342311096,-7.813451843,-1.692829742,8.019847339
37.31438996,-1.663790131,-7.022197266,-1.777553558,7.4323044
37.32447296,-1.666334839,-6.866520996,-1.323847046,7.188765776
37.33455496,-0.5043013,-6.952292633,-1.401685181,7.110092405
37.34463696,1.030008087,-7.096442871,-1.653162231,7.358896891
37.35471996,2.038610687,-7.167095947,-1.437909851,7.58885911
37.36480196,2.327659607,-7.048692169,-1.273401947,7.53150802
37.37488396,2.138752441,-6.633156281,-1.390608215,7.106814719
37.38496596,1.590592346,-6.032455444,-1.440604248,6.402799645
37.39504896,0.9647438049,-5.332810364,-1.169068909,5.544034551
37.40513096,0.5140310669,-4.272565155,-1.110540619,4.44436063
37.41521296,0.2052232361,-3.22130127,-1.435065765,3.532465456
37.42529596,0.2906954956,-2.261347504,-1.836081848,2.927352551
37.43537796,0.9033714294,-1.403930511,-2.342927856,2.876875347
37.44545996,1.199455719,-0.6613247681,-2.426005096,2.785954989
37.45554296,1.494641876,-0.3827540588,-1.824256439,2.389218819
37.46562496,2.30041626,-0.7454498291,-1.012793884,2.621709722
37.47570696,2.875370636,-1.071322174,-0.1639091492,3.072841308
37.48578996,3.050506439,-1.510209503,0.7367678833,3.482692808
37.49587196,2.855761414,-2.57419693,1.764680328,4.230361657
37.50595396,2.662962341,-4.513414307,3.089724884,6.083475733
37.51603596,2.044298859,-7.682025146,5.073100433,9.430218247
37.52611896,1.716929626,-12.18391342,9.50463501,15.54778699
37.53620096,1.401984558,-17.72314453,17.91923676,25.24231484
37.54628296,1.6814534,-24.39926147,24.43488739,34.57188117
37.55636596,1.855092316,-31.07807281,26.33309006,40.77645901
37.56644796,-0.4320016479,-31.0078688,16.83504135,35.28587778
37.57652996,-2.991529083,-19.82013382,6.497238922,21.07133276
37.58661196,-3.231629791,-9.984087982,4.438270569,11.3940199
37.59669496,-2.669249268,-4.108805695,4.090094604,6.382479907
37.60677696,-0.3215313721,-2.033820648,0.933608551,2.260848022
37.61685896,4.958139496,-6.284680939,-5.099445648,9.491296417
37.62694196,8.14141983,-12.5518483,-10.44842239,18.24831891
37.63702396,8.142018585,-14.79194,-13.6240686,21.69583372
37.64710596,7.588469696,-12.50724106,-11.92644882,18.87474855
37.65718896,7.201224976,-9.79592926,-6.566694489,13.81808046
37.66727096,5.866899719,-8.363857269,6.321354675,12.01391467
37.67735296,2.87611908,-8.102351074,22.89953018,24.46034825
37.68743496,2.676883392,-5.208718414,1.377884674,6.016229583
37.69751796,-0.09595046997,-3.664529572,-8.857231293,9.585850492
37.70759996,-1.278641052,-4.749623108,-7.879165192,9.288438336
37.71768196,-0.3715274048,-7.311246185,-5.737418976,9.301092941
37.72776496,0.920735321,-9.931846619,-6.732250214,12.03380753
37.73784696,1.455273743,-11.33921997,-7.218738556,13.52057386
37.74792896,1.24960144,-11.92570038,-5.652246094,13.25638409
37.75801196,1.000968475,-12.62923737,-2.55668335,12.92424869
37.76809396,0.6848258972,-13.12485672,1.05425766,13.18492737
37.77817596,0.02035766602,-12.96019913,2.744842072,13.24769164
37.78825796,-0.494122467,-12.38434662,3.057242432,12.76569346
37.79834096,-0.6827302551,-11.60237274,2.572250977,11.90368216
37.80842296,-0.4682263184,-10.49916687,1.785187683,10.6601424
37.81850496,-0.04984634399,-9.117839355,0.9217831421,9.164451065
37.82858796,0.6529421997,-7.886050873,-0.2451901245,7.916833337
37.83866996,1.370849304,-6.63674881,-1.92005722,7.043598676
37.84875196,1.806892548,-5.892197113,-3.04811142,6.875596754
37.85883496,1.561253357,-6.286177826,-1.905537415,6.751638064
37.86891696,1.216220856,-7.145391083,-0.6893165588,7.280862876
37.87899896,1.107546844,-8.065228271,0.09490264893,8.141472446
37.88908096,1.099164276,-8.860823822,0.383203125,8.936957287
37.89916396,0.975970459,-9.230554962,0.6189628601,9.302622118
37.90924596,0.878972168,-8.916657715,0.9416917419,9.009226394
37.91932796,0.79215271,-8.23856781,1.287921753,8.376171436
37.92941096,0.8449928284,-7.712112579,1.027014313,7.825947337
37.93949296,1.095871124,-7.313341827,-0.05613327026,7.39520474
37.94957496,1.261576538,-7.401807861,-1.121467896,7.591839383
37.95965796,1.031804352,-7.893684998,-1.323547668,8.070109138
37.96973996,0.6191125488,-8.778495026,-0.5933660889,8.820281094
37.97982196,0.2180964661,-9.880353699,0.5658233643,9.898944962
37.98990396,0.2165995789,-11.09762238,1.670226746,11.22469577
37.99998696,0.157023468,-12.02254898,2.383942566,12.2576312
38.01006896,-0.1402583313,-12.36907837,2.928360443,12.71176884
38.02015096,-0.2980302429,-12.34033813,3.485501862,12.8265931
38.03023396,-0.9289682007,-12.27417572,3.452420654,12.7842708
38.04031596,-1.899699554,-12.42760666,2.646496582,12.84749819
38.05039796,-3.0258078,-12.91199936,2.502945099,13.49592436
38.06048096,-3.640878754,-13.40896591,3.413202209,14.30756144
38.07056296,-3.643573151,-13.5365007,4.385280762,14.68819812
38.08064496,-3.141966248,-13.12530579,4.653672638,14.27593335
38.09072733,-2.35774704,-12.94163773,4.482279053,13.89733009
38.10081033,-1.693428497,-12.7575206,4.351451111,13.58518158
38.11089233,-1.313668213,-12.71815247,5.361101532,13.86428995
38.12097433,-1.153800659,-13.68603973,6.86023407,15.35258125
38.13105733,-0.9428892517,-14.15995422,5.198389893,15.11345762
38.14113933,0.2610571289,-15.22274414,1.171763306,15.27000718
38.15122133,0.6942562866,-17.04221054,-5.875282288,18.03989673
38.16130433,1.84177002,-19.44022385,-10.40606049,22.12691833
38.17138633,3.703448639,-19.34202805,-9.683363342,21.94532083
38.18146833,5.21979538,-17.74305313,-5.648354187,19.33820321
38.19155033,7.339687042,-16.18928421,-0.7610174561,17.7916575
38.20163333,7.979456635,-15.01991592,4.159550171,17.50918217
38.21171533,8.006400604,-14.3222168,5.923482056,17.44465489
38.22179733,8.001909943,-13.20419174,3.849245453,15.91219447
38.23188033,7.258256378,-11.38712036,0.672102356,13.52037416
38.24196233,5.122198334,-9.98438736,-0.869841156,11.25528899
38.25204433,1.854942627,-8.566835175,-1.719025269,8.932330319
38.26212733,-0.7032376099,-7.715405731,-2.388732605,8.107285131
38.27220933,-1.765279083,-7.504494324,-2.275418243,8.038107581
38.28229133,-1.41695343,-7.284601593,-1.56559433,7.58447513
38.29237333,-0.8779243469,-7.234006805,-0.8424481201,7.33562025
38.30245633,0.1880090332,-7.518115997,-0.8563691711,7.569067558
38.31253833,1.17011673,-7.745493164,-1.376687164,7.953433539
38.32262033,1.488953705,-7.71091507,-1.665885773,8.028098763
38.33270333,1.629212036,-7.45464798,-1.867516479,7.855808435
38.34278533,1.700763245,-6.817123718,-2.011517029,7.308349483
38.35286733,1.404978333,-5.885161743,-2.161355438,6.424994178
38.36295033,0.9931846619,-4.866829376,-2.069596252,5.381047537
38.37303233,0.9825567627,-3.854035492,-2.131417694,4.512421606
38.38311433,1.219963074,-2.893782349,-2.435884552,3.974395518
38.39319633,1.643133087,-2.187700653,-2.696342926,3.841378094
38.40327933,2.033670959,-1.605561218,-2.75322464,3.780726162
38.41336133,2.173480225,-1.156495056,-2.548300781,3.54335067
38.42344333,2.551444244,-1.068777466,-1.889820099,3.350160147
38.43352633,2.736010437,-1.250349884,-1.098116455,3.202340971
38.44360833,2.858455811,-1.522184601,-0.2559677124,3.248589702
38.45369033,3.002755737,-1.990859985,0.7825726318,3.686798804
38.46377333,3.099155273,-3.144361267,2.01136734,4.851532723
38.47385533,3.309916992,-5.130431213,3.444187775,7.009943249
38.48393733,3.268453217,-8.129594421,5.264552307,10.22196668
38.49401933,2.542762299,-12.39183105,10.32897079,16.33128148
38.50410233,1.150956573,-18.13119598,19.81983444,26.88662876
38.51418433,0.5782475281,-26.57289139,28.52333542,38.98760816
38.52426633,1.76917099,-35.00904831,28.518246,45.18908922
38.53434933,0.4652325439,-32.60115555,14.16654053,35.54915829
38.54443133,-1.552421722,-19.38873093,5.958209839,20.34288978
38.55451333,-0.7183561707,-9.88723938,4.383484497,10.83921005
38.56459633,-0.4552033997,-4.396208038,3.414848785,5.585252678
38.57467833,0.325872345,-0.8364605713,1.503473511,1.751082999
38.58476033,2.023941193,-0.2074685669,-2.74154892,3.414011077
38.59484233,4.377496948,-4.093537445,-7.99517395,9.992113632
38.60492533,6.190377045,-9.736053772,-13.55850494,17.80293704
38.61500733,7.242239685,-12.13721054,-14.52055435,20.26347488
38.62508933,8.146060181,-11.52827682,-8.838071136,16.65445779
38.63517233,7.892637177,-12.05263641,-2.196382599,14.57339571
38.64525433,5.483995972,-14.96512985,22.06770996,27.22155665
38.65533633,1.910327454,-14.41457474,14.72742416,20.69604644
38.66541933,-0.2300715637,-8.446934509,-7.883206787,11.55632229
38.67550133,-2.990930328,-5.422473907,-10.55769516,12.23984537
38.68558333,-1.741927643,-5.52860321,-4.832850037,7.546933473
38.69566533,-0.8810678101,-6.571783905,-3.400628357,7.451771427
38.70574833,-0.1212478638,-7.970325623,-4.723726959,9.265764294
38.71583033,0.2468367004,-9.104966125,-5.487887878,10.63382574
38.72591233,0.3118016052,-10.32178574,-4.833299103,11.40163415
38.73599533,0.3324586487,-11.6826059,-2.90994873,12.04415256
38.74607733,0.1998344421,-12.76231064,-0.5824388123,12.77715702
38.75615933,0.1333726501,-13.27319824,0.9475296021,13.30764413
38.76624233,0.3649411011,-12.75632309,1.579365692,12.85890185
38.77632433,0.612077179,-11.5206427,2.308349762,11.76555674
38.78640633,1.300944672,-10.04276596,2.683469696,10.47619276
38.79648833,1.969753876,-8.740174713,2.390977936,9.272936959
38.80657133,2.421065369,-7.554340668,1.293011169,8.037505728
38.81665333,2.973716125,-6.536607056,-0.05478607178,7.181449778
38.82673533,2.668800201,-6.057752838,-1.128203888,6.715035962
38.83681833,1.874402161,-6.108497314,-1.222358093,6.505480936
38.84690033,1.21921463,-6.822362823,-0.6357279968,6.959545164
38.85698233,0.8273295593,-7.471562805,-0.2183958435,7.520400368
38.86706533,0.826431427,-8.131989441,-0.06032455444,8.174098129
38.87714733,0.7188052368,-8.572523346,0.429307251,8.613311918
38.88722933,0.4290078735,-8.551117859,0.6846762085,8.589205196
38.89731133,0.406255188,-8.32987793,0.4176315308,8.35022908
38.90739433,0.6836283875,-7.939489746,-0.04056564331,7.968970496
38.91747633,0.8149053955,-7.645501099,-0.9626481628,7.748835354
38.92755833,0.9054670715,-7.682474213,-1.832189941,7.949666699
38.93764133,1.016536102,-8.037984924,-1.822759552,8.304516824
38.94772333,0.9690847778,-8.843609619,-0.9141490173,8.943390008
38.95780533,1.035247192,-9.779313812,0.3100053406,9.838842345
38.96788833,1.196911011,-10.7509433,1.140029297,10.87727193
38.97797033,1.301244049,-11.54953262,1.369801483,11.70304644
38.98805233,1.302890625,-11.78693893,1.497485962,11.95290415
38.99813433,0.9380992126,-11.83678528,1.418899384,11.95837745
39.00821733,0.3058140564,-12.13212112,1.527723083,12.2317547
39.01829933,-0.5977070618,-12.54481293,1.41351059,12.63833839
39.02838133,-1.970502319,-13.07935135,1.577868805,13.320735
39.03846433,-3.144960022,-13.30852478,2.214944,13.85328778
39.04854633,-3.570075989,-13.35702393,3.017275543,14.15130674
39.05862833,-2.93809021,-13.28681992,4.083957367,14.20741586
39.06871133,-1.632355499,-12.95900162,4.693789215,13.87919178
39.07879333,-0.8511300659,-12.85990768,4.861889648,13.7746005
39.08887496,-1.077309723,-12.90406586,4.568499756,13.7312309
39.09895696,-0.950223999,-12.55065079,4.555776215,13.38569601
39.10903996,-1.160836029,-12.64240997,5.590424652,13.87194716
39.11912196,-1.220711517,-13.35822144,6.170468445,14.76505663
39.12920396,-0.4333488464,-14.37445816,3.12415329,14.71642526
39.13928696,0.1387614441,-15.82419342,-4.359983368,16.41443898
39.14936896,-0.007035369873,-18.2835791,-9.830956421,20.75902258
39.15945096,1.099763031,-19.62479004,-9.248966675,21.72291986
39.16953396,3.514092407,-18.49808304,-5.861660614,19.72021771
39.17961596,6.135441284,-16.991017,-1.475032654,18.12495572
39.18969796,6.906936951,-15.4156929,3.317401428,17.21495042
39.19978096,7.164251862,-14.55558151,6.004014587,17.29854471
39.20986296,7.391179962,-13.55416397,3.961511993,15.93858461
39.21994496,7.111112366,-11.94560898,-0.03098556519,13.90203054
39.23002696,5.968688049,-10.31400192,-1.425335999,12.00147722
39.24010996,3.372486877,-8.979526978,-0.582588501,9.609629641
39.25019196,1.331930237,-7.949369202,-1.119671631,8.13757786
39.26027396,-0.1463955688,-7.134613495,-1.85464325,7.373184045
39.27035696,-1.250050507,-6.934928741,-1.279239807,7.161865497
39.28043896,-1.296304321,-7.326963501,-0.799637146,7.483596636
39.29052096,-0.2653981018,-7.754773865,-1.273701324,7.863158965
39.30060396,0.9249266052,-7.989186401,-1.906136169,8.26534595
39.31068596,1.357676697,-7.940387878,-1.902693329,8.277275372
39.32076796,0.9996212769,-7.655380554,-1.882335663,7.94652639
39.33084996,1.057999878,-7.080725555,-2.017354889,7.438128722
39.34093296,0.8851094055,-6.273603973,-1.983076172,6.638833977
39.35101496,0.3992198181,-5.221292267,-1.942660217,5.585266164
39.36109696,0.1746867371,-4.047583008,-2.041155396,4.536491928
39.37117996,0.4740641785,-2.921474762,-2.283052368,3.737924524
39.38126196,0.8201445007,-1.879641266,-2.762804718,3.440752563
39.39134396,1.14317276,-1.02027832,-3.07849823,3.438744417
39.40142696,1.352138214,-0.435743866,-2.930905151,3.257047048
39.41150896,1.849404144,-0.4171824646,-2.217039642,2.917122156
39.42159096,2.465822296,-0.6394702148,-1.473984833,2.943099223
39.43167296,3.05035675,-0.8039781189,-0.6177653503,3.214450365
39.44175596,3.5500177,-1.472338257,0.3538641357,3.859485126
39.45183796,3.551364899,-2.886297913,1.209784241,4.733549006
39.46191996,3.462599487,-5.173092499,2.284100189,6.630806503
39.47200296,3.174149323,-8.709787903,4.570146332,10.33546645
39.48208496,2.675835571,-13.41016342,10.29978149,17.11952329
39.49216696,1.718276825,-19.15476746,19.97072067,27.72521011
39.50224996,1.357527008,-27.35860748,29.57489868,40.31142413
39.51233196,0.8970845032,-35.26307007,29.34871902,45.8872115
39.52241396,-1.423390045,-31.86139389,13.94350433,34.80798433
39.53249596,-2.75082962,-18.87574768,5.67140625,19.90039605
39.54257896,-1.998643799,-9.780062256,4.436324615,10.92360613
39.55266096,-1.861528931,-4.255800018,3.833079071,6.022426332
39.56274296,-0.3050656128,-1.280137939,1.858834534,2.277517068
39.57282596,2.996169434,-2.112107849,-3.617377625,5.150092399
39.58290796,6.171815643,-6.753206635,-9.907746735,13.48556834
39.59298996,7.571105804,-11.70655609,-13.42992233,19.35789019
39.60307296,8.741970978,-13.78588211,-13.46659607,21.16180077
39.61315496,8.424181824,-13.27933548,-8.372389526,17.81584959
39.62323696,5.975723419,-11.17785553,-1.805994415,12.80294265
39.63331896,-0.1407073975,-10.04546036,18.80105301,21.31691034
39.64340196,-2.599045258,-8.337362366,11.00316879,14.04764646
39.65348396,0.1643582153,-5.917195129,-5.207071838,7.883768702
39.66356596,-0.7884104919,-4.99271759,-8.117469635,9.562538016
39.67364896,-0.7167095947,-6.002966766,-4.781955872,7.708202423
39.68373096,1.095571747,-8.455766144,-4.441264343,9.613796726
39.69381296,2.421963501,-10.35561539,-6.020480347,12.22091899
39.70389596,2.561922455,-10.92248657,-5.879323883,12.66612052
39.71397796,2.468516693,-11.29955246,-4.391717377,12.37176794
39.72405996,2.26523941,-11.81852325,-1.970801697,12.19396822
39.73414296,2.036065979,-12.20427109,0.6242019653,12.38868135
39.74422496,1.637444916,-12.26594284,2.643502808,12.65395933
39.75430696,0.8283773804,-11.85010757,3.559597778,12.40088686
39.76438896,-0.02155517578,-10.93071945,3.265309753,11.4080384
39.77447196,-0.1930984497,-9.951306152,2.215542755,10.19678434
39.78455396,0.2341131592,-8.861871643,0.7818241882,8.899372284
39.79463596,0.6081852722,-7.820936279,-0.7517367554,7.880484868
39.80471896,0.8190966797,-6.81457901,-2.181264038,7.201896921
39.81480096,0.8545729065,-6.487958221,-2.091301117,6.87003909
39.82488296,0.7372169495,-6.927893372,-0.5948629761,6.992357067
39.83496596,0.7598199463,-7.674840088,0.6393205261,7.738813052
39.84504796,0.6810836792,-8.367000732,1.119671631,8.469016519
39.85512996,0.540226593,-8.932225342,0.9494755554,8.998777592
39.86521196,0.3754193115,-9.107810211,0.9614506531,9.166107891
39.87529496,0.2776725769,-8.87504425,1.157842255,8.954558124
39.88537696,0.3577560425,-8.420439606,1.045875092,8.492681982
39.89545896,0.3912863159,-7.840994568,0.3680845642,7.859375741
39.90554196,0.6336323547,-7.428751831,-0.7569758606,7.494054722
39.91562396,1.079555054,-7.260950775,-1.683399353,7.531313209
39.92570596,1.259331207,-7.122189331,-1.91077652,7.480812982
39.93578896,1.317260742,-7.462431793,-1.027014313,7.647079346
39.94587096,1.223106537,-8.457113342,0.330662384,8.551496553
39.95595296,1.0086026,-9.819430389,1.524878998,9.988180432
39.96603496,0.9345066833,-11.03415436,2.249522095,11.29983251
39.97611796,0.840352478,-11.92495193,2.326013031,12.17871124
39.98619996,0.5013075256,-12.48134491,2.16000824,12.67678648
39.99628196,0.0043409729,-13.1118338,1.942061462,13.25487862
